// Start Time: Unknown
// Update Rate: 100.0Hz
// Filter Profile: human (46.1)
// Firmware Version: 4.3.5
PacketCounter,Acc_X,Acc_Y,Acc_Z,Gyr_X,Gyr_Y,Gyr_Z
12563,9.599442,-1.892928,1.169983,0.001211,0.019821,-0.008118
12564,9.642556,-1.899310,1.139159,0.000114,0.017395,-0.005980
12565,9.676068,-1.891709,1.165324,0.000195,0.013330,-0.004089
12566,9.686718,-1.876941,1.196469,0.002557,0.021198,-0.002405
12567,9.655398,-1.891106,1.196669,0.006362,0.014393,-0.007518
12568,9.652988,-1.882724,1.175094,0.006363,0.014391,-0.007519
12569,9.659036,-1.851999,1.159920,0.007733,0.014928,-0.014034
12570,9.624300,-1.821362,1.200469,0.004511,0.015929,-0.016727
12571,9.636431,-1.841417,1.168200,-0.000674,0.023376,-0.018287
12572,9.628180,-1.861297,1.164160,0.004591,0.024191,-0.025847
12573,9.607952,-1.858926,1.194392,-0.001379,0.025295,-0.028698
12574,9.622517,-1.885955,1.185943,-0.003104,0.030698,-0.019711
12575,9.593754,-1.906184,1.210225,0.002676,0.028590,-0.023783
12576,9.628752,-1.933190,1.174065,0.007982,0.026196,-0.017206
12577,9.668336,-1.975991,1.184112,0.012538,0.026580,-0.008793
12578,9.639211,-1.916632,1.208791,0.009197,0.021347,-0.003317
12579,9.663982,-1.850521,1.229964,0.003965,0.018502,0.005188
12580,9.686415,-1.858611,1.227143,-0.015136,0.022280,0.010063
12581,9.654814,-1.874541,1.227061,-0.029279,0.019650,0.008641
12582,9.666446,-1.897967,1.194490,-0.040440,0.027007,0.017394
12583,9.655140,-1.914454,1.166986,-0.036581,0.029308,0.015398
12584,9.675056,-1.915897,1.141386,-0.027616,0.028232,0.013081
12585,9.695764,-1.888536,1.202824,-0.024936,0.032173,0.011332
12586,9.703598,-1.867596,1.211708,-0.021156,0.027408,0.005281
12587,9.667356,-1.868153,1.166173,-0.021003,0.030416,0.011238
12588,9.635710,-1.883892,1.166627,-0.021545,0.024235,0.004629
12589,9.618562,-1.929067,1.155584,-0.008684,0.020234,0.015434
12590,9.632545,-1.959769,1.146274,0.006949,0.017321,0.013219
12591,9.654904,-1.887324,1.144212,0.024689,0.010986,0.015847
12592,9.629429,-1.873541,1.127205,0.030935,0.007997,0.014336
12593,9.668635,-1.837732,1.136836,0.030473,0.008885,0.011790
12594,9.645613,-1.830710,1.142651,0.030606,0.003991,0.001458
12595,9.653841,-1.808556,1.150402,0.030225,0.011944,0.002968
12596,9.665918,-1.829907,1.118147,0.027657,0.016250,-0.004422
12597,9.603529,-1.777330,1.117115,0.020437,0.011926,-0.011102
12598,9.595260,-1.797965,1.112190,0.011724,0.013143,-0.014128
12599,9.560338,-1.848393,1.151376,0.008612,0.008064,-0.013973
12600,9.547718,-1.934843,1.098897,0.014147,0.005818,-0.012700
12601,9.576895,-1.992275,1.077380,0.031962,-0.004578,-0.008164
12602,9.562619,-1.961774,1.088591,0.055182,-0.009126,-0.006175
12603,9.612898,-1.990791,1.125748,0.069659,-0.013639,0.005966
12604,9.615231,-1.997905,1.148843,0.080996,-0.018019,0.003162
12605,9.673827,-2.005258,1.191963,0.076903,-0.020486,0.010447
12606,9.728361,-1.969492,1.275625,0.067315,-0.011595,0.019555
12607,9.788152,-2.014983,1.255883,0.048601,-0.004624,0.025032
12608,9.737982,-1.959149,1.306093,0.013268,0.005948,0.040862
12609,9.653937,-1.912533,1.331881,-0.027169,0.019917,0.057006
12610,9.596604,-1.971777,1.398812,-0.094047,0.025145,0.080466
12611,9.476721,-2.034701,1.548518,-0.152585,0.041054,0.106411
12612,9.460149,-2.123650,1.731332,-0.221389,0.034299,0.124530
12613,9.474412,-2.347864,1.762868,-0.281871,0.040950,0.156292
12614,9.603195,-2.621479,1.792194,-0.327918,0.039769,0.193992
12615,9.739865,-2.966807,1.847569,-0.340537,0.044181,0.232231
12616,9.840912,-3.296125,1.963041,-0.325843,0.043005,0.279248
12617,9.861927,-3.576562,1.999865,-0.286354,0.051707,0.329977
12618,9.819427,-3.933172,1.992010,-0.218464,0.051089,0.390322
12619,9.778485,-4.264461,1.970185,-0.123246,0.059794,0.459894
12620,9.708679,-4.467705,2.000469,-0.011634,0.053570,0.516994
12621,9.751490,-4.517813,2.080795,0.090806,0.053893,0.595727
12622,9.757427,-4.357925,2.139638,0.157975,0.054583,0.659406
12623,9.778274,-4.276680,2.147122,0.170495,0.055179,0.724977
12624,9.790117,-4.231964,2.170273,0.148172,0.054291,0.791024
12625,9.833693,-4.365458,2.156084,0.110372,0.053332,0.852716
12626,9.838295,-4.615499,2.183115,0.093421,0.055457,0.906954
12627,9.835875,-4.906540,2.147271,0.110987,0.067343,0.956140
12628,9.805531,-5.244545,2.101632,0.176459,0.074783,1.011754
12629,9.683973,-5.451325,2.035392,0.275175,0.087867,1.057524
12630,9.609994,-5.510673,2.050622,0.385204,0.101789,1.111497
12631,9.595898,-5.483406,2.047908,0.474239,0.108887,1.168207
12632,9.703330,-5.462400,2.121600,0.534103,0.125816,1.218330
12633,9.798853,-5.543289,2.246094,0.582559,0.145930,1.271130
12634,9.875757,-5.695439,2.330623,0.635537,0.177216,1.324017
12635,9.859935,-5.961137,2.263715,0.698390,0.206334,1.394082
12636,9.959929,-6.095072,2.170500,0.760674,0.231103,1.483594
12637,10.084750,-6.070181,2.033688,0.820952,0.246072,1.569984
12638,10.229865,-5.977370,2.076569,0.839895,0.257915,1.658804
12639,10.298574,-5.921163,2.265087,0.826338,0.276027,1.750902
12640,10.175128,-5.812269,2.466074,0.760809,0.290830,1.850911
12641,9.892922,-5.902387,2.657180,0.674127,0.302800,1.930583
12642,9.772374,-6.050499,2.833115,0.583193,0.311120,2.001301
12643,9.712484,-6.374432,2.865429,0.513859,0.325317,2.060260
12644,9.637224,-6.716022,2.719938,0.510751,0.330924,2.092704
12645,9.567768,-7.234043,2.565521,0.580316,0.337051,2.118754
12646,9.420197,-7.762345,2.520155,0.743939,0.348748,2.146728
12647,9.302243,-8.095350,2.617172,0.985909,0.354084,2.162038
12648,9.069431,-8.217955,2.848453,1.252323,0.381217,2.180265
12649,8.845395,-8.152784,2.936235,1.494338,0.403737,2.189861
12650,8.767677,-8.001650,3.014862,1.682576,0.430826,2.204435
12651,8.762862,-7.947377,2.944788,1.820984,0.457499,2.210089
12652,8.933725,-7.811995,2.962335,1.915677,0.483647,2.211284
12653,9.053183,-7.644911,3.078765,1.955297,0.507207,2.221406
12654,9.057511,-7.495310,3.199739,1.943923,0.527079,2.229656
12655,9.007275,-7.366939,3.378172,1.896128,0.557008,2.241253
12656,8.804980,-7.238770,3.549689,1.806523,0.581486,2.253504
12657,8.589893,-7.378286,3.552346,1.709796,0.595228,2.270483
12658,8.487639,-7.713269,3.495146,1.636094,0.605388,2.280791
12659,8.437718,-8.190618,3.433464,1.639248,0.612715,2.300752
12660,8.315355,-8.503880,3.397958,1.715130,0.611937,2.309590
12661,8.177757,-8.674482,3.393691,1.839546,0.607134,2.322169
12662,8.027730,-8.555549,3.450490,1.942834,0.608645,2.357274
12663,7.816385,-8.204802,3.442350,1.981842,0.596478,2.391795
12664,7.562325,-7.596148,3.468854,1.942939,0.573811,2.416331
12665,7.320552,-7.203215,3.641338,1.802745,0.552291,2.435621
12666,7.068916,-7.190434,3.746368,1.630738,0.520748,2.451745
12667,6.909725,-7.586086,3.706393,1.484534,0.494430,2.466097
12668,6.763268,-8.174906,3.637873,1.431711,0.465299,2.490690
12669,6.530668,-8.606105,3.558837,1.513819,0.435650,2.494402
12670,6.307676,-8.824801,3.525101,1.672017,0.398209,2.494875
12671,6.068495,-8.810968,3.622996,1.854869,0.380860,2.511939
12672,5.939487,-8.549985,3.702278,2.005803,0.361781,2.524914
12673,5.803678,-7.968101,3.847927,2.070720,0.348769,2.548138
12674,5.554130,-7.338425,4.030958,2.007749,0.337232,2.568155
12675,5.220658,-6.844441,4.159962,1.829076,0.319230,2.591331
12676,4.933814,-6.776295,4.195931,1.589425,0.277258,2.611845
12677,4.726552,-7.094591,4.177930,1.399852,0.238227,2.629704
12678,4.511299,-7.567939,4.064428,1.311907,0.186925,2.642839
12679,4.326764,-7.946308,4.082897,1.339657,0.139507,2.661157
12680,4.084070,-8.180589,4.121504,1.445808,0.100466,2.683249
12681,3.810808,-8.228084,4.246044,1.586536,0.075441,2.705140
12682,3.596479,-8.017390,4.363862,1.690004,0.054726,2.733619
12683,3.377688,-7.464305,4.567844,1.725355,0.044373,2.754987
12684,3.099743,-6.659774,4.627157,1.663377,0.023777,2.758450
12685,2.753745,-5.949863,4.851875,1.520327,-0.005432,2.753827
12686,2.381429,-5.659842,4.999372,1.309690,-0.042539,2.743052
12687,2.007950,-5.752626,4.977125,1.134048,-0.092217,2.737384
12688,1.847275,-6.056457,5.067781,1.029338,-0.143192,2.728344
12689,1.687547,-6.278411,5.104471,0.992117,-0.187271,2.712688
12690,1.616657,-6.274758,5.311045,0.973765,-0.227148,2.704746
12691,1.636862,-6.397700,5.328519,0.899952,-0.256962,2.717912
12692,1.716687,-6.564193,5.362440,0.845818,-0.291867,2.749889
12693,1.713686,-6.599777,5.509224,0.772956,-0.328004,2.767457
12694,1.579970,-6.566967,5.612213,0.709297,-0.365000,2.820954
12695,1.340696,-6.465678,5.708146,0.671979,-0.394359,2.856675
12696,1.071211,-6.384625,5.830354,0.655789,-0.434629,2.878390
12697,0.841933,-6.519712,5.743864,0.643459,-0.475073,2.913915
12698,0.734664,-6.492423,5.823806,0.681596,-0.511816,2.934624
12699,0.735947,-6.476014,5.792036,0.702101,-0.543274,2.972595
12700,0.676240,-6.224307,5.943361,0.742294,-0.577841,3.005933
12701,0.517253,-5.817942,6.107807,0.752330,-0.610738,3.031971
12702,0.272452,-5.305453,6.262227,0.725201,-0.648277,3.049127
12703,0.047989,-4.756722,6.426565,0.671865,-0.683758,3.048402
12704,-0.154140,-4.511004,6.471450,0.579801,-0.725001,3.044807
12705,-0.271524,-4.329049,6.602501,0.560909,-0.768688,3.017374
12706,-0.342374,-4.269932,6.715319,0.534171,-0.816928,2.985875
12707,-0.403073,-4.250613,6.724643,0.552220,-0.845737,2.967813
12708,-0.413565,-4.088916,6.771012,0.607503,-0.875332,2.918588
12709,-0.452923,-3.820362,6.867739,0.693691,-0.916956,2.859839
12710,-0.513854,-3.367557,7.097978,0.754779,-0.941596,2.811803
12711,-0.572531,-2.758477,7.405706,0.762729,-0.968130,2.754521
12712,-0.601293,-2.265775,7.553425,0.651373,-0.995393,2.700245
12713,-0.572890,-1.852401,7.765018,0.555773,-1.007002,2.610871
12714,-0.644294,-1.595765,7.928892,0.403052,-1.018705,2.508406
12715,-0.713702,-1.489849,7.804064,0.277034,-1.027427,2.433033
12716,-0.667415,-1.423928,7.864679,0.159949,-1.035160,2.330404
12717,-0.699581,-1.465004,7.881376,0.035122,-1.036004,2.239141
12718,-0.669676,-1.436152,7.819425,-0.092447,-1.041521,2.151981
12719,-0.647162,-1.338467,7.978325,-0.220600,-1.034970,2.037924
12720,-0.680521,-1.384700,8.095044,-0.395068,-1.010499,1.948823
12721,-0.700565,-1.464472,8.209262,-0.565090,-0.985834,1.849829
12722,-0.746485,-1.770633,8.207333,-0.744024,-0.966595,1.756926
12723,-0.728312,-2.233703,8.087685,-0.844785,-0.938632,1.675115
12724,-0.845663,-2.595413,8.272349,-0.863613,-0.904946,1.583659
12725,-0.884592,-3.006498,8.300343,-0.848203,-0.869356,1.515406
12726,-0.810296,-3.245902,8.447289,-0.749927,-0.831720,1.435607
12727,-0.799602,-3.263669,8.591059,-0.664442,-0.788061,1.364871
12728,-0.813230,-3.001931,8.628113,-0.619872,-0.726524,1.309631
12729,-0.875347,-2.529777,8.758621,-0.607058,-0.660968,1.227899
12730,-1.012730,-2.177578,8.851950,-0.689015,-0.594994,1.149362
12731,-1.075778,-2.136244,8.828735,-0.822421,-0.521724,1.081767
12732,-1.157090,-2.313480,8.702890,-0.984323,-0.452603,0.995888
12733,-1.254683,-2.628189,8.508408,-1.122414,-0.388907,0.915954
12734,-1.450991,-3.122343,8.323684,-1.181719,-0.336434,0.843125
12735,-1.505038,-3.571477,8.243311,-1.171786,-0.295544,0.768540
12736,-1.623417,-3.799037,8.158625,-1.118139,-0.268434,0.702363
12737,-1.722079,-3.735262,8.160571,-1.063555,-0.247017,0.648641
12738,-1.842756,-3.688054,8.204031,-1.064723,-0.238982,0.594024
12739,-1.862713,-3.841356,8.338944,-1.072414,-0.240248,0.541655
12740,-1.968258,-4.275425,8.369826,-1.080156,-0.248314,0.496205
12741,-1.916982,-4.771267,8.653586,-0.984560,-0.248791,0.432423
12742,-1.995784,-5.034410,8.810967,-0.810766,-0.246483,0.364854
12743,-1.977866,-4.894974,9.051389,-0.628165,-0.231425,0.304972
12744,-1.961688,-4.418016,9.281931,-0.495443,-0.203917,0.244835
12745,-1.845229,-3.806570,9.653955,-0.448528,-0.155722,0.150573
12746,-1.817896,-3.219985,9.992892,-0.453031,-0.092966,0.043335
12747,-1.687004,-2.907945,10.449549,-0.474990,-0.010119,-0.087192
12748,-1.475112,-2.947347,10.643653,-0.443982,0.095191,-0.247551
12749,-1.299776,-3.282610,10.810704,-0.316947,0.206607,-0.414847
12750,-1.060624,-3.657175,10.897081,-0.105215,0.335926,-0.594752
12751,-0.768339,-3.763668,10.908754,0.177964,0.468072,-0.796909
12752,-0.531222,-3.660115,10.839830,0.489060,0.606660,-1.027532
12753,-0.495196,-2.943689,10.699286,0.768523,0.734310,-1.278160
12754,-0.588327,-1.810631,10.552037,0.929101,0.847697,-1.540604
12755,-0.594905,-0.718933,10.440834,0.933948,0.940519,-1.812329
12756,-0.430085,-0.037907,10.410029,0.775743,1.013675,-2.086860
12757,-0.051869,-0.146601,10.265974,0.519914,1.087791,-2.326446
12758,0.243142,-0.695718,10.202723,0.308380,1.160133,-2.566423
12759,0.472505,-1.816430,9.795234,0.115596,1.216546,-2.756938
12760,0.547824,-3.015189,9.528180,0.104503,1.268756,-2.918111
12761,0.502435,-3.903373,9.342403,0.205604,1.293018,-3.073123
12762,0.487463,-4.380868,9.188026,0.371704,1.305705,-3.180427
12763,0.482564,-4.324139,9.129577,0.516118,1.307776,-3.284500
12764,0.577785,-4.100091,9.150621,0.589655,1.297876,-3.386665
12765,0.689423,-3.998353,9.121985,0.611054,1.276530,-3.475385
12766,0.823036,-4.110440,9.107476,0.593726,1.269430,-3.560909
12767,0.941999,-4.326623,9.161439,0.616425,1.250894,-3.641129
12768,1.069536,-4.447572,9.281712,0.647693,1.229089,-3.723571
12769,1.287922,-4.461904,9.390103,0.673215,1.219444,-3.796279
12770,1.552529,-4.379867,9.592236,0.665757,1.212244,-3.865561
12771,1.735909,-4.076006,9.655592,0.592099,1.208290,-3.927172
12772,1.744722,-3.826749,9.307227,0.509719,1.201821,-4.009743
12773,1.912730,-3.963788,8.729316,0.465322,1.170489,-4.089318
12774,2.299325,-4.588193,8.346776,0.488496,1.139223,-4.127131
12775,2.465124,-5.232217,8.297193,0.584442,1.113439,-4.142744
12776,2.516845,-5.363474,8.650113,0.722285,1.080125,-4.177192
12777,2.548622,-4.967564,9.235154,0.778259,1.048756,-4.205796
12778,2.780257,-4.045973,9.691930,0.683586,1.015087,-4.233003
12779,3.331417,-3.509293,10.060793,0.442894,1.015209,-4.268030
12780,3.788063,-3.705627,10.003871,0.182398,1.048691,-4.307187
12781,4.089760,-4.479756,9.536829,0.086590,1.088576,-4.344626
12782,4.258755,-5.385734,8.948669,0.191122,1.113981,-4.361494
12783,4.417997,-6.251357,8.544721,0.458547,1.124986,-4.346395
12784,4.578070,-6.487080,8.605977,0.785183,1.148592,-4.324116
12785,4.708560,-5.909246,9.001279,0.991825,1.171399,-4.288443
12786,4.868908,-4.946282,9.517282,1.012440,1.198551,-4.270683
12787,5.124022,-4.264799,9.891187,0.851851,1.243056,-4.264238
12788,5.587469,-4.266749,10.261665,0.626409,1.309884,-4.239407
12789,6.018316,-4.808754,10.359091,0.466955,1.405048,-4.200130
12790,6.260803,-5.595457,10.202223,0.457225,1.512097,-4.153682
12791,6.485586,-6.398424,10.041548,0.643641,1.625021,-4.084030
12792,6.720641,-6.981247,9.960130,0.975807,1.735788,-4.009706
12793,6.850578,-6.843450,10.105646,1.338309,1.835329,-3.923824
12794,6.699505,-5.581009,10.352658,1.551453,1.924311,-3.843763
12795,6.273128,-3.691246,10.406360,1.486197,2.011174,-3.787345
12796,5.786763,-1.947867,10.379145,1.129652,2.042583,-3.771300
12797,5.641782,-0.858135,10.151963,0.576323,2.067533,-3.779699
12798,5.585505,-0.900757,9.738934,0.008841,2.077212,-3.787193
12799,5.475245,-1.870743,9.199597,-0.389556,2.062984,-3.781460
12800,5.421085,-3.157699,8.831734,-0.509902,2.035810,-3.767165
12801,5.202820,-4.331544,8.784623,-0.373245,2.011898,-3.745075
12802,4.970145,-5.038814,8.810952,-0.064701,1.976291,-3.720821
12803,4.755328,-5.187722,9.002641,0.294740,1.930091,-3.707650
12804,4.524047,-4.772357,9.145666,0.596433,1.879881,-3.702040
12805,4.299809,-3.877833,9.219692,0.761011,1.834569,-3.709572
12806,4.017730,-3.080252,9.186834,0.770746,1.775182,-3.721812
12807,3.792284,-2.503226,9.102890,0.677106,1.697627,-3.746712
12808,3.767325,-2.313091,9.139974,0.526901,1.624838,-3.754903
12809,3.863579,-2.469102,9.114286,0.401469,1.552327,-3.747385
12810,3.975248,-2.750102,9.044915,0.333839,1.504804,-3.738935
12811,3.833488,-3.130999,8.831232,0.327374,1.457749,-3.723309
12812,3.666610,-3.587286,8.764795,0.386627,1.400658,-3.693216
12813,3.715386,-4.008861,8.771085,0.514326,1.347468,-3.658889
12814,3.888567,-4.252447,9.170481,0.718197,1.335904,-3.620836
12815,3.554780,-4.306919,8.689302,0.891751,1.319643,-3.579635
12816,3.402011,-4.104199,8.926951,1.125490,1.288992,-3.542883
12817,3.336839,-3.751620,9.099375,1.307081,1.275935,-3.506100
12818,3.331304,-3.101336,8.914662,1.385606,1.267979,-3.474976
12819,3.209195,-2.181609,8.717814,1.334565,1.241271,-3.451812
12820,2.595000,-1.154652,8.194422,1.094589,1.175198,-3.431757
12821,1.791597,-0.179309,8.079423,0.701770,1.062418,-3.414144
12822,1.112690,0.520644,7.985584,0.137042,0.906683,-3.381782
12823,1.036156,0.637002,7.948340,-0.506230,0.738839,-3.345410
12824,1.373595,-0.004760,8.035198,-1.075897,0.616819,-3.308626
12825,1.837203,-1.360262,8.101804,-1.463678,0.572735,-3.286447
12826,2.359603,-2.945420,8.130644,-1.573788,0.525132,-3.252027
12827,2.659967,-4.266338,8.159334,-1.446251,0.509937,-3.201370
12828,2.832616,-4.889315,8.102708,-1.173176,0.487517,-3.145634
12829,2.669325,-4.841966,8.025918,-0.892220,0.489832,-3.111836
12830,2.290368,-4.071194,7.787958,-0.700547,0.454320,-3.091881
12831,1.960946,-3.143925,7.546127,-0.695096,0.411062,-3.080079
12832,1.600399,-2.504344,7.448494,-0.875653,0.340426,-3.044615
12833,1.615323,-2.533701,7.521224,-1.130889,0.267160,-2.987233
12834,1.837108,-3.285339,7.624882,-1.340800,0.226604,-2.924276
12835,2.190867,-4.352052,7.796879,-1.436315,0.192353,-2.835204
12836,2.475153,-5.268195,8.014010,-1.397337,0.192531,-2.726701
12837,2.443004,-5.984779,8.058809,-1.268262,0.203164,-2.608472
12838,2.376977,-6.284631,8.040126,-1.095280,0.206362,-2.489180
12839,2.221811,-6.373676,7.867949,-0.958038,0.214475,-2.368856
12840,1.763149,-6.376676,7.687200,-0.838613,0.199731,-2.240294
12841,1.483360,-6.429733,7.591339,-0.747752,0.164659,-2.120301
12842,1.515509,-6.444770,7.644084,-0.678526,0.134694,-1.997542
12843,1.715848,-6.843185,7.635688,-0.582351,0.122875,-1.866422
12844,1.953852,-7.700043,7.534310,-0.383686,0.128116,-1.729597
12845,1.929985,-8.594520,7.287583,-0.026685,0.144769,-1.591181
12846,1.571450,-9.126892,7.168109,0.439088,0.128323,-1.476468
12847,1.018340,-8.866698,7.064586,0.934618,0.059385,-1.397147
12848,0.643991,-7.744684,7.399871,1.314404,-0.040154,-1.338341
12849,0.446461,-6.148856,7.996640,1.480625,-0.126452,-1.298269
12850,0.652339,-4.700951,8.637777,1.372685,-0.193229,-1.261396
12851,1.119021,-3.805176,9.121430,1.040499,-0.226713,-1.217588
12852,1.497063,-3.643314,9.389535,0.582957,-0.235274,-1.143745
12853,1.678987,-4.310108,9.246912,0.163738,-0.233020,-1.071645
12854,1.636677,-5.474306,9.013474,-0.106939,-0.227297,-0.975346
12855,1.530127,-6.712672,8.792175,-0.183843,-0.240865,-0.862491
12856,1.482367,-7.474332,8.709055,-0.085697,-0.253573,-0.743030
12857,1.469665,-7.708102,8.763303,0.092780,-0.263052,-0.602143
12858,1.429220,-7.543717,8.863260,0.273060,-0.266378,-0.466161
12859,1.353214,-7.083583,8.978472,0.391283,-0.271312,-0.332003
12860,1.390708,-6.502684,9.260444,0.414755,-0.274817,-0.212405
12861,1.446167,-6.089188,9.479626,0.321807,-0.263128,-0.086478
12862,1.554543,-5.926346,9.569020,0.170155,-0.245164,0.017929
12863,1.738569,-5.996179,9.579054,0.007387,-0.236009,0.130090
12864,1.801356,-6.137677,9.454784,-0.119722,-0.229387,0.241285
12865,1.737881,-6.134686,9.425094,-0.204313,-0.241359,0.348845
12866,1.725762,-6.157729,9.385494,-0.256463,-0.255581,0.452035
12867,1.731400,-6.163626,9.394014,-0.276174,-0.265756,0.554640
12868,1.779769,-6.204421,9.453518,-0.256631,-0.277566,0.645585
12869,1.698604,-6.233531,9.497870,-0.211678,-0.280778,0.717714
12870,1.764093,-6.118207,9.593323,-0.137496,-0.292812,0.784518
12871,1.943684,-5.833872,9.709470,-0.093125,-0.287554,0.852179
12872,2.088468,-5.427313,9.768920,-0.100897,-0.272191,0.913543
12873,2.085702,-5.087823,9.830702,-0.173320,-0.258637,0.974177
12874,2.039725,-4.829083,9.834014,-0.278203,-0.238879,1.031157
12875,2.033751,-4.948434,9.779776,-0.378279,-0.221351,1.095938
12876,1.991216,-5.243832,9.622710,-0.424629,-0.211268,1.167782
12877,2.012506,-5.504510,9.493949,-0.401756,-0.211257,1.225323
12878,2.075851,-5.579939,9.462152,-0.338102,-0.206376,1.293262
12879,2.046361,-5.521961,9.411995,-0.255586,-0.201318,1.351710
12880,2.080341,-5.253907,9.439591,-0.194752,-0.201783,1.407673
12881,2.106134,-4.959576,9.516354,-0.179639,-0.197640,1.469076
12882,2.154291,-4.735271,9.558888,-0.196205,-0.189086,1.534447
12883,2.235785,-4.642621,9.563397,-0.237973,-0.177040,1.603497
12884,2.303983,-4.686346,9.636084,-0.255302,-0.164789,1.665628
12885,2.403063,-4.855700,9.579431,-0.253002,-0.152803,1.746433
12886,2.482470,-5.061266,9.513315,-0.214879,-0.136059,1.835095
12887,2.548988,-5.307995,9.460362,-0.126183,-0.114789,1.932782
12888,2.722887,-5.308102,9.349842,-0.026667,-0.081687,2.023460
12889,2.876983,-4.872850,8.902005,0.073762,-0.054902,2.081701
12890,2.942941,-3.970735,8.677008,0.123316,-0.047936,2.091206
12891,2.568668,-3.053701,8.560367,0.052538,-0.053196,2.105477
12892,1.825122,-2.434155,8.705019,-0.120330,-0.082681,2.105065
12893,1.324489,-2.377283,8.986262,-0.324823,-0.118125,2.094565
12894,1.277407,-2.799282,9.348984,-0.473980,-0.156763,2.088593
12895,1.411591,-3.648235,9.513422,-0.490709,-0.180922,2.093124
12896,1.526043,-4.486873,9.614445,-0.369816,-0.200055,2.106732
12897,1.422915,-4.974107,9.630371,-0.150906,-0.216808,2.134713
12898,1.396012,-4.977920,9.739071,0.076909,-0.220879,2.163527
12899,1.548473,-4.728277,9.719406,0.257550,-0.204824,2.198075
12900,1.745412,-4.525524,9.660399,0.363996,-0.186808,2.246552
12901,1.840141,-4.396020,9.450707,0.423381,-0.166614,2.318926
12902,1.923748,-4.535978,9.323842,0.466816,-0.154948,2.398816
12903,2.061397,-4.830135,9.354659,0.525201,-0.146428,2.485134
12904,2.180810,-5.182547,9.476508,0.614513,-0.129715,2.578230
12905,2.179976,-5.118851,9.711847,0.698521,-0.115662,2.686124
12906,2.123350,-4.606772,9.969424,0.729334,-0.091106,2.790795
12907,2.039831,-3.875000,10.132240,0.622193,-0.070358,2.887035
12908,1.925834,-3.199769,10.156145,0.388473,-0.049038,2.979759
12909,1.817826,-2.951968,9.930239,0.035547,-0.049250,3.065708
12910,1.673361,-3.421862,9.602174,-0.302605,-0.067044,3.153537
12911,1.598633,-4.385382,9.178552,-0.527173,-0.126321,3.248880
12912,1.506458,-5.683522,8.844150,-0.522512,-0.203188,3.345782
12913,1.561400,-6.600473,8.884519,-0.279012,-0.275611,3.446021
12914,1.596758,-6.800203,9.161150,0.087916,-0.310124,3.540360
12915,1.710812,-6.401170,9.214677,0.418347,-0.326297,3.631092
12916,1.889162,-5.616768,9.320963,0.617351,-0.332581,3.730704
12917,2.002372,-4.648512,9.266704,0.656352,-0.333798,3.810581
12918,2.093801,-3.885027,9.200587,0.519450,-0.345335,3.897704
12919,1.998689,-3.276030,9.221205,0.272620,-0.370505,3.985740
12920,1.705326,-3.070079,9.364808,-0.027090,-0.406575,4.062416
12921,1.356060,-3.273241,9.445461,-0.319153,-0.437057,4.124540
12922,1.137606,-3.741566,9.556161,-0.511575,-0.483431,4.184370
12923,1.107839,-4.301553,9.495895,-0.591919,-0.512663,4.238189
12924,1.029482,-4.410447,9.375759,-0.567778,-0.544482,4.281009
12925,0.973200,-4.041663,9.219132,-0.507872,-0.574306,4.293971
12926,1.023363,-3.554401,9.271933,-0.500681,-0.596653,4.326983
12927,0.840513,-2.985819,9.289115,-0.596945,-0.618525,4.362135
12928,0.627431,-2.488265,9.398773,-0.778021,-0.642333,4.363900
12929,0.504903,-2.352896,9.431996,-0.980227,-0.672009,4.365578
12930,0.447849,-2.616540,9.333524,-1.167090,-0.704958,4.382001
12931,0.432929,-3.206703,9.174461,-1.237343,-0.761958,4.394835
12932,0.556797,-3.754213,8.897741,-1.209983,-0.815462,4.419266
12933,0.576203,-3.816819,9.016896,-1.039161,-0.868870,4.420869
12934,0.486877,-3.496961,9.271086,-0.895846,-0.919838,4.411804
12935,0.407122,-3.037440,9.400393,-0.829459,-0.942755,4.408295
12936,0.413053,-2.494477,9.483368,-0.812321,-0.965542,4.386897
12937,0.365019,-2.030926,9.453094,-0.879001,-0.998026,4.351719
12938,0.324704,-1.935546,9.266075,-0.980395,-1.014491,4.336532
12939,0.174276,-1.719272,9.202076,-1.021278,-1.050810,4.280045
12940,0.017690,-1.709154,9.270211,-1.066388,-1.085933,4.225813
12941,-0.012117,-1.895880,9.325149,-1.097881,-1.112328,4.191423
12942,0.048545,-1.878046,9.429404,-1.097519,-1.127291,4.136908
12943,-0.010781,-1.895516,9.577146,-1.097791,-1.137525,4.082487
12944,0.043992,-1.890087,9.512029,-1.114977,-1.155224,4.043007
12945,0.005752,-1.560696,9.534321,-1.127723,-1.165120,3.985094
12946,-0.138996,-1.151167,9.539638,-1.165275,-1.190150,3.909695
12947,-0.192281,-0.828626,9.531614,-1.263294,-1.215689,3.841258
12948,-0.303707,-0.714964,9.394679,-1.367045,-1.244019,3.783072
12949,-0.377095,-0.822009,9.460882,-1.421872,-1.279412,3.692827
12950,-0.394092,-1.147882,9.369019,-1.469676,-1.315872,3.618694
12951,-0.370789,-1.374737,9.484119,-1.430077,-1.325589,3.544849
12952,-0.437859,-1.407213,9.497817,-1.375549,-1.337783,3.452752
12953,-0.369637,-0.975592,9.689500,-1.347733,-1.344608,3.334393
12954,-0.271987,-0.521158,9.717235,-1.412429,-1.330517,3.206975
12955,-0.239929,-0.198252,9.790019,-1.501331,-1.324247,3.066287
12956,-0.238596,-0.116097,9.653790,-1.677030,-1.320837,2.925163
12957,-0.353920,-0.240081,9.340497,-1.812561,-1.331968,2.789876
12958,-0.435024,-0.584467,9.213479,-1.888560,-1.354110,2.631963
12959,-0.446322,-1.355198,9.145098,-1.933992,-1.356735,2.510742
12960,-0.512264,-2.409238,9.036889,-1.873594,-1.337090,2.406635
12961,-0.538490,-3.073896,9.067103,-1.703970,-1.314671,2.272945
12962,-0.405310,-3.196108,9.305516,-1.504313,-1.273268,2.128742
12963,-0.262609,-2.857274,9.459438,-1.367331,-1.218032,2.006187
12964,-0.115882,-2.234871,9.619695,-1.348723,-1.155192,1.894484
12965,-0.206371,-1.552755,9.803029,-1.434787,-1.074518,1.771483
12966,-0.428896,-1.351367,9.641477,-1.691376,-1.015125,1.683495
12967,-0.692089,-1.668566,9.517710,-1.969756,-0.947320,1.606150
12968,-0.949794,-2.365225,9.270514,-2.202184,-0.887694,1.506044
12969,-1.071022,-3.311258,9.071365,-2.280802,-0.844010,1.396183
12970,-0.872624,-4.218070,9.009056,-2.174754,-0.780898,1.299349
12971,-0.699509,-4.722267,9.142117,-1.917135,-0.692442,1.186194
12972,-0.727897,-4.653589,9.258855,-1.612376,-0.599400,1.102466
12973,-0.865485,-4.137101,9.415871,-1.373074,-0.493563,1.013369
12974,-1.007325,-3.440737,9.502793,-1.220752,-0.375596,0.910906
12975,-0.986001,-2.676635,9.690441,-1.194035,-0.270893,0.776931
12976,-0.916186,-2.128664,9.773119,-1.270672,-0.166996,0.632561
12977,-0.831044,-1.958904,9.573144,-1.422454,-0.050811,0.489223
12978,-0.823952,-2.033199,9.252395,-1.546780,0.077414,0.338027
12979,-0.897643,-2.659943,8.762235,-1.660275,0.188378,0.208180
12980,-0.981788,-3.675766,8.283781,-1.653754,0.303737,0.079918
12981,-1.185793,-4.656260,7.996777,-1.518007,0.396059,-0.024346
12982,-1.367780,-5.260931,7.940415,-1.269619,0.474698,-0.126472
12983,-1.505578,-5.191650,8.049594,-0.993420,0.542796,-0.232540
12984,-1.457708,-4.716224,8.181771,-0.806744,0.610714,-0.340646
12985,-1.294679,-4.220424,8.166251,-0.743402,0.682039,-0.451710
12986,-1.153108,-4.016658,7.943004,-0.764191,0.765475,-0.571937
12987,-1.180660,-4.231729,7.446790,-0.785707,0.848535,-0.681906
12988,-1.343639,-4.068851,7.086075,-0.782160,0.912436,-0.796969
12989,-1.476308,-3.578271,6.887229,-0.807235,0.964560,-0.922636
12990,-1.431399,-3.093246,6.848657,-0.898428,1.004622,-1.058881
12991,-1.389152,-2.747750,6.801846,-1.054359,1.041692,-1.208871
12992,-1.314753,-2.843034,6.505101,-1.251575,1.078170,-1.351778
12993,-1.211266,-3.210690,6.202071,-1.388698,1.119180,-1.504584
12994,-1.087064,-3.904164,5.739746,-1.510144,1.159375,-1.642900
12995,-0.991382,-4.941240,5.184499,-1.535425,1.180980,-1.747610
12996,-0.980747,-5.714935,4.679584,-1.407779,1.191065,-1.860174
12997,-0.985169,-6.433229,4.465532,-1.226702,1.182048,-1.953492
12998,-1.061940,-6.759038,4.285661,-1.019425,1.160671,-2.011414
12999,-1.123684,-6.181262,4.492330,-0.806816,1.124352,-2.109193
13000,-1.184815,-5.159902,4.810597,-0.694591,1.094304,-2.228724
13001,-1.209948,-4.212519,4.883013,-0.716505,1.073701,-2.349957
13002,-0.910737,-3.800682,4.608997,-0.930236,1.047259,-2.447828
13003,-0.523464,-4.104186,4.182129,-1.223958,1.036847,-2.544853
13004,-0.015610,-5.339271,3.495935,-1.594373,0.998804,-2.592734
13005,0.538167,-7.210865,2.768731,-1.790985,0.973392,-2.585170
13006,0.696445,-8.628166,2.553371,-1.667360,0.972860,-2.626967
13007,0.438502,-8.966015,2.737374,-1.276764,0.981180,-2.692312
13008,0.033966,-8.282103,3.012446,-0.834139,0.963270,-2.758949
13009,-0.064683,-6.809942,3.320761,-0.541450,0.947603,-2.824206
13010,0.069820,-5.364260,3.557599,-0.540720,0.950819,-2.885180
13011,0.640031,-4.777156,3.619861,-0.855308,0.958072,-2.949888
13012,1.668361,-5.706751,3.487356,-1.359742,0.968446,-2.949606
13013,2.361707,-7.444929,3.155521,-1.710146,1.009386,-2.928864
13014,2.688064,-8.831671,3.147171,-1.739370,1.059061,-2.971082
13015,2.457114,-9.498029,3.032760,-1.501547,1.106607,-2.988796
13016,2.161550,-8.788290,2.752488,-1.118287,1.103460,-3.040598
13017,2.194377,-7.727213,2.569132,-0.833031,1.068150,-3.109605
13018,2.496976,-7.575047,2.325052,-0.826128,1.006979,-3.088305
13019,3.025279,-8.358427,2.334525,-0.896555,0.928972,-3.077763
13020,3.780409,-10.679760,2.096219,-1.029790,0.837383,-2.975644
13021,4.463464,-13.005510,2.161859,-0.871756,0.776817,-2.837494
13022,4.644527,-12.861725,2.879604,-0.450981,0.716683,-2.822281
13023,4.174806,-10.774094,3.550577,-0.214359,0.597387,-2.747074
13024,3.618622,-7.815937,3.865142,-0.441613,0.455194,-2.650045
13025,3.447373,-5.524716,3.673335,-1.117138,0.349898,-2.600907
13026,3.569809,-4.581567,2.993995,-2.003356,0.276287,-2.621799
13027,3.813783,-5.773240,2.188980,-2.709533,0.257074,-2.672542
13028,4.048575,-8.932716,1.214185,-2.974734,0.238840,-2.719737
13029,4.601400,-12.412821,0.854424,-2.607759,0.234696,-2.740734
13030,5.233454,-15.197552,0.828641,-1.775143,0.230704,-2.716452
13031,5.801456,-15.895131,1.499299,-0.596334,0.219029,-2.698665
13032,5.931214,-14.237955,2.052064,0.407804,0.152027,-2.624149
13033,5.718456,-11.104510,2.617914,1.000328,0.051370,-2.548673
13034,5.601988,-8.037130,3.169737,0.949021,-0.035446,-2.476213
13035,5.644687,-6.146473,3.445518,0.406421,-0.100810,-2.426460
13036,5.868880,-5.698087,3.550272,-0.350389,-0.148487,-2.424982
13037,6.133578,-6.555598,3.402219,-0.985919,-0.159197,-2.448029
13038,6.464534,-8.093255,3.175285,-1.331200,-0.170079,-2.485249
13039,6.876805,-9.220838,3.081033,-1.381554,-0.165301,-2.499515
13040,7.354893,-9.815399,3.105135,-1.261597,-0.137858,-2.479014
13041,7.826412,-9.869525,3.182714,-1.089243,-0.100439,-2.427804
13042,8.032797,-9.526641,3.082740,-0.901272,-0.043867,-2.371768
13043,7.878860,-8.876886,2.809021,-0.793796,0.009961,-2.316368
13044,7.767046,-8.006003,2.566393,-0.800349,0.092142,-2.279442
13045,7.977660,-7.085707,2.203559,-0.959293,0.146764,-2.282966
13046,8.602019,-6.454304,1.817951,-1.212503,0.164505,-2.312697
13047,9.430235,-6.168355,1.974133,-1.432421,0.144618,-2.377010
13048,9.819624,-6.488337,2.223068,-1.563779,0.104368,-2.421383
13049,9.768440,-7.496003,2.190397,-1.516960,0.048547,-2.416963
13050,9.598621,-8.438359,2.157954,-1.270583,-0.027713,-2.363988
13051,9.477364,-8.667868,2.166798,-0.895229,-0.118490,-2.273348
13052,9.416018,-8.067473,2.414657,-0.524014,-0.195613,-2.176411
13053,9.505601,-7.095400,2.622714,-0.281033,-0.257259,-2.091712
13054,9.733402,-6.221182,2.831910,-0.201026,-0.274808,-2.010721
13055,9.949167,-5.602116,2.882013,-0.245704,-0.275813,-1.956316
13056,10.284293,-5.211923,3.019054,-0.353508,-0.244818,-1.926386
13057,10.507518,-5.020062,3.123215,-0.505324,-0.192019,-1.885163
13058,10.619279,-4.963498,3.180929,-0.679386,-0.121877,-1.830862
13059,10.535580,-5.020126,3.049041,-0.834789,-0.051487,-1.769489
13060,10.445099,-5.047923,2.872992,-0.950784,0.005509,-1.707623
13061,10.250903,-5.001041,2.614451,-1.044534,0.055172,-1.647812
13062,10.128411,-4.816926,2.407998,-1.125071,0.085147,-1.590518
13063,10.108211,-4.651388,2.197180,-1.204476,0.103582,-1.549247
13064,10.110071,-4.607641,2.059445,-1.256292,0.119319,-1.525853
13065,10.157770,-4.674549,1.893129,-1.259341,0.124803,-1.500122
13066,10.282896,-4.825533,1.776429,-1.210110,0.124921,-1.459295
13067,10.306125,-4.811303,1.831687,-1.102372,0.118309,-1.421250
13068,10.214735,-4.767044,1.778417,-0.989538,0.124133,-1.369534
13069,10.101581,-4.554866,1.754778,-0.870378,0.110032,-1.298363
13070,10.036105,-4.351608,1.733768,-0.791696,0.087734,-1.224416
13071,10.043781,-4.187394,1.779681,-0.727997,0.070705,-1.140366
13072,10.010853,-4.028404,1.780034,-0.662600,0.060679,-1.064146
13073,9.980508,-3.796150,1.783120,-0.577881,0.052113,-0.994229
13074,9.936972,-3.733053,1.687577,-0.510501,0.044773,-0.923019
13075,10.014466,-3.715649,1.625206,-0.446831,0.034744,-0.843787
13076,10.004691,-3.690134,1.651435,-0.369441,0.035694,-0.777696
13077,9.962408,-3.550954,1.695975,-0.305737,0.034089,-0.712364
13078,9.878159,-3.195427,1.794556,-0.267977,0.045200,-0.656640
13079,9.817320,-2.986202,1.769831,-0.273616,0.053214,-0.608400
13080,9.756824,-2.834791,1.728300,-0.310148,0.058732,-0.549546
13081,9.738489,-2.830378,1.635732,-0.348632,0.068086,-0.500501
13082,9.710248,-2.824585,1.623554,-0.360938,0.079054,-0.462146
13083,9.635075,-2.950195,1.466910,-0.355834,0.085652,-0.421686
13084,9.584744,-3.094164,1.328749,-0.309999,0.085119,-0.394956
13085,9.555574,-3.123689,1.231360,-0.237311,0.087641,-0.362379
13086,9.516847,-3.150010,1.216781,-0.157679,0.093346,-0.341639
13087,9.518681,-3.060468,1.217863,-0.059662,0.088662,-0.323826
13088,9.554234,-2.910547,1.162831,0.017577,0.089509,-0.310610
13089,9.554175,-2.633499,1.261856,0.062338,0.089817,-0.304324
13090,9.531736,-2.402110,1.190482,0.057670,0.089517,-0.295748
13091,9.567058,-2.270204,1.182994,0.022633,0.091966,-0.285211
13092,9.647584,-2.234760,1.163431,-0.014004,0.092888,-0.275085
13093,9.646209,-2.256898,1.076875,-0.037496,0.087371,-0.270459
13094,9.663345,-2.325659,1.023870,-0.047180,0.083306,-0.250813
13095,9.626592,-2.404250,0.971226,-0.039742,0.072159,-0.229652
13096,9.577223,-2.391441,0.978150,-0.007038,0.059831,-0.209113
13097,9.556650,-2.357477,0.964346,0.024546,0.039151,-0.183511
13098,9.562549,-2.275940,1.017164,0.063444,0.022176,-0.163239
13099,9.583213,-2.224572,1.057698,0.084379,0.008072,-0.146686
13100,9.600309,-2.085075,1.077072,0.099809,-0.006835,-0.137546
13101,9.626159,-2.078507,1.074030,0.103207,-0.014008,-0.117079
13102,9.590240,-2.030931,1.089740,0.099491,-0.024492,-0.111433
13103,9.561797,-2.035435,1.086239,0.098941,-0.027954,-0.091897
13104,9.517769,-2.159106,1.042279,0.097325,-0.039808,-0.067308
13105,9.484667,-2.279539,1.050672,0.113332,-0.052569,-0.034588
13106,9.487477,-2.284532,1.071271,0.132799,-0.057109,-0.001329
13107,9.483831,-2.322564,1.107139,0.152860,-0.077540,0.034243
13108,9.531608,-2.200608,1.167988,0.174755,-0.088322,0.060950
13109,9.627647,-2.047467,1.157577,0.183495,-0.089553,0.063981
13110,9.697007,-1.851789,1.214945,0.174394,-0.082803,0.048137
13111,9.774395,-1.778059,1.229801,0.147004,-0.064145,0.016927
13112,9.775069,-1.776472,1.226727,0.102691,-0.044165,-0.018010
13113,9.743248,-1.852737,1.174774,0.072008,-0.022480,-0.052845
13114,9.665643,-1.912842,1.133010,0.059013,-0.001794,-0.079705
13115,9.578701,-1.912598,1.087274,0.060405,0.006684,-0.090196
13116,9.530278,-1.928004,1.136631,0.066502,0.000668,-0.077369
13117,9.562395,-1.905368,1.139985,0.058611,-0.009116,-0.058206
13118,9.628774,-1.884974,1.191233,0.055857,-0.014081,-0.028215
13119,9.629438,-1.882330,1.190049,0.057417,-0.032664,-0.012692
13120,9.685799,-1.879881,1.209187,0.077262,-0.040963,0.002127
13121,9.721164,-1.951921,1.231029,0.111457,-0.050456,0.000161
13122,9.739183,-1.913094,1.265049,0.153352,-0.051359,-0.007770
13123,9.743776,-1.872126,1.223625,0.199568,-0.053938,-0.021202
13124,9.723701,-1.794382,1.273725,0.229747,-0.049998,-0.029259
13125,9.699639,-1.700557,1.277986,0.239955,-0.044855,-0.035893
13126,9.692895,-1.569024,1.318379,0.235689,-0.040586,-0.039680
13127,9.703514,-1.473913,1.371121,0.208682,-0.033804,-0.035085
13128,9.654116,-1.439942,1.332842,0.165858,-0.027235,-0.034259
13129,9.649337,-1.464586,1.349440,0.121092,-0.022166,-0.028342
13130,9.675392,-1.548233,1.345115,0.086478,-0.017681,-0.025846
13131,9.722490,-1.631412,1.313621,0.075717,-0.013352,-0.033929
13132,9.707843,-1.672230,1.301591,0.060281,-0.000309,-0.027175
13133,9.731740,-1.748749,1.275792,0.066822,0.002743,-0.037033
13134,9.778572,-1.757297,1.269417,0.072918,0.011720,-0.044492
13135,9.735414,-1.819301,1.281080,0.087774,0.017613,-0.047884
13136,9.765028,-1.864215,1.241038,0.113684,0.023148,-0.050634
13137,9.737052,-1.880516,1.267163,0.147175,0.027196,-0.049132
13138,9.745157,-1.851331,1.279059,0.173619,0.029829,-0.048394
13139,9.691309,-1.779688,1.309762,0.189913,0.031123,-0.043176
13140,9.657957,-1.633538,1.334699,0.189298,0.021497,-0.050497
13141,9.696557,-1.588620,1.347676,0.147572,0.025840,-0.041649
13142,9.660141,-1.577518,1.279755,0.114966,0.013760,-0.049977
13143,9.655999,-1.674841,1.278165,0.093339,0.011634,-0.047690
13144,9.687956,-1.727499,1.260858,0.084328,0.010696,-0.044387
13145,9.736935,-1.742362,1.278763,0.089114,0.011289,-0.041311
13146,9.766079,-1.714293,1.260019,0.088274,0.012854,-0.046548
13147,9.774028,-1.686633,1.269031,0.067223,0.024218,-0.039112
13148,9.769106,-1.710850,1.289840,0.055726,0.022183,-0.048328
13149,9.739016,-1.721508,1.291102,0.042665,0.024978,-0.045949
13150,9.743568,-1.755054,1.232176,0.032321,0.032845,-0.038451
13151,9.704901,-1.715429,1.249322,0.025746,0.026731,-0.034497
13152,9.714559,-1.696467,1.281322,0.009244,0.024529,-0.026397
13153,9.676638,-1.732742,1.276193,-0.008174,0.029084,-0.018541
