// Start Time: Unknown
// Update Rate: 100.0Hz
// Filter Profile: human (46.1)
// Firmware Version: 4.3.5
PacketCounter,Acc_X,Acc_Y,Acc_Z,Gyr_X,Gyr_Y,Gyr_Z
21278,9.643161,-0.733638,1.868711,0.012544,0.028692,-0.016023
21279,9.629182,-0.785100,1.798311,-0.000265,0.027748,-0.013197
21280,9.682777,-0.788847,1.794763,0.009096,0.027755,-0.014281
21281,9.658635,-0.811711,1.803377,0.016090,0.029062,-0.012776
21282,9.676851,-0.771368,1.839900,0.017514,0.026590,-0.014769
21283,9.632790,-0.793082,1.769790,0.016429,0.024352,-0.015621
21284,9.642923,-0.761155,1.838276,0.019617,0.023171,-0.020239
21285,9.642674,-0.758839,1.840537,0.020229,0.020585,-0.020196
21286,9.632867,-0.725642,1.830440,0.033334,0.023669,-0.020106
21287,9.629624,-0.746026,1.825790,0.033881,0.021660,-0.025024
21288,9.621198,-0.751951,1.860594,0.034164,0.023791,-0.022127
21289,9.626189,-0.763502,1.823457,0.039596,0.018037,-0.022280
21290,9.670419,-0.735580,1.806927,0.029760,0.019463,-0.011318
21291,9.708693,-0.754490,1.776206,0.035398,0.016411,-0.013544
21292,9.698907,-0.721824,1.765697,0.045050,0.018564,-0.011714
21293,9.686796,-0.651686,1.801705,0.045940,0.018109,-0.008775
21294,9.660554,-0.636936,1.855762,0.034532,0.014670,-0.007975
21295,9.632304,-0.643601,1.811402,0.045004,0.016939,-0.008173
21296,9.634323,-0.518119,1.828645,0.062548,0.013683,-0.012575
21297,9.634770,-0.454703,1.883564,0.054684,0.012822,-0.017016
21298,9.665555,-0.420873,1.937976,0.017711,0.010698,-0.017719
21299,9.699733,-0.423861,1.854256,-0.015130,0.006357,-0.015141
21300,9.727038,-0.475101,1.847942,-0.034274,0.013793,-0.023640
21301,9.713838,-0.527229,1.776046,-0.060844,0.012302,-0.021020
21302,9.684191,-0.597602,1.768652,-0.088822,0.013292,-0.016399
21303,9.668098,-0.674128,1.689408,-0.090351,0.014718,-0.015828
21304,9.634677,-0.667535,1.683604,-0.063767,0.016225,-0.018430
21305,9.615644,-0.646650,1.795767,-0.051391,0.012378,-0.022013
21306,9.567366,-0.593846,1.816669,-0.058553,0.010576,-0.029925
21307,9.600614,-0.598340,1.824168,-0.058403,0.011647,-0.028466
21308,9.571573,-0.606250,1.870172,-0.058413,0.014462,-0.041881
21309,9.596293,-0.679001,1.856282,-0.059950,0.007397,-0.043548
21310,9.559982,-0.753562,1.788880,-0.059187,0.005879,-0.042050
21311,9.524085,-0.767059,1.775151,-0.034607,0.005623,-0.048463
21312,9.581267,-0.744438,1.776573,-0.009244,0.003255,-0.048448
21313,9.545481,-0.756924,1.762750,-0.004420,0.000098,-0.048647
21314,9.601270,-0.693939,1.719130,0.004690,-0.001977,-0.052593
21315,9.629494,-0.680906,1.765393,0.013623,0.001132,-0.047285
21316,9.593840,-0.632502,1.805546,0.001923,0.004613,-0.052095
21317,9.630078,-0.671100,1.765963,-0.007762,0.000798,-0.050405
21318,9.653940,-0.641981,1.760238,0.003133,-0.002793,-0.043554
21319,9.671192,-0.661738,1.831178,-0.003217,-0.006713,-0.045029
21320,9.667273,-0.641053,1.778561,0.000914,-0.008925,-0.041757
21321,9.710854,-0.613170,1.850631,0.000921,-0.008921,-0.041751
21322,9.705802,-0.655682,1.835442,-0.010946,-0.008759,-0.039548
21323,9.696366,-0.621484,1.822150,-0.017659,-0.007976,-0.038169
21324,9.703857,-0.672194,1.826581,-0.030143,-0.005229,-0.035998
21325,9.670880,-0.724130,1.765393,-0.031536,-0.003358,-0.029052
21326,9.665728,-0.768305,1.750566,-0.021184,-0.002700,-0.025753
21327,9.686721,-0.764930,1.737249,-0.014504,-0.005726,-0.018680
21328,9.671668,-0.779000,1.710009,-0.000696,-0.004100,-0.017103
21329,9.653710,-0.695180,1.783464,0.026589,-0.004618,-0.013336
21330,9.652844,-0.696159,1.874354,0.026428,-0.007927,-0.006330
21331,9.731593,-0.672278,1.770814,0.028946,-0.008141,-0.007461
21332,9.677601,-0.606306,1.830018,0.037525,-0.008790,-0.001554
21333,9.695725,-0.566170,1.863402,0.034313,-0.004797,-0.010340
21334,9.677806,-0.543302,1.882971,0.028379,-0.006143,-0.002541
21335,9.629344,-0.552293,1.848991,0.017082,-0.007992,-0.005250
21336,9.608798,-0.553241,1.860944,0.007516,-0.010777,-0.002123
21337,9.634298,-0.628502,1.845268,0.002361,-0.011406,-0.001298
21338,9.609298,-0.613204,1.805268,0.013621,-0.008961,-0.003532
21339,9.611202,-0.652048,1.849646,0.033870,-0.001736,-0.003984
21340,9.634612,-0.626188,1.844417,0.041377,0.006100,-0.005154
21341,9.647948,-0.569040,1.827722,0.055901,0.017529,-0.013259
21342,9.727700,-0.523215,1.826010,0.064443,0.036099,-0.011344
21343,9.819676,-0.484614,1.845800,0.061149,0.057049,-0.015684
21344,9.761716,-0.500571,1.851884,0.065174,0.083133,-0.019127
21345,9.815643,-0.480169,1.953737,0.078774,0.101889,-0.024376
21346,9.894022,-0.474292,2.097003,0.063176,0.126064,-0.020181
21347,9.945375,-0.476234,2.104750,0.023108,0.142958,-0.010434
21348,10.008681,-0.487005,2.134461,-0.029466,0.173881,-0.009761
21349,10.079583,-0.490238,2.135178,-0.072097,0.209185,-0.004316
21350,10.126039,-0.436921,2.297628,-0.102415,0.257864,-0.009193
21351,10.157031,-0.439708,2.482821,-0.158854,0.299198,-0.015769
21352,10.141443,-0.635794,2.475853,-0.212727,0.319518,-0.015923
21353,10.070400,-0.787875,2.430395,-0.165943,0.339804,-0.015850
21354,9.982673,-0.872548,2.511635,-0.061105,0.353224,-0.015083
21355,9.906390,-0.840350,2.630219,-0.008726,0.360603,0.001835
21356,9.843414,-0.794132,2.776452,-0.009849,0.368825,0.031240
21357,9.785614,-0.848694,2.822133,-0.033080,0.369072,0.058364
21358,9.741211,-0.851002,2.850722,-0.050336,0.386113,0.085965
21359,9.740632,-0.870170,2.909151,-0.074884,0.414082,0.115789
21360,9.731302,-0.963530,2.948191,-0.144369,0.450055,0.153414
21361,9.646015,-1.063131,2.854101,-0.228403,0.482372,0.188382
21362,9.675508,-1.230704,2.760048,-0.275358,0.509012,0.229124
21363,9.655241,-1.435208,2.623498,-0.315378,0.534431,0.273847
21364,9.662304,-1.629829,2.596252,-0.281452,0.572854,0.313370
21365,9.644954,-1.745209,2.646364,-0.172914,0.603493,0.357240
21366,9.610464,-1.728546,2.849017,-0.066999,0.624763,0.387251
21367,9.651597,-1.693367,3.050358,-0.002101,0.648011,0.410972
21368,9.680667,-1.515604,3.142585,0.053140,0.672475,0.427957
21369,9.687558,-1.351997,3.361013,0.078956,0.715882,0.455255
21370,9.591225,-1.305635,3.645299,0.009070,0.747295,0.496382
21371,9.602355,-1.345021,3.814263,-0.156070,0.746824,0.536745
21372,9.670287,-1.465716,3.637776,-0.301793,0.755901,0.585033
21373,9.618828,-1.661080,3.547656,-0.372702,0.782123,0.622008
21374,9.589641,-1.899571,3.630775,-0.397688,0.801589,0.665580
21375,9.473028,-2.102410,3.709918,-0.366093,0.829715,0.689740
21376,9.378938,-2.255106,3.857039,-0.320932,0.866551,0.720373
21377,9.248951,-2.473821,4.190370,-0.290094,0.908141,0.767614
21378,9.143107,-2.740000,4.350595,-0.249052,0.959971,0.816959
21379,9.129495,-2.914802,4.572711,-0.198287,1.003348,0.880381
21380,9.070822,-3.051574,4.634587,-0.158982,1.045132,0.948448
21381,9.027371,-3.131502,4.466630,-0.110617,1.059324,1.023966
21382,9.114824,-3.184657,4.299372,-0.073502,1.066588,1.103613
21383,9.351336,-3.347081,4.126917,0.003876,1.056477,1.170082
21384,9.676972,-3.388192,4.135083,0.126067,1.077057,1.207298
21385,9.807048,-3.391337,4.344175,0.253051,1.111367,1.215217
21386,9.768732,-3.233824,4.652268,0.343251,1.146758,1.196636
21387,9.593885,-3.047641,4.842905,0.356659,1.171451,1.181300
21388,9.372040,-3.015076,4.916388,0.323022,1.193524,1.171166
21389,9.202292,-3.013312,4.905195,0.287091,1.196194,1.180666
21390,9.051936,-3.069074,4.889115,0.270340,1.209897,1.203639
21391,8.938336,-3.125383,4.919476,0.298369,1.226664,1.226287
21392,8.917408,-3.093985,5.082448,0.341022,1.257575,1.239236
21393,8.896647,-3.082615,5.159647,0.323240,1.292185,1.261622
21394,8.858224,-3.099835,5.176141,0.276644,1.304227,1.274506
21395,8.841089,-3.208653,5.259776,0.223051,1.321436,1.290122
21396,8.747995,-3.337479,5.237081,0.211471,1.339576,1.279419
21397,8.609145,-3.360275,5.263202,0.263460,1.363857,1.261164
21398,8.448774,-3.349075,5.435605,0.282666,1.374430,1.245512
21399,8.195207,-3.353196,5.519505,0.251194,1.368117,1.240262
21400,7.958679,-3.344385,5.494456,0.202203,1.368348,1.238017
21401,7.791251,-3.465154,5.462052,0.160631,1.368832,1.242242
21402,7.618731,-3.588754,5.371293,0.136280,1.361378,1.254299
21403,7.469009,-3.654911,5.327435,0.170357,1.351405,1.246905
21404,7.304675,-3.721846,5.436447,0.228106,1.316603,1.246643
21405,7.178171,-3.660268,5.489701,0.274189,1.292997,1.220102
21406,7.051317,-3.612727,5.584874,0.249147,1.280475,1.192663
21407,6.805846,-3.684382,5.665532,0.199242,1.267027,1.180970
21408,6.752109,-3.727434,5.775916,0.181739,1.241637,1.164713
21409,6.713682,-3.795849,5.930478,0.192892,1.238934,1.148493
21410,6.493000,-3.853764,6.031646,0.191246,1.249184,1.126304
21411,6.205860,-3.814312,6.046053,0.173083,1.257884,1.100546
21412,6.068264,-3.790555,6.155545,0.148841,1.223052,1.092360
21413,5.936323,-3.834053,6.154468,0.083268,1.192659,1.078525
21414,5.759016,-3.990725,6.120534,0.027057,1.168016,1.071619
21415,5.604765,-4.139877,6.170057,0.028395,1.151505,1.045037
21416,5.491926,-4.241633,6.271800,0.065170,1.136429,1.015861
21417,5.367561,-4.247023,6.377022,0.108332,1.127361,0.972453
21418,5.206741,-4.311977,6.526557,0.120986,1.102878,0.933873
21419,5.123074,-4.367164,6.535510,0.111449,1.041596,0.914860
21420,5.036566,-4.393663,6.494609,0.117630,1.008872,0.887225
21421,5.011596,-4.448469,6.516089,0.113197,0.997568,0.869225
21422,4.837930,-4.357772,6.562332,0.133599,0.969330,0.875387
21423,4.681157,-4.346802,6.746045,0.114542,0.941167,0.891811
21424,4.494184,-4.271670,6.825778,0.028992,0.915380,0.908006
21425,4.322911,-4.335372,6.858131,-0.032884,0.916698,0.929458
21426,4.157330,-4.494847,6.995521,-0.060712,0.902710,0.954479
21427,4.017136,-4.661062,7.111271,-0.107394,0.874121,0.975784
21428,3.836748,-4.935149,7.224495,-0.154730,0.823174,0.990781
21429,3.771000,-5.149346,7.124847,-0.150244,0.770124,0.982879
21430,3.825948,-5.225892,6.901024,-0.083312,0.745674,0.977564
21431,3.814214,-5.305926,6.702416,-0.023689,0.762316,0.961447
21432,3.689503,-5.522911,6.688122,0.031397,0.756711,0.958992
21433,3.392170,-5.699337,6.827907,0.148332,0.700082,0.931871
21434,3.316742,-5.740510,6.835124,0.315973,0.537552,0.920048
21435,3.523523,-5.417695,7.217046,0.493948,0.432272,0.911074
21436,3.530632,-4.914342,7.975949,0.517274,0.478605,0.895129
21437,3.262697,-4.599111,8.349593,0.286286,0.508961,0.873525
21438,3.157001,-4.647935,7.976209,-0.014719,0.522352,0.866010
21439,3.051711,-4.986468,7.717107,-0.215516,0.600082,0.892582
21440,2.869610,-5.403739,7.480310,-0.192834,0.633698,0.924515
21441,2.634255,-5.464487,7.259127,0.008929,0.641745,0.926159
21442,2.660286,-5.296529,7.641117,0.222319,0.668422,0.909335
21443,2.736147,-4.916099,7.822827,0.283188,0.658628,0.878711
21444,3.030451,-4.501919,7.793900,0.195960,0.723101,0.862253
21445,2.989320,-4.302074,7.736808,0.014570,0.815631,0.867711
21446,2.665152,-4.376468,7.782064,-0.207412,0.871903,0.872631
21447,2.168268,-4.650646,7.713787,-0.366106,0.856932,0.847608
21448,2.029416,-5.015794,7.668294,-0.428471,0.799647,0.814741
21449,2.064029,-5.200698,7.539773,-0.383090,0.755307,0.803981
21450,1.960806,-5.296476,7.428478,-0.282784,0.744268,0.785035
21451,1.734128,-5.347835,7.669338,-0.183186,0.733495,0.777827
21452,1.537691,-5.336441,7.576419,-0.148020,0.678716,0.745241
21453,1.550648,-5.306211,7.326263,-0.128504,0.646453,0.706435
21454,1.495683,-5.221965,7.034603,-0.073972,0.660078,0.659234
21455,1.309460,-5.196327,7.408517,0.010081,0.659891,0.620471
21456,1.125593,-5.081576,7.583755,0.019033,0.600128,0.582425
21457,1.108604,-5.018224,7.268807,-0.085020,0.544020,0.537169
21458,1.148643,-5.130395,7.299962,-0.103435,0.537452,0.521513
21459,0.831536,-5.205171,7.338269,-0.037079,0.511948,0.502665
21460,0.732877,-5.084107,7.531149,0.023090,0.453373,0.466042
21461,0.818409,-4.976433,7.449213,-0.060940,0.392303,0.435287
21462,0.735574,-5.080953,7.237458,-0.154580,0.386136,0.403750
21463,0.370466,-5.344325,7.330006,-0.140291,0.359774,0.365306
21464,0.297557,-5.407489,7.547204,-0.069635,0.283060,0.324070
21465,0.334537,-5.457430,7.400558,-0.102337,0.216014,0.289538
21466,0.132614,-5.594855,7.348629,-0.144299,0.154180,0.266030
21467,0.036564,-5.691944,7.422381,-0.101146,0.057048,0.241862
21468,0.232535,-5.719009,7.300660,-0.077803,-0.019076,0.225936
21469,0.164275,-5.698043,7.449050,-0.013289,-0.053211,0.219196
21470,0.137453,-5.768024,7.547079,0.008550,-0.101242,0.208466
21471,0.156783,-5.788170,7.464924,0.008754,-0.113662,0.192980
21472,0.134027,-5.830758,7.406445,0.041348,-0.126646,0.178178
21473,0.095471,-5.808405,7.511579,0.111023,-0.132374,0.162906
21474,0.147999,-5.657787,7.525453,0.134190,-0.153297,0.142274
21475,0.233435,-5.555445,7.523736,0.120031,-0.144107,0.143357
21476,0.228089,-5.544653,7.620365,0.096758,-0.143697,0.151342
21477,0.228080,-5.592838,7.513976,0.041394,-0.155316,0.152312
21478,0.382888,-5.740887,7.291474,0.043289,-0.173911,0.154174
21479,0.227969,-5.824150,7.370350,0.112252,-0.172123,0.141502
21480,0.154351,-5.819437,7.502375,0.155639,-0.212305,0.107725
21481,0.309010,-5.855348,7.524921,0.186823,-0.276080,0.081814
21482,0.462213,-5.873611,7.449829,0.242413,-0.320815,0.052925
21483,0.678918,-5.760288,7.481408,0.323770,-0.338999,0.015976
21484,0.843668,-5.577124,7.672962,0.418708,-0.326949,-0.030464
21485,1.031477,-5.299179,7.737977,0.447576,-0.332058,-0.074146
21486,1.246973,-5.176928,7.700682,0.494729,-0.327392,-0.127794
21487,1.550587,-4.922950,7.785767,0.544869,-0.282051,-0.184730
21488,1.811890,-4.657093,7.808316,0.578231,-0.188436,-0.240704
21489,1.905465,-4.198426,7.794673,0.596430,-0.059379,-0.302918
21490,1.914884,-3.828827,7.924586,0.547938,0.059199,-0.378422
21491,1.920848,-3.546416,8.010873,0.408720,0.184597,-0.462514
21492,1.820905,-3.505959,8.263221,0.234430,0.300370,-0.553065
21493,1.603706,-3.686179,8.422477,0.033582,0.392153,-0.639763
21494,1.406558,-4.193429,8.542526,-0.178504,0.451132,-0.726414
21495,1.129359,-4.832092,8.375015,-0.252554,0.488692,-0.797217
21496,0.863652,-5.340981,8.256856,-0.201894,0.518543,-0.857489
21497,0.575768,-5.761987,8.286108,-0.111810,0.524262,-0.913165
21498,0.268564,-6.088728,8.405196,-0.026736,0.509960,-0.989537
21499,0.166299,-6.375208,8.535381,0.049991,0.491597,-1.051507
21500,0.198296,-6.478503,8.651870,0.197793,0.438724,-1.084861
21501,0.325727,-6.382933,8.636056,0.353476,0.410304,-1.076096
21502,0.514626,-6.129541,8.520197,0.493685,0.391567,-1.042306
21503,0.764135,-5.788478,8.485586,0.617666,0.386635,-0.968602
21504,0.889457,-5.545273,8.462863,0.652389,0.453914,-0.932503
21505,0.694477,-5.398269,8.773200,0.659566,0.551132,-0.919710
21506,0.380025,-5.380090,9.348838,0.626186,0.565797,-0.927416
21507,0.278909,-5.357603,9.547075,0.441052,0.490486,-0.928575
21508,0.472585,-5.474931,9.232970,0.241251,0.430550,-0.875518
21509,0.567090,-5.889764,8.847917,0.143502,0.428168,-0.833403
21510,0.609412,-6.220973,8.667420,0.285800,0.398822,-0.742122
21511,0.531394,-6.320863,8.210906,0.547809,0.363661,-0.720214
21512,0.503911,-6.012490,8.047405,0.861728,0.325424,-0.716716
21513,0.707380,-5.673270,8.308582,1.127694,0.313286,-0.706415
21514,0.963650,-5.262571,8.806770,1.267839,0.273537,-0.656678
21515,0.839386,-4.894480,9.048307,1.279038,0.232538,-0.617007
21516,0.357319,-4.624231,9.069373,1.233277,0.178471,-0.609637
21517,-0.117020,-4.666275,9.147956,1.203231,0.055131,-0.594028
21518,-0.391071,-4.704375,9.031246,1.185504,-0.115456,-0.590235
21519,-0.086969,-4.812580,8.709453,1.134520,-0.226189,-0.631052
21520,0.455019,-4.676071,8.083205,1.168597,-0.264652,-0.693776
21521,1.287576,-4.341969,7.718877,1.300875,-0.215517,-0.740331
21522,1.999349,-3.865017,7.805018,1.449952,-0.050598,-0.762298
21523,2.296189,-3.256859,8.283016,1.524476,0.154345,-0.739783
21524,1.965272,-2.642702,8.813453,1.462021,0.317612,-0.724488
21525,1.449068,-2.112121,9.298649,1.198780,0.369101,-0.730047
21526,1.245254,-1.949153,9.565811,0.750150,0.387222,-0.746869
21527,1.085447,-1.911287,9.391003,0.305421,0.372680,-0.759825
21528,1.168747,-2.150291,9.246614,0.045213,0.353935,-0.761925
21529,1.238775,-2.444525,9.271106,-0.108717,0.324238,-0.751996
21530,1.253314,-2.703573,9.276916,-0.257474,0.272238,-0.748844
21531,1.290113,-3.069809,9.236757,-0.386325,0.205250,-0.739196
21532,1.439087,-3.463197,9.045980,-0.480158,0.177332,-0.730239
21533,1.646229,-3.646759,8.712626,-0.440081,0.220895,-0.728408
21534,1.597258,-3.798659,8.724384,-0.279965,0.280236,-0.718916
21535,1.441731,-3.696657,8.738877,-0.066204,0.294088,-0.724863
21536,1.340545,-3.440197,8.911612,0.095979,0.258430,-0.713973
21537,1.445592,-3.182394,9.072698,0.122647,0.219945,-0.685767
21538,1.491211,-3.051484,9.181086,0.108857,0.193880,-0.663741
21539,1.603019,-2.932371,9.280666,0.035607,0.207994,-0.654439
21540,1.651824,-2.780127,9.436249,-0.047357,0.233642,-0.664726
21541,1.599028,-2.767964,9.632181,-0.063018,0.236216,-0.671512
21542,1.590744,-2.540103,9.731040,-0.133166,0.283469,-0.682819
21543,1.506086,-2.338159,9.694426,-0.299485,0.367282,-0.697272
21544,1.331872,-2.271396,9.646008,-0.446792,0.412978,-0.701615
21545,1.199446,-2.330296,9.598798,-0.505097,0.393535,-0.724487
21546,1.447270,-2.370135,9.463353,-0.513816,0.366821,-0.756058
21547,1.699859,-2.398409,9.370694,-0.547874,0.415445,-0.773064
21548,1.559773,-2.552781,9.280571,-0.615381,0.475236,-0.758949
21549,1.269871,-2.817755,9.317616,-0.699189,0.441163,-0.739099
21550,1.196048,-3.156402,9.382745,-0.809789,0.366961,-0.733936
21551,1.528775,-3.555111,9.202397,-0.927841,0.359983,-0.772777
21552,1.807903,-3.853522,8.893871,-0.820523,0.458276,-0.813469
21553,1.682460,-3.741053,9.019784,-0.425121,0.591265,-0.829712
21554,1.358329,-3.168304,9.175286,-0.204860,0.657448,-0.873293
21555,1.065560,-2.810361,9.162706,-0.274433,0.643167,-0.892658
21556,0.989692,-2.953298,9.275416,-0.537835,0.555901,-0.867638
21557,1.095142,-3.508493,9.168693,-0.788085,0.494386,-0.856149
21558,1.408020,-3.890092,8.864991,-0.844328,0.534331,-0.851839
21559,1.544716,-4.051415,8.641784,-0.623855,0.642412,-0.863663
21560,1.508802,-3.796460,8.827286,-0.339496,0.769952,-0.885458
21561,1.288951,-3.291537,9.296060,-0.185413,0.868997,-0.903804
21562,1.034501,-2.870333,9.504869,-0.292040,0.912316,-0.932581
21563,0.887451,-2.656986,9.601014,-0.583009,0.884952,-0.958494
21564,0.912387,-2.780134,9.313673,-0.877657,0.810901,-0.989599
21565,1.124397,-3.068864,8.867970,-1.081366,0.771449,-1.001759
21566,1.193696,-3.630851,8.698888,-1.172010,0.779135,-0.985606
21567,1.304675,-4.199241,8.633583,-1.155045,0.797602,-0.989225
21568,1.176170,-4.540030,8.478681,-0.999455,0.829907,-0.988157
21569,0.988395,-4.647675,8.340869,-0.709646,0.871644,-0.991364
21570,0.906072,-4.494853,8.692495,-0.460043,0.891543,-1.014478
21571,0.852906,-4.183582,8.737294,-0.465137,0.885579,-1.044036
21572,0.893470,-4.003271,8.512864,-0.531167,0.879418,-1.086515
21573,0.879422,-3.917004,8.455930,-0.555342,0.913158,-1.095316
21574,0.818063,-3.928508,8.480578,-0.575315,0.916594,-1.096786
21575,0.846491,-3.939850,8.485074,-0.676871,0.898253,-1.113310
21576,0.849386,-4.038316,8.410848,-0.801364,0.893137,-1.127059
21577,0.755439,-4.265130,8.457893,-0.882287,0.903005,-1.118699
21578,0.611483,-4.513994,8.402702,-0.943890,0.879234,-1.104804
21579,0.517418,-4.625534,8.208358,-0.964925,0.849267,-1.106453
21580,0.391402,-4.797314,8.202055,-0.946454,0.842214,-1.093309
21581,0.278031,-4.957838,8.223252,-0.920104,0.801179,-1.066193
21582,0.214608,-5.166585,8.073983,-0.923863,0.774023,-1.022135
21583,0.229383,-5.319129,7.766004,-0.938847,0.738513,-0.959159
21584,0.455584,-5.579650,7.430420,-0.872236,0.691619,-0.908851
21585,0.769328,-5.793921,7.279655,-0.682035,0.663455,-0.877856
21586,0.909802,-6.109426,7.265156,-0.443352,0.661841,-0.865974
21587,0.972483,-6.203564,7.342976,-0.177145,0.684017,-0.896476
21588,0.880990,-5.886983,7.606961,-0.003404,0.739949,-0.952783
21589,0.680388,-5.458027,7.763093,-0.001688,0.764057,-1.003648
21590,0.418907,-5.123731,7.932092,-0.195744,0.721713,-1.017761
21591,0.427562,-4.992110,7.821985,-0.532531,0.625885,-1.023316
21592,0.711762,-5.087860,7.429324,-0.809188,0.580800,-1.012861
21593,0.848802,-5.365732,7.241461,-0.938526,0.598211,-0.988920
21594,0.727399,-5.775235,7.234467,-1.040342,0.598147,-0.966891
21595,0.683598,-6.095472,7.114517,-1.183123,0.575139,-0.955107
21596,0.522736,-6.551344,6.981459,-1.244062,0.547811,-0.927661
21597,0.167403,-7.029374,6.940556,-1.136975,0.476752,-0.898654
21598,-0.175785,-7.612813,7.127672,-0.917538,0.378791,-0.884605
21599,-0.402919,-8.080865,7.132586,-0.728293,0.260810,-0.834290
21600,-0.353444,-8.226283,6.789209,-0.426528,0.159742,-0.788378
21601,-0.006012,-8.079423,6.505904,0.078904,0.130603,-0.736105
21602,0.297789,-7.532215,6.869587,0.600933,0.132879,-0.686317
21603,0.560614,-7.115468,7.267359,0.789311,0.067340,-0.631396
21604,0.838034,-7.061599,7.085221,0.713024,-0.037908,-0.585041
21605,1.067739,-7.154830,6.480784,0.803857,-0.079259,-0.568899
21606,1.129765,-6.933681,6.570579,1.081124,-0.063050,-0.561515
21607,0.967260,-6.299309,6.886462,1.177510,-0.067413,-0.554130
21608,0.834529,-5.663116,6.929642,1.045902,-0.108969,-0.543461
21609,0.866246,-5.125798,7.113671,0.847991,-0.127746,-0.508828
21610,0.805711,-4.898775,7.556005,0.605642,-0.127242,-0.451766
21611,0.572688,-4.904460,8.089920,0.218158,-0.174475,-0.408423
21612,0.444606,-5.332000,8.218539,-0.269515,-0.252408,-0.359290
21613,0.468699,-6.131025,7.973369,-0.559064,-0.308204,-0.332045
21614,0.624100,-6.895286,7.574030,-0.577950,-0.299879,-0.301862
21615,0.766803,-7.443796,7.122473,-0.354126,-0.265718,-0.267036
21616,1.027182,-7.596531,7.046079,0.032574,-0.208851,-0.226739
21617,1.158417,-7.192730,7.499740,0.311119,-0.156012,-0.176279
21618,1.010151,-6.838520,7.898506,0.318118,-0.155479,-0.121421
21619,0.937861,-6.647457,8.028000,0.186590,-0.207633,-0.072685
21620,1.058228,-6.601556,8.050767,0.103115,-0.231171,-0.017780
21621,1.121940,-6.589423,8.212519,0.052963,-0.219589,0.025572
21622,1.023113,-6.608420,8.210450,-0.036379,-0.197729,0.067487
21623,1.028184,-6.773921,8.113277,-0.106772,-0.193411,0.117543
21624,1.066218,-6.884691,7.989238,-0.101828,-0.190329,0.179100
21625,1.131715,-6.838483,8.065803,-0.058318,-0.180241,0.237757
21626,1.105108,-6.736995,8.135019,-0.043133,-0.173540,0.297818
21627,1.137546,-6.660270,8.243413,-0.043423,-0.176391,0.351843
21628,1.192903,-6.614896,8.321643,-0.062566,-0.181883,0.411733
21629,1.175237,-6.637250,8.282415,-0.077984,-0.185809,0.466732
21630,1.084838,-6.589382,8.153200,-0.069632,-0.191508,0.520352
21631,1.167677,-6.432719,8.187730,-0.023622,-0.189401,0.574020
21632,1.295014,-6.263737,8.251088,-0.002494,-0.182041,0.622424
21633,1.329673,-6.085759,8.266638,-0.040391,-0.168571,0.658800
21634,1.341964,-6.044478,8.235289,-0.103931,-0.158201,0.693101
21635,1.278871,-6.055653,8.190824,-0.144021,-0.148222,0.715100
21636,1.293665,-6.047792,8.107803,-0.158147,-0.125041,0.739095
21637,1.245507,-6.055843,8.111063,-0.182546,-0.097707,0.763972
21638,1.177465,-6.062116,8.095069,-0.232116,-0.077420,0.789274
21639,1.119600,-6.123541,7.981592,-0.269678,-0.072940,0.812188
21640,1.092338,-6.195988,7.901125,-0.280120,-0.076936,0.833307
21641,0.972951,-6.293479,7.898554,-0.260935,-0.083879,0.849618
21642,0.900855,-6.359206,7.825408,-0.224683,-0.096133,0.859816
21643,0.859003,-6.408116,7.764038,-0.172966,-0.104550,0.864623
21644,0.721645,-6.370129,7.788551,-0.121918,-0.108840,0.870916
21645,0.666087,-6.391550,7.822062,-0.074011,-0.128499,0.877577
21646,0.595185,-6.402581,7.841516,-0.022147,-0.148757,0.886474
21647,0.593992,-6.375963,7.915470,0.043541,-0.158779,0.886242
21648,0.552655,-6.269409,7.852270,0.150800,-0.164216,0.888487
21649,0.539429,-6.008666,7.929931,0.259221,-0.171972,0.889619
21650,0.493823,-5.785044,7.995160,0.311685,-0.175786,0.890552
21651,0.528740,-5.579979,8.015975,0.339580,-0.183725,0.887204
21652,0.554015,-5.463570,8.048475,0.359334,-0.165660,0.890554
21653,0.562018,-5.289604,8.085953,0.375794,-0.162873,0.886751
21654,0.491225,-5.075828,8.111041,0.406596,-0.154348,0.858928
21655,0.522842,-4.905514,8.164810,0.400252,-0.159299,0.838295
21656,0.469758,-4.805214,8.201354,0.337338,-0.158377,0.818508
21657,0.431578,-4.859509,8.056661,0.269973,-0.171630,0.797443
21658,0.450706,-4.983919,7.899549,0.254581,-0.186574,0.777324
21659,0.394855,-5.052625,7.836001,0.279624,-0.195149,0.766687
21660,0.410330,-5.165142,7.827983,0.318999,-0.198740,0.745468
21661,0.337604,-5.220103,7.752646,0.372448,-0.195968,0.737404
21662,0.281740,-5.226238,7.719037,0.454293,-0.190429,0.706105
21663,0.236599,-5.129766,7.861482,0.533756,-0.171712,0.684263
21664,0.186885,-4.987260,7.994003,0.557062,-0.161878,0.664892
21665,0.045296,-4.798433,8.022740,0.532331,-0.163009,0.640015
21666,0.050770,-4.663980,8.102305,0.467945,-0.176434,0.620015
21667,0.000523,-4.687630,8.095468,0.378985,-0.189589,0.610837
21668,0.066489,-4.812632,7.972165,0.302995,-0.201961,0.608681
21669,0.184212,-4.984690,7.883913,0.275863,-0.193359,0.609726
21670,0.182660,-5.084834,7.935161,0.257282,-0.171939,0.599508
21671,0.148897,-5.157491,7.852566,0.259181,-0.162952,0.583907
21672,0.100159,-5.134167,7.931945,0.279337,-0.172643,0.573958
21673,0.133908,-5.114678,7.969984,0.277480,-0.179215,0.567352
21674,0.070095,-5.020537,7.992374,0.283428,-0.178036,0.561564
21675,0.014388,-5.005740,8.040992,0.274790,-0.172312,0.565507
21676,-0.091029,-5.059696,8.033104,0.236275,-0.183293,0.573492
21677,-0.141451,-5.138012,8.033416,0.192987,-0.212299,0.586467
21678,-0.090577,-5.204324,8.051987,0.166834,-0.234740,0.590783
21679,-0.038047,-5.251935,8.042140,0.160067,-0.229724,0.611957
21680,-0.081062,-5.251765,7.930353,0.164198,-0.228013,0.632161
21681,-0.207384,-5.271718,7.990090,0.179134,-0.238617,0.648886
21682,-0.242184,-5.218266,7.896800,0.173399,-0.283231,0.667702
21683,-0.277045,-5.195396,7.931339,0.174391,-0.301382,0.678456
21684,-0.293968,-5.220572,7.996596,0.167725,-0.289293,0.665508
21685,-0.334676,-5.207763,8.172842,0.165580,-0.271579,0.665861
21686,-0.349395,-5.121105,8.468858,0.169632,-0.262000,0.657084
21687,-0.455715,-5.224549,8.788204,0.088817,-0.259551,0.665218
21688,-0.376095,-5.552649,8.816633,-0.055804,-0.272133,0.696532
21689,-0.285342,-5.839493,8.599806,-0.096952,-0.284869,0.764783
21690,-0.363796,-5.863904,8.532285,0.026636,-0.320431,0.822418
21691,-0.514228,-5.561664,8.605047,0.126137,-0.367634,0.840352
21692,-0.483560,-5.355264,8.606732,0.115859,-0.400633,0.856208
21693,-0.540810,-5.364636,8.464946,0.089338,-0.433966,0.859478
21694,-0.514860,-5.571670,8.278166,0.094902,-0.470924,0.856769
21695,-0.298709,-5.675254,7.933949,0.135400,-0.496740,0.883623
21696,-0.321295,-5.652062,7.630624,0.197522,-0.494616,0.902849
21697,-0.473940,-5.430762,7.641095,0.307001,-0.477411,0.893491
21698,-0.526515,-5.106834,7.880359,0.403582,-0.498231,0.874800
21699,-0.476351,-4.781531,7.918394,0.412355,-0.507988,0.852556
21700,-0.379529,-4.489082,8.041952,0.324924,-0.463294,0.829678
21701,-0.341002,-4.477130,8.157166,0.111031,-0.404477,0.832532
21702,-0.436589,-4.656218,7.941689,-0.125601,-0.336348,0.818959
21703,-0.318849,-4.852281,7.911105,-0.201718,-0.244485,0.812828
21704,-0.456536,-4.974851,7.938599,-0.116623,-0.137122,0.793566
21705,-0.741408,-4.917199,8.107767,-0.035805,-0.108146,0.751145
21706,-0.632140,-4.739419,8.285419,-0.005721,-0.154788,0.699889
21707,-0.354830,-4.710223,8.848895,-0.078450,-0.154542,0.676035
21708,-0.557614,-4.832461,9.054595,-0.249195,-0.170390,0.674089
21709,-0.819016,-5.074778,8.856005,-0.316171,-0.234414,0.679575
21710,-0.905703,-5.400474,8.772021,-0.304094,-0.316332,0.704378
21711,-1.022700,-5.490536,8.315227,-0.221641,-0.412837,0.729737
21712,-1.022592,-5.522315,8.441156,-0.021265,-0.460429,0.736454
21713,-1.028136,-5.468989,8.602353,0.094389,-0.518895,0.737924
21714,-1.089038,-5.365795,9.018437,0.160643,-0.602479,0.732862
21715,-0.889330,-5.395942,9.130906,0.169210,-0.723094,0.724050
21716,-0.679929,-5.621193,9.092209,0.190987,-0.813818,0.694892
21717,-0.682893,-5.870906,8.776882,0.224440,-0.916538,0.692301
21718,-0.825763,-5.841291,8.234013,0.481739,-1.092009,0.715338
21719,-0.682609,-5.249520,7.499364,0.793312,-1.199390,0.698526
21720,-0.449721,-4.176290,7.098133,1.002192,-1.240134,0.668046
21721,0.156014,-3.294350,7.559488,0.927520,-1.237734,0.601452
21722,1.112788,-3.241941,8.357768,0.620083,-1.250670,0.550236
21723,1.021017,-3.547468,7.979612,0.391187,-1.161626,0.476849
21724,0.367238,-3.830425,7.938248,0.480960,-1.109746,0.364240
21725,0.170275,-3.469371,7.817988,0.686851,-1.229382,0.255766
21726,0.684887,-2.852267,7.747984,0.735041,-1.273650,0.155446
21727,1.193494,-2.246292,7.830082,0.710313,-1.250290,0.076905
21728,1.990129,-1.878217,8.130257,0.537023,-1.149182,-0.003923
21729,2.486704,-2.072648,8.298133,0.297531,-0.952605,-0.080387
21730,2.302587,-2.231984,8.786777,0.201887,-0.733393,-0.155651
21731,1.594199,-2.461866,9.162996,0.045636,-0.597178,-0.247681
21732,1.580528,-2.897911,9.268608,-0.035266,-0.573014,-0.325731
21733,1.583949,-3.175224,9.225784,-0.030024,-0.507113,-0.401387
21734,1.365676,-3.418309,9.224138,-0.021770,-0.433320,-0.454103
21735,1.424675,-3.634690,9.156862,0.024951,-0.379343,-0.502117
21736,1.651242,-3.696456,9.266603,0.084163,-0.296889,-0.534045
21737,1.682111,-3.630108,9.233380,0.102491,-0.219163,-0.562415
21738,1.695599,-3.589756,9.148303,0.072917,-0.148373,-0.593062
21739,1.675374,-3.499886,9.190046,0.039901,-0.103326,-0.616231
21740,1.567623,-3.435961,9.144601,-0.039919,-0.079046,-0.642217
21741,1.463708,-3.593503,8.963082,-0.148133,-0.079976,-0.656087
21742,1.327417,-3.879561,8.911755,-0.222413,-0.082687,-0.667744
21743,1.132641,-4.270550,8.591334,-0.251634,-0.117327,-0.694949
21744,1.070525,-4.612671,8.505145,-0.168865,-0.139551,-0.739250
21745,1.011150,-4.817842,8.394584,-0.036954,-0.165519,-0.790794
21746,1.134918,-4.879511,8.192167,0.107501,-0.166116,-0.851152
21747,1.188601,-4.694641,8.324981,0.302983,-0.173554,-0.885082
21748,1.216873,-4.231017,8.607187,0.435373,-0.215748,-0.922441
21749,1.427937,-3.832718,8.753850,0.374123,-0.244507,-0.935694
21750,1.493290,-3.627257,8.593287,0.183669,-0.278308,-0.957806
21751,1.551529,-3.767918,8.526904,-0.074180,-0.294521,-1.005972
21752,1.419594,-3.995871,7.713011,-0.308770,-0.339989,-1.108733
21753,1.449489,-4.100286,7.316096,-0.168825,-0.374484,-1.202710
21754,1.779323,-3.989283,7.559831,0.159487,-0.440678,-1.203672
21755,2.209335,-3.674802,8.201845,0.344325,-0.423147,-1.154825
21756,2.285171,-3.458696,8.641789,0.307672,-0.389068,-1.066918
21757,2.083286,-3.470750,8.794736,0.141834,-0.413923,-0.976287
21758,1.866106,-3.606726,8.717150,0.009082,-0.510066,-0.903732
21759,1.837065,-3.923458,8.342075,-0.062864,-0.609311,-0.874101
21760,2.007149,-4.082483,7.890735,-0.050007,-0.665344,-0.857809
21761,2.089112,-4.105154,7.464137,0.067167,-0.697818,-0.855975
21762,2.121174,-3.958074,7.113074,0.247686,-0.698986,-0.883520
21763,2.276928,-3.837044,7.389379,0.392888,-0.689038,-0.940587
21764,2.619110,-3.723236,7.691571,0.418225,-0.678253,-0.986859
21765,2.772858,-3.389158,8.081135,0.505221,-0.652545,-0.999619
21766,2.801305,-3.006768,8.559015,0.456510,-0.677061,-0.997933
21767,2.915279,-2.822262,8.621744,0.238943,-0.768902,-0.937059
21768,3.115853,-2.824716,8.217013,-0.012526,-0.838488,-0.847595
21769,3.122357,-3.102370,7.719959,-0.212279,-0.873715,-0.760872
21770,2.877098,-3.500231,7.106292,-0.287205,-0.945073,-0.720921
21771,2.868831,-3.734118,6.771904,-0.188014,-1.087946,-0.712659
21772,3.239737,-3.901209,6.315304,-0.036637,-1.211350,-0.736074
21773,3.564606,-3.753791,6.092688,0.259688,-1.217057,-0.801003
21774,3.639689,-3.375496,6.588414,0.588126,-1.192112,-0.898610
21775,3.794202,-2.898204,7.274598,0.717939,-1.285389,-0.942858
21776,3.972929,-2.368603,7.498046,0.562338,-1.457041,-0.948720
21777,4.256921,-2.064912,7.097577,0.214254,-1.598144,-0.915188
21778,4.543644,-2.186218,6.618931,-0.111922,-1.642858,-0.840704
21779,4.853010,-2.635047,6.344174,-0.309931,-1.635495,-0.761746
21780,5.289983,-3.209091,6.081924,-0.400685,-1.630680,-0.682931
21781,5.678957,-3.553820,5.718889,-0.335037,-1.634309,-0.670516
21782,6.068403,-3.669742,5.761550,-0.091501,-1.617391,-0.692433
21783,6.262215,-3.323932,6.249487,0.247823,-1.620593,-0.761145
21784,6.093002,-2.630431,6.963554,0.443801,-1.681987,-0.857529
21785,5.902411,-2.082430,7.483247,0.317136,-1.771191,-0.917771
21786,5.856932,-1.788116,7.456733,-0.026677,-1.862315,-0.906460
21787,5.941740,-1.877432,7.267318,-0.346661,-1.882530,-0.861882
21788,6.149173,-2.324351,6.806046,-0.626240,-1.899488,-0.794856
21789,6.310045,-2.732054,5.824793,-0.677566,-1.895370,-0.761574
21790,6.499649,-2.755865,5.433093,-0.411238,-1.917609,-0.739859
21791,7.007282,-2.551072,5.846420,-0.226844,-1.981698,-0.705843
21792,7.551964,-2.545277,5.760349,-0.312644,-2.085825,-0.675832
21793,8.221722,-2.719114,5.572165,-0.408885,-2.103558,-0.674215
21794,8.809623,-2.948299,5.812468,-0.431009,-2.048235,-0.667493
21795,9.017112,-3.186370,6.063853,-0.412263,-1.944496,-0.678273
21796,8.845705,-3.345711,6.344476,-0.278298,-1.820885,-0.747530
21797,8.494667,-2.999679,6.648470,-0.047403,-1.735840,-0.828178
21798,8.124816,-2.358164,6.957777,0.118420,-1.696482,-0.883504
21799,7.953507,-1.813027,7.255644,0.083198,-1.722182,-0.885303
21800,8.018648,-1.562218,7.129003,-0.152937,-1.785337,-0.837998
21801,8.089049,-1.769877,6.554746,-0.462139,-1.836833,-0.766395
21802,8.283032,-2.318207,6.012202,-0.635528,-1.850099,-0.699753
21803,8.610292,-2.867424,5.660678,-0.631927,-1.849826,-0.642300
21804,9.135260,-3.272605,5.393726,-0.542211,-1.835024,-0.618535
21805,9.561931,-3.541768,5.194592,-0.412823,-1.778061,-0.611833
21806,9.637295,-3.719003,5.015776,-0.215442,-1.708859,-0.630591
21807,9.414947,-3.642175,4.674222,0.027750,-1.666597,-0.676068
21808,9.082032,-3.348645,4.432463,0.247579,-1.661789,-0.642377
21809,8.705181,-3.145310,4.254672,0.228884,-1.695558,-0.490854
21810,8.529853,-3.142954,4.040685,-0.003634,-1.816502,-0.376597
21811,8.910464,-3.383460,3.844681,-0.057198,-1.966068,-0.355106
21812,9.525169,-3.260855,3.572402,0.237511,-2.048040,-0.491094
21813,10.013983,-2.607963,3.397998,0.642120,-1.933447,-0.617011
21814,10.500291,-1.807731,3.634197,0.915227,-1.685029,-0.705981
21815,10.796169,-0.999437,4.025470,0.926286,-1.388038,-0.663491
21816,10.784033,-0.358076,4.402677,0.656358,-1.166873,-0.538780
21817,10.685489,-0.104695,4.875877,0.162209,-1.063873,-0.404541
21818,10.506178,-0.377578,5.030626,-0.398631,-1.042612,-0.313615
21819,10.569201,-0.917419,4.694250,-0.724827,-1.040319,-0.292419
21820,10.753967,-1.311421,4.253857,-0.727348,-0.967692,-0.299724
21821,10.735251,-1.201170,3.901654,-0.429784,-0.834111,-0.328808
21822,10.583510,-0.596472,4.214980,-0.062008,-0.715026,-0.365823
21823,10.602561,0.016900,4.636147,0.067754,-0.662462,-0.391514
21824,10.653620,0.423335,4.872337,-0.053475,-0.649233,-0.385312
21825,10.673022,0.460507,4.843598,-0.350018,-0.659743,-0.349229
21826,10.587317,0.004327,4.521009,-0.678565,-0.673931,-0.321008
21827,10.578316,-0.615624,4.003072,-0.866760,-0.686092,-0.332744
21828,10.557496,-1.197776,3.467397,-0.912716,-0.662514,-0.363676
21829,10.609353,-1.530422,2.895380,-0.801005,-0.566458,-0.409984
21830,10.538441,-1.664892,2.571889,-0.619181,-0.405397,-0.410166
21831,10.290163,-1.705834,2.578279,-0.505244,-0.271432,-0.396930
21832,9.995039,-1.780263,2.605247,-0.515489,-0.205818,-0.369663
21833,9.776619,-1.963505,2.463948,-0.560034,-0.170986,-0.335249
21834,9.709989,-2.192447,2.333749,-0.563004,-0.150890,-0.309424
21835,9.586660,-2.463125,2.181885,-0.482628,-0.123281,-0.277513
21836,9.520149,-2.573957,1.999783,-0.305705,-0.088117,-0.250136
21837,9.506809,-2.490487,1.975649,-0.075667,-0.069575,-0.223121
21838,9.556413,-2.245990,2.114866,0.083108,-0.050527,-0.192899
21839,9.611815,-1.977874,2.170135,0.169151,-0.034938,-0.167724
21840,9.651406,-1.762808,2.171395,0.198358,-0.026779,-0.133961
21841,9.749966,-1.639788,2.080144,0.199342,-0.018954,-0.109205
21842,9.748463,-1.501207,1.965591,0.211179,-0.004667,-0.086764
21843,9.748727,-1.371020,1.911117,0.224943,0.002116,-0.071636
21844,9.651816,-1.230607,1.892342,0.228034,0.011316,-0.063494
21845,9.566215,-1.101873,1.891673,0.234874,0.006932,-0.060530
21846,9.491277,-1.005348,1.896906,0.268427,0.009432,-0.056873
21847,9.486173,-0.813715,1.978175,0.292189,0.005240,-0.060686
21848,9.533132,-0.685878,2.020241,0.269156,0.011758,-0.059611
21849,9.478429,-0.605481,2.001717,0.235171,0.012650,-0.054788
21850,9.498181,-0.564137,1.946199,0.214716,0.013409,-0.053684
21851,9.541777,-0.523255,1.939904,0.206039,0.020988,-0.056875
21852,9.510342,-0.534704,1.982674,0.182725,0.024660,-0.060637
21853,9.575226,-0.489234,1.966144,0.139685,0.023471,-0.057866
21854,9.560798,-0.556772,1.903247,0.097884,0.020650,-0.049609
21855,9.626290,-0.583202,1.909848,0.060232,0.009858,-0.043470
21856,9.623875,-0.663966,1.863888,0.031658,0.002148,-0.040267
21857,9.578142,-0.686568,1.813827,0.022566,-0.000951,-0.037348
21858,9.623146,-0.698583,1.840785,0.024103,-0.001395,-0.036548
21859,9.633177,-0.769764,1.824616,0.016290,0.002441,-0.031161
21860,9.579984,-0.814637,1.863461,0.007109,0.003661,-0.014296
21861,9.568525,-0.893215,1.857372,0.024807,-0.011255,-0.007526
21862,9.633695,-0.856077,1.836635,0.039084,-0.014467,0.011753
21863,9.568211,-0.824280,1.831147,0.064769,-0.009790,0.017733
21864,9.561566,-0.733873,1.917734,0.060398,-0.019102,0.032257
21865,9.605320,-0.705092,1.906125,0.024590,-0.034130,0.043624
21866,9.658896,-0.752682,1.877298,0.013783,-0.036085,0.053573
21867,9.694854,-0.677066,1.928947,0.027819,-0.030452,0.052900
21868,9.632775,-0.632182,1.992721,0.033579,-0.029405,0.050097
21869,9.681003,-0.635618,2.088231,0.001271,-0.026007,0.047380
21870,9.658531,-0.687987,2.072454,-0.019292,-0.036432,0.040461
21871,9.668571,-0.767052,2.052428,-0.013235,-0.040953,0.039054
21872,9.721052,-0.766347,1.986549,0.022908,-0.040057,0.032151
21873,9.694037,-0.681773,2.081128,0.046640,-0.033969,0.028242
21874,9.662173,-0.656278,2.081842,0.054221,-0.030430,0.024530
21875,9.655152,-0.608412,2.143364,0.037050,-0.028453,0.017485
21876,9.642393,-0.642034,2.099186,0.024641,-0.023251,0.020485
21877,9.654448,-0.654277,2.115603,0.007604,-0.026128,0.022675
21878,9.629131,-0.699733,2.041156,-0.005530,-0.021971,0.019828
21879,9.616948,-0.712916,2.008799,-0.013398,-0.019937,0.022149
21880,9.672856,-0.763791,2.040535,-0.031903,-0.020532,0.026616
21881,9.659724,-0.799634,1.996674,-0.037906,-0.015081,0.029574
21882,9.668706,-0.809214,1.954113,-0.012523,-0.015235,0.034136
21883,9.704310,-0.753788,1.995333,-0.004653,-0.017270,0.031815
21884,9.683003,-0.761357,2.004393,0.002184,-0.014792,0.022233
21885,9.729564,-0.736782,2.052920,0.013231,-0.014985,0.026099
21886,9.674046,-0.690254,2.018032,0.017904,-0.010364,0.014472
21887,9.688312,-0.637083,2.070945,0.025756,-0.003901,0.009032
21888,9.689139,-0.616001,2.082487,-0.006328,0.001592,0.003121
21889,9.654192,-0.654216,2.051731,-0.044630,0.011423,0.004932
21890,9.629732,-0.655838,2.003641,-0.045284,0.012210,0.002158
21891,9.633049,-0.640189,2.075794,-0.061732,0.015256,0.000975
21892,9.597304,-0.769774,2.058594,-0.091142,0.017633,0.006217
21893,9.624747,-0.837681,1.972970,-0.095350,0.015265,0.008340
21894,9.611804,-0.850729,1.943869,-0.075280,0.024820,0.003104
21895,9.580870,-0.851290,1.997473,-0.050908,0.030065,0.001933
21896,9.573793,-0.782427,2.075932,-0.050898,0.030071,0.001944
21897,9.539251,-0.799773,2.058429,-0.079764,0.028025,0.003837
21898,9.560293,-0.866245,2.073998,-0.092149,0.023838,0.008449
21899,9.532396,-0.954170,1.979302,-0.088322,0.019648,0.001924
21900,9.574998,-1.015329,1.983698,-0.076957,0.023294,0.005646
21901,9.561330,-1.118443,1.967358,-0.064757,0.026367,0.005840
21902,9.533268,-1.136289,1.848890,-0.030065,0.023632,0.008807
21903,9.577407,-1.153684,1.877833,0.013080,0.025660,0.007589
21904,9.559637,-1.121348,1.973922,0.039522,0.019287,0.009973
21905,9.591289,-1.079692,1.948217,0.042332,0.016334,0.014786
21906,9.651817,-1.081866,1.847402,0.045437,0.016336,0.017916
21907,9.620759,-1.012430,1.876723,0.074859,0.014852,0.014224
21908,9.652595,-1.039784,1.875034,0.075855,0.009412,0.019949
21909,9.653766,-0.928338,1.876156,0.087486,0.015100,0.020459
21910,9.668170,-0.853705,1.944058,0.096384,0.017047,0.022321
21911,9.681731,-0.800617,2.000139,0.069311,0.016612,0.021744
21912,9.701863,-0.818264,1.979977,0.026403,0.017538,0.021186
21913,9.664071,-0.921108,1.915528,0.030686,0.020833,0.020643
21914,9.708107,-0.870029,1.920234,0.040224,0.021981,0.025273
21915,9.684308,-0.919922,1.909566,0.026000,0.016217,0.032274
21916,9.714189,-0.923631,1.860563,0.049005,0.025539,0.036517
21917,9.683648,-0.903114,1.926636,0.070814,0.026304,0.028919
21918,9.683787,-0.814331,1.917223,0.067636,0.036444,0.032089
21919,9.651524,-0.767185,1.936356,0.066352,0.038025,0.026540
21920,9.686818,-0.757183,2.020042,0.069706,0.039163,0.024928
21921,9.665795,-0.788941,2.082831,0.045265,0.040644,0.019848
21922,9.651571,-0.822306,2.045259,0.016251,0.044393,0.013886
21923,9.648616,-0.935218,2.051043,-0.000915,0.038828,0.011410
21924,9.621344,-1.000966,1.971036,-0.006122,0.041886,0.007760
21925,9.650050,-1.093250,1.937122,0.011523,0.042087,0.005353
21926,9.605229,-1.124215,1.950877,0.040482,0.044101,0.003644
21927,9.615792,-1.134107,1.974399,0.058751,0.042608,0.002504
21928,9.625080,-1.117671,1.949835,0.073653,0.039075,0.001466
21929,9.647509,-1.068370,1.967274,0.092288,0.041457,0.000196
21930,9.659804,-1.034029,2.013962,0.088905,0.038509,-0.001225
21931,9.693674,-0.994729,2.050043,0.078809,0.039975,-0.005592
21932,9.626171,-1.002421,2.026243,0.088244,0.037474,-0.007031
21933,9.636154,-1.031512,2.037991,0.092979,0.033555,-0.015495
21934,9.624286,-1.017968,2.022883,0.097593,0.024645,-0.008381
21935,9.534305,-1.004165,1.960344,0.119658,0.029102,-0.009674
21936,9.526401,-0.882246,2.002550,0.150283,0.030741,-0.010400
21937,9.527432,-0.835259,2.029518,0.130503,0.032695,-0.010085
21938,9.536356,-0.838385,1.992588,0.105966,0.025613,-0.012171
21939,9.557507,-0.830229,1.985738,0.108141,0.030144,-0.016266
21940,9.576273,-0.886627,1.945582,0.112817,0.036409,-0.018458
21941,9.586324,-0.914627,1.957835,0.107355,0.037441,-0.018883
21942,9.552058,-0.926631,1.942580,0.106755,0.038224,-0.021638
21943,9.548896,-0.940729,1.876432,0.122781,0.038790,-0.018368
21944,9.561912,-0.881567,1.933926,0.139658,0.037823,-0.020118
21945,9.563206,-0.880501,1.998143,0.128663,0.032298,-0.016328
21946,9.616217,-0.852249,1.952021,0.128657,0.030461,-0.019332
21947,9.660093,-0.748145,1.920090,0.148290,0.031387,-0.025446
21948,9.695364,-0.660844,1.977744,0.172671,0.040447,-0.030705
21949,9.755584,-0.458124,2.080467,0.170625,0.041853,-0.057463
21950,9.812523,-0.293581,2.101027,0.154830,0.044280,-0.079301
21951,9.815220,-0.103231,2.134230,0.143784,0.054012,-0.125079
21952,9.841503,0.000220,2.292588,0.070242,0.056998,-0.172428
21953,9.870861,-0.074303,2.263519,-0.113200,0.061658,-0.203939
21954,9.772915,-0.375382,2.038049,-0.236090,0.068599,-0.229554
21955,9.677809,-0.699750,1.859989,-0.223884,0.068187,-0.245520
21956,9.598292,-0.901910,1.766020,-0.177217,0.065201,-0.245272
21957,9.533182,-0.983839,1.757163,-0.120396,0.061734,-0.222228
21958,9.467157,-1.042735,1.699296,-0.074132,0.051824,-0.192838
