// Start Time: Unknown
// Update Rate: 100.0Hz
// Filter Profile: human (46.1)
// Firmware Version: 4.3.5
PacketCounter,SampleTimeFine,Acc_X,Acc_Y,Acc_Z,Gyr_X,Gyr_Y,Gyr_Z,Roll,Pitch,Yaw
30280,,9.759980,-0.307916,1.364316,-0.004542,0.013398,-0.007721,-10.722974,-81.862340,-18.037163
30281,,9.783444,-0.311354,1.360835,-0.003728,0.013178,-0.002258,-10.706411,-81.855162,-18.056052
30282,,9.759651,-0.307113,1.366851,-0.000664,0.012600,-0.005985,-10.676280,-81.848722,-18.086924
30283,,9.774959,-0.321333,1.331575,-0.001734,0.013834,-0.001152,-10.662505,-81.841055,-18.101843
30284,,9.774789,-0.321241,1.332849,0.001936,0.012236,-0.000699,-10.654759,-81.834359,-18.108653
30285,,9.785354,-0.321185,1.387696,0.005317,0.014570,-0.002667,-10.630511,-81.826437,-18.130072
30286,,9.755986,-0.338554,1.383739,0.005414,0.013259,-0.001860,-10.619321,-81.819348,-18.138427
30287,,9.805665,-0.356825,1.397300,0.014554,0.013340,-0.001460,-10.595484,-81.811989,-18.154084
30288,,9.808456,-0.324064,1.386937,0.021799,0.011454,-0.001357,-10.584264,-81.805605,-18.153109
30289,,9.761386,-0.272738,1.364365,0.025691,0.014078,0.000048,-10.559458,-81.797670,-18.163299
30290,,9.769325,-0.261597,1.397567,0.027275,0.013133,-0.001411,-10.546716,-81.790372,-18.160754
30291,,9.711132,-0.253168,1.355170,0.030881,0.019689,-0.002431,-10.505263,-81.779536,-18.184760
30292,,9.742657,-0.245510,1.384004,0.019226,0.015235,-0.006980,-10.473544,-81.771703,-18.206041
30293,,9.760543,-0.269983,1.370929,0.017455,0.018800,-0.007139,-10.422244,-81.761852,-18.247769
30294,,9.802034,-0.298273,1.353486,0.021048,0.021934,-0.007825,-10.381254,-81.750457,-18.277375
30295,,9.798833,-0.329607,1.367128,0.017350,0.016687,-0.007612,-10.329889,-81.741836,-18.319234
30296,,9.822304,-0.332525,1.363880,0.019220,0.011811,-0.006642,-10.307930,-81.736434,-18.330788
30297,,9.780384,-0.302568,1.384610,0.018145,0.013050,-0.001812,-10.281292,-81.729264,-18.347199
30298,,9.783153,-0.269915,1.374337,0.024128,0.015024,0.001510,-10.292839,-81.721407,-18.322035
30299,,9.738228,-0.272770,1.406866,0.031474,0.011829,0.002430,-10.275906,-81.714492,-18.320918
30300,,9.714805,-0.225246,1.379514,0.026809,0.016257,-0.005114,-10.261713,-81.706573,-18.320212
30301,,9.714603,-0.224320,1.381091,0.021036,0.015083,-0.007155,-10.211518,-81.698796,-18.358750
30302,,9.714386,-0.223282,1.382784,0.009816,0.019072,-0.009821,-10.180925,-81.690145,-18.384846
30303,,9.739840,-0.273085,1.301679,0.006036,0.018557,-0.010755,-10.123150,-81.680765,-18.439740
30304,,9.733724,-0.336701,1.326790,0.009898,0.014341,-0.008672,-10.099513,-81.675667,-18.459175
30305,,9.768200,-0.296283,1.343733,0.022438,0.016755,-0.010227,-10.035740,-81.667237,-18.510652
30306,,9.778576,-0.295194,1.398892,0.019555,0.014721,-0.004886,-10.031419,-81.662385,-18.504344
30307,,9.773323,-0.273024,1.356813,0.021645,0.014071,-0.002967,-9.998120,-81.654729,-18.525487
30308,,9.781132,-0.261628,1.390235,0.023657,0.018151,-0.002198,-10.001754,-81.647969,-18.508966
30309,,9.780921,-0.261020,1.391835,0.019656,0.013410,-0.004075,-9.965859,-81.640793,-18.533887
30310,,9.778227,-0.249472,1.371406,0.017365,0.013255,-0.007275,-9.955754,-81.637443,-18.534596
30311,,9.762404,-0.233888,1.409212,0.015781,0.014202,-0.005821,-9.914839,-81.629997,-18.566828
30312,,9.777888,-0.247696,1.374138,0.015375,0.012594,-0.008384,-9.878285,-81.628319,-18.596287
30313,,9.757060,-0.210387,1.368122,0.022425,0.009907,-0.009544,-9.821842,-81.623691,-18.640349
30314,,9.759456,-0.219752,1.390971,0.009098,0.011117,-0.013803,-9.789024,-81.623112,-18.668224
30315,,9.722229,-0.246895,1.354835,0.007199,0.009148,-0.014100,-9.724608,-81.619334,-18.729156
30316,,9.756260,-0.249076,1.404951,0.010907,0.014393,-0.014317,-9.684089,-81.617213,-18.764774
30317,,9.742657,-0.280052,1.364598,0.001754,0.014305,-0.014737,-9.617185,-81.610556,-18.831388
30318,,9.745031,-0.289262,1.387683,0.003436,0.012050,-0.015378,-9.579628,-81.610029,-18.868207
30319,,9.757699,-0.334771,1.364041,0.007095,0.007035,-0.014568,-9.515299,-81.607432,-18.929132
30320,,9.758068,-0.290194,1.331235,0.012576,0.008718,-0.014614,-9.487296,-81.608474,-18.952417
30321,,9.739375,-0.306151,1.380152,0.016143,0.005012,-0.014615,-9.419029,-81.606995,-19.012110
30322,,9.750243,-0.261331,1.400584,0.016238,0.003703,-0.013803,-9.401408,-81.611676,-19.020043
30323,,9.755647,-0.238112,1.411100,0.012471,0.006604,-0.015084,-9.332619,-81.609320,-19.082374
30324,,9.771336,-0.251026,1.375249,0.006290,0.003812,-0.019693,-9.301403,-81.613619,-19.111140
30325,,9.723986,-0.241332,1.384908,0.006198,0.005119,-0.020505,-9.216395,-81.612577,-19.193517
30326,,9.744718,-0.275315,1.392709,0.007897,0.006284,-0.021488,-9.153337,-81.616672,-19.254734
30327,,9.752638,-0.262083,1.425045,0.005704,0.004816,-0.023878,-9.055439,-81.616099,-19.350434
30328,,9.745065,-0.227613,1.360210,0.007605,0.006786,-0.023581,-9.028950,-81.617631,-19.373337
30329,,9.760410,-0.282798,1.358150,0.005319,0.006624,-0.026783,-8.919692,-81.616205,-19.480781
30330,,9.778691,-0.305566,1.344085,0.003517,0.003345,-0.026268,-8.850145,-81.622172,-19.550711
30331,,9.778714,-0.303032,1.344494,0.007504,0.004673,-0.024049,-8.751168,-81.621569,-19.646502
30332,,9.757579,-0.307372,1.371328,0.010888,0.003585,-0.025672,-8.719652,-81.625694,-19.675777
30333,,9.770921,-0.272051,1.413331,0.016158,0.001049,-0.026653,-8.608026,-81.627290,-19.779426
30334,,9.768442,-0.258487,1.391724,0.017859,0.002214,-0.027636,-8.557206,-81.632680,-19.825361
30335,,9.723970,-0.215722,1.389238,0.019748,0.000766,-0.026995,-8.442565,-81.634379,-19.930045
30336,,9.763501,-0.231281,1.348276,0.015862,-0.001873,-0.028400,-8.392422,-81.642685,-19.966625
30337,,9.766146,-0.238851,1.369848,0.008099,-0.003732,-0.031557,-8.269567,-81.647262,-20.086303
30338,,9.752746,-0.311247,1.361553,0.004423,-0.002147,-0.032028,-8.205361,-81.656129,-20.149960
30339,,9.747248,-0.372824,1.385247,0.012392,0.000520,-0.027591,-8.093267,-81.657882,-20.256282
30340,,9.739295,-0.423718,1.386752,0.019043,-0.010603,-0.030611,-8.040210,-81.669938,-20.312322
30341,,9.841525,-0.553500,1.500277,0.025506,-0.011714,-0.023564,-7.942975,-81.678199,-20.396166
30342,,9.972044,-0.831475,1.621412,0.049232,0.005754,-0.012579,-7.959885,-81.677867,-20.362238
30343,,10.180482,-1.079774,1.998102,0.087975,0.059292,0.009784,-7.917736,-81.643139,-20.354373
30344,,10.408974,-1.425410,2.581043,0.127204,0.171587,0.053067,-8.124937,-81.537210,-20.068221
30345,,10.529598,-1.824253,3.223849,0.191528,0.355653,0.132746,-8.324327,-81.324302,-19.756059
30346,,10.206730,-2.153371,3.536374,0.279485,0.549549,0.217370,-8.887816,-80.971081,-19.022726
30347,,9.740514,-2.301605,3.229311,0.487079,0.590272,0.300866,-9.331607,-80.609465,-18.290839
30348,,9.759766,-2.571156,2.499155,0.739242,0.568897,0.367354,-10.133141,-80.203591,-17.048865
30349,,9.840939,-2.835606,1.647866,1.062035,0.568212,0.437175,-10.595754,-79.837836,-15.961668
30350,,9.633218,-2.824546,1.311711,1.346543,0.544904,0.478313,-11.335703,-79.426224,-14.434845
30351,,9.844457,-2.592846,1.283903,1.484249,0.480512,0.528609,-11.762574,-79.095408,-13.135125
30352,,10.344281,-2.144360,1.721560,1.467763,0.480492,0.612899,-12.784984,-78.702345,-11.248135
30353,,10.644049,-1.528778,2.467551,1.337767,0.548280,0.713207,-13.624111,-78.302774,-9.609914
30354,,10.851661,-0.967714,2.980639,1.144435,0.644175,0.808204,-15.018055,-77.788936,-7.557992
30355,,10.655339,-0.794014,3.132894,0.926020,0.765281,0.890608,-16.175372,-77.229057,-5.829616
30356,,10.409467,-1.010976,2.971369,0.781603,0.866601,0.946609,-17.601155,-76.551891,-3.950110
30357,,10.380514,-1.321845,2.966320,0.718890,0.947794,1.000172,-18.717599,-75.857115,-2.376934
30358,,10.547980,-1.524198,3.245478,0.686564,1.027743,1.046866,-19.913588,-75.069203,-0.781249
30359,,10.656283,-1.536851,3.552258,0.643143,1.115027,1.093635,-20.872856,-74.252250,0.594941
30360,,10.785938,-1.775146,3.697658,0.579772,1.218180,1.150647,-21.906595,-73.321569,1.976136
30361,,10.715632,-2.161640,3.959848,0.539057,1.320978,1.220455,-22.757872,-72.356439,3.189719
30362,,10.667019,-2.575720,4.102892,0.535846,1.425819,1.294055,-23.618252,-71.285564,4.377235
30363,,10.516932,-2.701067,4.266146,0.569726,1.504318,1.367658,-24.333842,-70.180857,5.480510
30364,,10.431831,-2.766754,4.178972,0.608437,1.550558,1.424845,-25.030057,-69.008414,6.568677
30365,,10.562860,-2.815266,4.130711,0.662924,1.592905,1.491574,-25.611044,-67.819794,7.601500
30366,,10.651768,-2.739005,4.460407,0.683113,1.652861,1.548329,-26.239028,-66.511896,8.677009
30367,,10.699792,-2.596912,4.942583,0.637783,1.727713,1.594513,-26.709104,-65.220640,9.592084
30368,,10.765808,-2.469953,5.025207,0.588405,1.816119,1.627956,-27.234249,-63.781491,10.523643
30369,,10.641587,-2.363169,5.126839,0.546339,1.911881,1.654047,-27.580862,-62.374944,11.263013
30370,,10.452878,-2.480104,4.980403,0.456052,1.976809,1.697181,-28.017778,-60.832989,12.032747
30371,,10.341216,-2.663653,5.072210,0.379335,2.027335,1.760359,-28.387631,-59.334843,12.709742
30372,,10.179671,-2.834415,5.157689,0.302664,2.056275,1.811266,-28.845808,-57.724467,13.427172
30373,,10.043418,-2.957124,5.367228,0.233021,2.080440,1.838463,-29.235322,-56.173214,14.050681
30374,,9.839781,-3.145534,5.436874,0.191569,2.126357,1.873536,-29.663255,-54.513732,14.681668
30375,,9.460480,-3.195938,5.578570,0.231871,2.167047,1.919056,-29.985792,-52.891951,15.246192
30376,,9.165028,-3.328918,5.834052,0.250917,2.177859,1.960446,-30.325868,-51.186281,15.837307
30377,,8.984588,-3.655168,5.850958,0.253204,2.144296,1.971568,-30.602166,-49.556849,16.383880
30378,,9.011859,-3.889718,5.676781,0.297845,2.104628,1.956693,-30.862748,-47.892273,16.934997
30379,,8.938098,-3.803201,5.651234,0.384939,2.109786,1.924197,-30.989364,-46.290992,17.408451
30380,,8.768562,-3.643200,5.944571,0.458702,2.103492,1.883690,-31.068614,-44.657196,17.863145
30381,,8.690110,-3.612223,6.233963,0.489762,2.104948,1.850631,-31.061176,-43.079262,18.256787
30382,,8.518936,-3.658729,6.291665,0.510468,2.118422,1.821935,-31.040820,-41.467541,18.636324
30383,,8.228873,-3.633271,6.426136,0.564416,2.128783,1.786333,-30.930440,-39.897260,18.962519
30384,,8.192600,-3.571860,6.514098,0.607878,2.140205,1.767701,-30.800723,-38.303034,19.284878
30385,,7.976893,-3.554319,6.421678,0.626185,2.192200,1.749794,-30.610016,-36.713430,19.560312
30386,,7.383959,-3.391610,6.213466,0.625668,2.202055,1.708763,-30.417117,-35.119712,19.819808
30387,,6.999873,-3.167414,6.332891,0.618101,2.167489,1.669743,-30.197989,-33.567032,20.058493
30388,,6.947242,-3.073360,6.551106,0.550936,2.121513,1.627034,-30.023330,-32.049582,20.298252
30389,,7.005184,-3.028255,6.665182,0.502417,2.119366,1.596648,-29.848065,-30.543008,20.514308
30390,,6.770079,-3.166291,6.696368,0.427580,2.174545,1.561600,-29.702023,-29.030675,20.698596
30391,,6.334214,-3.526139,6.551584,0.407471,2.193704,1.541024,-29.546381,-27.503859,20.862149
30392,,5.799324,-3.797639,6.268048,0.476382,2.177263,1.517625,-29.351595,-26.014358,21.023919
30393,,5.222344,-4.104839,5.955047,0.597366,2.141222,1.468366,-29.072656,-24.535185,21.171405
30394,,4.730570,-4.242963,5.791733,0.745113,2.062873,1.414259,-28.714833,-23.140942,21.324001
30395,,4.268016,-4.253740,5.690597,0.869258,1.945130,1.364698,-28.280489,-21.790635,21.489791
30396,,4.017597,-4.020880,5.687505,0.988911,1.824051,1.321266,-27.795335,-20.549261,21.682296
30397,,3.942247,-3.639510,5.756412,1.058942,1.728778,1.284780,-27.258883,-19.332841,21.887332
30398,,3.812881,-3.380564,5.722167,1.098274,1.679693,1.251569,-26.714352,-18.190840,22.104185
30399,,3.496224,-3.253624,5.583537,1.110557,1.651420,1.211600,-26.141331,-17.036702,22.312160
30400,,3.085092,-2.939784,5.845610,1.087948,1.603391,1.151123,-25.592312,-15.967466,22.515988
30401,,2.623105,-2.505581,6.345419,0.949005,1.523962,1.085167,-25.100237,-14.914293,22.708716
30402,,2.376973,-2.378911,6.496603,0.785711,1.422438,1.023204,-24.714026,-13.974567,22.905106
30403,,2.298542,-2.443598,6.329752,0.683041,1.345709,0.993048,-24.369856,-13.038941,23.105599
30404,,2.208779,-2.584160,6.283105,0.546237,1.276962,0.984253,-24.117049,-12.186378,23.325178
30405,,2.239425,-2.872330,6.366750,0.418010,1.216880,0.988972,-23.926043,-11.320942,23.561486
30406,,2.033199,-3.285834,6.468642,0.324203,1.194200,0.982504,-23.797624,-10.513797,23.803824
30407,,1.560914,-3.470017,6.712163,0.279452,1.132381,0.958185,-23.680467,-9.700941,24.046551
30408,,1.318577,-3.520060,7.015438,0.266896,1.060139,0.917327,-23.579637,-8.978945,24.287603
30409,,1.174382,-3.817053,7.074328,0.338118,0.963360,0.878652,-23.422551,-8.274080,24.529501
30410,,1.306018,-3.883067,7.221930,0.416687,0.850534,0.864508,-23.235252,-7.672710,24.793593
30411,,1.329322,-3.595701,7.393924,0.455223,0.802438,0.843853,-23.008621,-7.062078,25.057463
30412,,1.132728,-3.392801,7.583708,0.479375,0.775184,0.803456,-22.780334,-6.514279,25.310050
30413,,1.158538,-3.131238,7.758173,0.495918,0.751817,0.752423,-22.521620,-5.952772,25.540943
30414,,0.905401,-2.946229,8.000132,0.497031,0.734009,0.704074,-22.273965,-5.448916,25.753825
30415,,0.833194,-2.889905,8.475503,0.408809,0.676619,0.667215,-22.058769,-4.947702,25.959986
30416,,1.085591,-2.831100,8.680270,0.246580,0.624689,0.664544,-21.949136,-4.509646,26.178249
30417,,1.158589,-2.394677,8.976204,0.073965,0.605298,0.661178,-21.923528,-4.048468,26.398244
30418,,1.046639,-2.289727,8.826747,-0.062847,0.591672,0.648423,-21.983846,-3.630914,26.614691
30419,,0.872724,-2.405721,8.595795,-0.134893,0.567927,0.618279,-22.073656,-3.198461,26.818937
30420,,0.793687,-2.742244,8.745603,-0.210633,0.557068,0.582272,-22.209657,-2.812196,27.005667
30421,,0.817410,-2.987223,8.795520,-0.271082,0.511828,0.588409,-22.374381,-2.415051,27.204122
30422,,0.517722,-2.992978,8.818786,-0.336757,0.473769,0.592561,-22.578539,-2.068821,27.411814
30423,,0.060801,-3.075924,8.591941,-0.299830,0.405729,0.552990,-22.757335,-1.734309,27.612263
30424,,-0.103593,-3.185839,8.487326,-0.225458,0.350038,0.478479,-22.892607,-1.475467,27.784716
30425,,0.018772,-3.246228,8.550669,-0.161020,0.308826,0.417168,-22.988719,-1.221476,27.933475
30426,,0.120755,-3.085484,8.788197,-0.138160,0.277258,0.382875,-23.070738,-1.019142,28.070713
30427,,0.169112,-2.993152,8.803379,-0.103802,0.248901,0.349418,-23.132574,-0.811554,28.196495
30428,,0.177896,-2.863952,8.823311,-0.061017,0.258382,0.267034,-23.166707,-0.643331,28.276426
30429,,0.432742,-3.081674,8.925706,-0.009506,0.246079,0.206490,-23.172999,-0.469307,28.327295
30430,,0.579232,-2.881173,9.096038,-0.042906,0.250186,0.154352,-23.193643,-0.329950,28.349597
30431,,0.354815,-2.822071,9.176063,-0.031117,0.291732,0.081814,-23.211714,-0.160007,28.324397
30432,,0.135240,-2.678514,9.197485,-0.000968,0.318818,-0.010848,-23.205230,-0.021673,28.244151
30433,,0.188419,-2.405848,9.243156,-0.016101,0.330423,-0.106053,-23.214925,0.126213,28.111261
30434,,0.265549,-2.425960,9.115765,-0.031367,0.334991,-0.200381,-23.222905,0.231199,27.927584
30435,,0.046533,-2.673646,9.106721,-0.017821,0.315009,-0.318590,-23.234630,0.322893,27.686217
30436,,-0.081774,-2.742830,9.119367,0.040967,0.308406,-0.463375,-23.199157,0.355354,27.370115
30437,,0.062663,-2.758337,9.351499,0.128629,0.333929,-0.626246,-23.128446,0.387944,26.962513
30438,,0.137435,-2.684787,9.734699,0.164409,0.365984,-0.762041,-23.020910,0.385819,26.476212
30439,,0.102485,-2.759170,9.956955,0.165522,0.381503,-0.863709,-22.930101,0.391731,25.932806
30440,,0.270696,-2.804085,9.916811,0.207521,0.400569,-0.968074,-22.795265,0.364814,25.330124
30441,,0.357064,-2.725694,9.728163,0.286836,0.452683,-1.100324,-22.635575,0.358457,24.645937
30442,,0.306148,-2.552012,9.734981,0.371891,0.495395,-1.253497,-22.404312,0.323291,23.871347
30443,,0.114367,-2.401250,9.766315,0.437464,0.482853,-1.402678,-22.158418,0.272425,23.020271
30444,,0.161953,-2.107951,9.594431,0.493288,0.455292,-1.510038,-21.853256,0.168923,22.117871
30445,,0.230087,-1.733946,9.615094,0.507593,0.425774,-1.594369,-21.564595,0.055548,21.176386
30446,,0.313053,-1.632515,9.750741,0.466130,0.382440,-1.663775,-21.267113,-0.108315,20.206288
30447,,0.405940,-1.817357,9.900548,0.397899,0.322894,-1.709232,-21.036027,-0.291252,19.223621
30448,,0.641715,-1.962426,9.806685,0.327943,0.280664,-1.748115,-20.807064,-0.517282,18.227716
30449,,1.005317,-2.085605,9.869172,0.258259,0.290073,-1.785522,-20.648360,-0.726006,17.209430
30450,,1.216080,-2.332098,9.952694,0.198681,0.332062,-1.832222,-20.482333,-0.934930,16.156354
30451,,1.442311,-2.545952,10.123726,0.142270,0.424749,-1.886609,-20.381714,-1.086307,15.055668
30452,,1.305443,-2.542647,10.134937,0.067832,0.504237,-1.929098,-20.281164,-1.218343,13.915059
30453,,1.245353,-2.538914,10.072964,-0.043362,0.557759,-1.938163,-20.280870,-1.305575,12.759732
30454,,1.381840,-2.624894,10.090833,-0.172626,0.618738,-1.915436,-20.312527,-1.372834,11.603326
30455,,1.459450,-3.004373,10.053287,-0.314751,0.689668,-1.880251,-20.465536,-1.379842,10.452872
30456,,1.540034,-3.602256,9.911041,-0.452926,0.752671,-1.841815,-20.656647,-1.366131,9.309130
30457,,1.634970,-4.284234,9.700291,-0.501283,0.825511,-1.802410,-20.917799,-1.292540,8.172838
30458,,1.548971,-4.695301,9.368795,-0.474083,0.903724,-1.750527,-21.125815,-1.189242,7.046780
30459,,1.362021,-4.936508,8.975086,-0.423837,0.946520,-1.701641,-21.347399,-1.039029,5.938731
30460,,1.125011,-5.203258,8.637893,-0.344027,0.965845,-1.643101,-21.490866,-0.888586,4.856460
30461,,0.927062,-5.144581,8.645485,-0.253550,0.956896,-1.580754,-21.621787,-0.713589,3.809918
30462,,0.796079,-5.115995,8.546111,-0.228460,0.957500,-1.521527,-21.710657,-0.546531,2.793742
30463,,0.671176,-5.089969,8.570281,-0.186082,0.940297,-1.442775,-21.809914,-0.354795,1.823595
30464,,0.669062,-5.052787,8.791391,-0.235728,0.925160,-1.371187,-21.914004,-0.176004,0.893886
30465,,0.797791,-5.156223,8.832942,-0.329368,0.930453,-1.312338,-22.101873,0.034302,-0.005657
30466,,0.800586,-5.269798,8.775734,-0.412382,0.949728,-1.238658,-22.317318,0.249191,-0.871387
30467,,0.642577,-5.272279,8.820949,-0.504699,0.951092,-1.181904,-22.612164,0.491793,-1.708058
30468,,0.362247,-5.420032,8.723180,-0.588292,0.941085,-1.114819,-22.938395,0.720758,-2.508605
30469,,0.185749,-5.565139,8.628995,-0.640603,0.919362,-1.040245,-23.316867,0.968812,-3.266314
30470,,-0.011989,-5.675382,8.438727,-0.661783,0.911352,-0.955861,-23.694070,1.208639,-3.979608
30471,,-0.273426,-5.759248,8.445998,-0.643738,0.875269,-0.870385,-24.078591,1.462935,-4.641420
30472,,-0.316199,-5.688469,8.676759,-0.631003,0.861958,-0.816699,-24.446020,1.701198,-5.273787
30473,,-0.624909,-5.712906,8.485047,-0.599677,0.851187,-0.779609,-24.809400,1.956030,-5.885938
30474,,-0.885940,-5.782314,8.046084,-0.496390,0.758078,-0.738092,-25.106037,2.152900,-6.455515
30475,,-0.716170,-5.790912,7.794241,-0.338959,0.682168,-0.681056,-25.320970,2.337891,-6.977991
30476,,-0.618255,-5.683677,7.658330,-0.212803,0.650231,-0.633338,-25.459130,2.502012,-7.468554
30477,,-0.566071,-5.533282,7.602984,-0.118311,0.625970,-0.595284,-25.548190,2.676446,-7.933815
30478,,-0.595521,-5.239895,7.688635,-0.064622,0.586691,-0.566828,-25.605252,2.823572,-8.375016
30479,,-0.609372,-4.807772,7.917201,-0.085617,0.537909,-0.542738,-25.675603,2.964428,-8.791772
30480,,-0.570196,-4.340362,8.064386,-0.182414,0.508031,-0.538365,-25.802483,3.077620,-9.199278
30481,,-0.518900,-4.068060,8.050337,-0.331626,0.504399,-0.553782,-26.015449,3.196480,-9.614079
30482,,-0.604967,-3.805657,7.940909,-0.463907,0.493150,-0.561239,-26.306023,3.293840,-10.030600
30483,,-0.699465,-3.562904,7.725505,-0.599682,0.463429,-0.604750,-26.674988,3.374448,-10.462358
30484,,-0.648485,-3.341295,7.654287,-0.702719,0.426042,-0.663271,-27.105082,3.406524,-10.915064
30485,,-0.585395,-3.181646,7.830008,-0.815480,0.388123,-0.743877,-27.601339,3.405675,-11.399084
30486,,-0.429261,-3.080261,8.071595,-0.938015,0.352771,-0.834646,-28.168852,3.347526,-11.919656
30487,,-0.269954,-3.009161,8.296586,-1.063109,0.347378,-0.921729,-28.810688,3.267960,-12.482069
30488,,-0.064005,-2.878379,8.740124,-1.178958,0.381792,-1.015852,-29.518059,3.162307,-13.100169
30489,,0.185466,-2.761182,9.615158,-1.305358,0.467152,-1.098650,-30.303391,3.077772,-13.782592
30490,,0.280620,-3.222542,9.990539,-1.580794,0.571630,-1.124715,-31.241193,3.015858,-14.506914
30491,,0.070984,-4.383287,9.136525,-1.773401,0.670559,-1.103563,-32.296594,3.006864,-15.249999
30492,,-0.456531,-5.347941,7.860363,-1.679540,0.669709,-1.090828,-33.288005,2.976606,-15.986046
30493,,-0.537427,-5.817010,7.023703,-1.428120,0.578060,-1.094012,-34.142849,2.901354,-16.694336
30494,,-0.048711,-5.824131,7.056069,-1.158686,0.479940,-1.120937,-34.832387,2.750637,-17.382046
30495,,0.494200,-5.405472,7.697511,-0.976531,0.454793,-1.156044,-35.424462,2.579739,-18.076516
30496,,0.571048,-5.171588,8.027580,-0.973526,0.483434,-1.185711,-36.005753,2.393764,-18.792267
30497,,0.130352,-5.179266,7.818533,-1.001115,0.497926,-1.208494,-36.608927,2.210740,-19.521759
30498,,-0.427438,-5.073606,7.409726,-0.945087,0.456038,-1.215329,-37.168332,1.986783,-20.237754
30499,,-0.462515,-4.709181,7.419917,-0.807084,0.375508,-1.212923,-37.653257,1.732489,-20.922760
30500,,0.113522,-3.918622,7.651793,-0.665895,0.312729,-1.262057,-38.044388,1.416152,-21.605686
30501,,0.705563,-3.181065,7.807843,-0.635199,0.299329,-1.351728,-38.424136,1.068529,-22.322229
30502,,1.100161,-3.434516,7.416150,-0.727889,0.335021,-1.440065,-38.840809,0.688814,-23.088476
30503,,1.022514,-4.951525,6.716480,-0.814592,0.388974,-1.452800,-39.314846,0.334035,-23.877015
30504,,0.680811,-7.086475,6.123676,-0.740946,0.413760,-1.365648,-39.727813,0.003312,-24.633326
30505,,0.454593,-8.649866,6.175556,-0.510571,0.379176,-1.205510,-40.019018,-0.275869,-25.304495
30506,,0.447944,-9.526068,6.410671,-0.256762,0.317006,-1.036199,-40.151670,-0.535000,-25.877580
30507,,0.563264,-9.555365,6.743542,-0.033944,0.251795,-0.894966,-40.165886,-0.758563,-26.364324
30508,,0.546833,-9.097708,6.877387,0.063073,0.224804,-0.788996,-40.117531,-0.967284,-26.794801
30509,,0.360961,-8.513701,7.082782,0.059137,0.200402,-0.710128,-40.076779,-1.144648,-27.181837
30510,,0.127735,-8.212064,7.102297,-0.119494,0.171214,-0.608791,-40.135703,-1.309921,-27.513614
30511,,0.008001,-8.335704,6.963764,-0.307002,0.146265,-0.476224,-40.305562,-1.425272,-27.777911
30512,,0.090377,-8.845731,6.777752,-0.417162,0.127240,-0.327673,-40.539794,-1.506356,-27.969771
30513,,0.286487,-9.438549,6.660644,-0.399452,0.110155,-0.173885,-40.765801,-1.526548,-28.088250
30514,,0.394918,-9.805260,6.646642,-0.313930,0.097612,-0.037667,-40.947963,-1.512590,-28.142606
30515,,0.370268,-9.787925,6.591234,-0.214689,0.064159,0.093457,-41.071627,-1.452899,-28.128025
30516,,0.268711,-9.635089,6.494176,-0.128259,0.029321,0.216166,-41.155008,-1.372645,-28.046994
30517,,0.034860,-9.499477,6.365959,-0.028813,-0.009301,0.353872,-41.175335,-1.246391,-27.892503
30518,,0.005713,-9.325411,6.447024,0.062252,-0.049513,0.496711,-41.156188,-1.093551,-27.660702
30519,,0.034379,-9.009107,6.542049,0.182156,-0.085799,0.619963,-41.057307,-0.900244,-27.362378
30520,,0.158117,-8.536636,6.530249,0.284404,-0.130545,0.716114,-40.914426,-0.699868,-27.004730
30521,,0.352443,-8.005732,6.671879,0.363025,-0.165739,0.779936,-40.710850,-0.482851,-26.606128
30522,,0.419055,-7.557016,6.625249,0.397175,-0.188272,0.831498,-40.503398,-0.266476,-26.175475
30523,,0.340485,-7.243634,6.573714,0.429375,-0.227826,0.864866,-40.258967,-0.048034,-25.715147
30524,,0.496006,-6.828644,6.800313,0.488864,-0.246594,0.907200,-39.997019,0.167324,-25.228037
30525,,0.454496,-6.470708,6.859122,0.532581,-0.245428,0.928959,-39.689757,0.397223,-24.731011
30526,,0.374932,-6.243096,6.900308,0.583333,-0.256027,0.932774,-39.370232,0.612605,-24.226950
30527,,0.410663,-6.019752,6.958965,0.609257,-0.256184,0.907971,-39.015303,0.824474,-23.732730
30528,,0.238265,-5.802442,7.066015,0.620926,-0.256881,0.873880,-38.670982,1.012220,-23.252067
30529,,0.177460,-5.478403,7.356066,0.598585,-0.258537,0.840512,-38.319386,1.192945,-22.784659
30530,,0.054172,-5.275057,7.420222,0.548818,-0.263497,0.816666,-38.013315,1.351852,-22.325178
30531,,-0.008748,-5.137191,7.422837,0.523308,-0.253087,0.786521,-37.702791,1.510853,-21.882069
30532,,-0.033100,-5.039384,7.592463,0.473655,-0.243487,0.750906,-37.437275,1.651297,-21.457741
30533,,-0.116633,-5.108856,7.640595,0.400323,-0.235055,0.717903,-37.196073,1.790489,-21.050626
30534,,-0.234922,-5.158537,7.688709,0.351872,-0.240703,0.681506,-36.998236,1.904943,-20.657760
30535,,-0.204524,-5.311807,7.640728,0.337525,-0.256821,0.634614,-36.792386,2.002516,-20.280266
30536,,-0.117151,-5.751767,7.521055,0.389005,-0.241379,0.612727,-36.572105,2.090592,-19.917891
30537,,-0.197831,-6.191264,7.652583,0.488695,-0.192976,0.650607,-36.278835,2.219943,-19.553912
30538,,-0.486959,-6.501131,7.701988,0.616359,-0.183771,0.711652,-35.925633,2.364606,-19.164210
30539,,-0.739726,-6.621553,7.567312,0.757984,-0.227812,0.765119,-35.473453,2.511416,-18.733553
30540,,-0.710402,-6.577513,7.394723,0.822646,-0.318592,0.782936,-34.997297,2.611379,-18.263608
30541,,-0.600623,-6.528816,7.276141,0.856413,-0.400941,0.787751,-34.483970,2.676844,-17.763221
30542,,-0.499756,-6.361784,7.214754,0.879506,-0.477584,0.799990,-33.972338,2.699506,-17.232114
30543,,-0.484123,-6.153279,7.155012,0.891428,-0.544346,0.818218,-33.435602,2.697250,-16.670411
30544,,-0.541696,-5.860983,7.062130,0.897374,-0.603253,0.840899,-32.912011,2.663316,-16.079821
30545,,-0.539278,-5.575268,7.013312,0.821135,-0.666027,0.847834,-32.413834,2.601332,-15.466307
30546,,-0.318701,-5.341733,6.876923,0.731227,-0.685238,0.876838,-31.985464,2.529317,-14.833834
30547,,-0.268142,-5.277859,6.982020,0.643804,-0.680349,0.896969,-31.589163,2.465831,-14.193117
30548,,-0.401188,-5.180795,7.143533,0.546514,-0.682144,0.923756,-31.267711,2.401317,-13.539605
30549,,-0.381598,-5.279571,7.276840,0.446967,-0.708824,0.950311,-30.984272,2.332280,-12.865091
30550,,-0.352226,-5.576196,7.254308,0.396349,-0.714691,0.986768,-30.749176,2.264495,-12.171640
30551,,-0.464894,-5.817532,7.295003,0.421609,-0.737820,1.029876,-30.480045,2.198367,-11.450096
30552,,-0.529812,-5.882625,7.245895,0.470742,-0.793883,1.082616,-30.202278,2.113497,-10.686937
30553,,-0.529449,-5.857753,7.296130,0.501208,-0.864127,1.141452,-29.886426,2.009560,-9.874530
30554,,-0.500464,-5.791683,7.205062,0.522350,-0.955800,1.211247,-29.579311,1.873520,-9.002267
30555,,-0.352534,-5.634064,6.993236,0.560037,-1.063247,1.308691,-29.229286,1.708175,-8.051634
30556,,-0.217447,-5.485377,6.675784,0.566356,-1.164417,1.399630,-28.898831,1.510884,-7.028579
30557,,-0.095207,-5.254822,6.542737,0.532700,-1.269367,1.479041,-28.567652,1.277787,-5.937721
30558,,0.275524,-5.238964,6.478832,0.472471,-1.362399,1.500159,-28.298425,0.997762,-4.812225
30559,,0.758429,-5.582306,6.629425,0.449861,-1.413720,1.485785,-28.024694,0.682702,-3.681498
30560,,1.060889,-5.937921,6.891265,0.481346,-1.427815,1.471428,-27.763741,0.351505,-2.555583
30561,,0.932550,-5.674638,7.310412,0.570952,-1.414720,1.461320,-27.433634,0.018354,-1.440269
30562,,0.480359,-4.774124,7.665248,0.570884,-1.409384,1.475160,-27.135768,-0.314605,-0.320570
30563,,0.098897,-3.906225,7.730493,0.437059,-1.444053,1.481840,-26.895701,-0.668719,0.809452
30564,,0.159538,-3.294106,7.774979,0.170947,-1.510680,1.507490,-26.841227,-1.052468,1.969905
30565,,0.696860,-3.263905,8.002724,-0.146828,-1.580101,1.496845,-26.951899,-1.474563,3.142373
30566,,1.669438,-4.282012,8.459124,-0.337592,-1.545803,1.427729,-27.203260,-1.892152,4.273357
30567,,2.063519,-5.394717,8.891390,-0.242531,-1.393360,1.378501,-27.381406,-2.242144,5.339814
30568,,1.411297,-5.555104,9.482583,-0.022371,-1.303270,1.363646,-27.462056,-2.547332,6.377465
30569,,0.734696,-5.083933,9.891910,0.103712,-1.296862,1.361088,-27.452034,-2.849798,7.411041
30570,,0.379198,-4.525447,9.831722,0.094557,-1.290940,1.341733,-27.475635,-3.153556,8.435264
30571,,0.690596,-3.863389,9.703763,0.033742,-1.285965,1.335177,-27.515774,-3.456644,9.453550
30572,,1.227282,-3.454727,9.471713,-0.066972,-1.265786,1.312942,-27.640016,-3.752426,10.457785
30573,,1.968931,-3.936036,9.492431,-0.190527,-1.284754,1.323811,-27.819001,-4.053782,11.471880
30574,,2.250403,-4.514069,9.844612,-0.119159,-1.177139,1.248769,-27.977688,-4.316600,12.422137
30575,,1.728960,-4.829089,10.101006,0.130708,-1.003711,1.116218,-27.967981,-4.527234,13.257070
30576,,0.854084,-4.844153,10.327598,0.467494,-0.893078,0.980961,-27.779697,-4.719006,13.995435
30577,,0.866417,-4.194197,10.472046,0.658448,-0.848767,0.912190,-27.461078,-4.910297,14.684274
30578,,1.651416,-3.582849,10.286948,0.654019,-0.773444,0.911047,-27.163313,-5.066238,15.353776
30579,,1.994450,-2.993869,10.361603,0.535656,-0.686724,0.933996,-26.915809,-5.176107,16.009758
30580,,2.135338,-2.908833,10.142293,0.321966,-0.684241,0.955372,-26.808809,-5.280738,16.677665
30581,,1.674311,-2.938062,9.897595,0.201418,-0.680759,0.931387,-26.754984,-5.391173,17.330490
30582,,1.689492,-3.606113,9.753139,0.175136,-0.660451,0.849822,-26.726780,-5.512904,17.937821
30583,,1.613562,-3.533754,9.956048,0.206774,-0.555359,0.765298,-26.661013,-5.602901,18.472873
30584,,1.522735,-3.333195,10.147652,0.199896,-0.430195,0.662888,-26.603744,-5.656272,18.924395
30585,,1.342312,-2.495338,10.016446,0.140920,-0.337271,0.575512,-26.561553,-5.684222,19.305465
30586,,1.177911,-1.829932,9.817524,0.010826,-0.238869,0.444944,-26.594984,-5.696087,19.595227
30587,,1.341479,-1.884895,9.581990,-0.095165,-0.178778,0.344907,-26.672418,-5.701762,19.816740
30588,,1.208487,-2.164094,9.356087,-0.283370,-0.145023,0.290084,-26.861379,-5.704824,20.002256
30589,,1.116390,-3.056724,9.097547,-0.247536,-0.117463,0.205844,-27.017474,-5.714106,20.136425
30590,,1.224865,-3.424834,9.167283,-0.173885,-0.115384,0.118430,-27.132335,-5.745967,20.225950
30591,,1.528126,-3.338437,9.144714,-0.166606,-0.103638,0.033487,-27.232970,-5.792754,20.268243
30592,,1.234915,-2.851537,8.992680,-0.166806,-0.053001,-0.085417,-27.330475,-5.846405,20.236950
30593,,1.030735,-2.616831,8.694659,-0.110346,-0.027260,-0.214496,-27.383905,-5.919494,20.132318
30594,,1.109454,-2.422685,8.522597,-0.184646,-0.036766,-0.351061,-27.475348,-6.035222,19.960824
30595,,1.230964,-2.679795,8.338740,-0.273369,-0.047579,-0.475755,-27.608156,-6.188189,19.728316
30596,,1.110828,-2.736254,8.187767,-0.307394,-0.058980,-0.593528,-27.754588,-6.380660,19.439227
30597,,1.007312,-2.749364,7.933666,-0.310493,-0.099218,-0.716517,-27.894823,-6.625325,19.098420
30598,,1.102418,-2.950666,7.633652,-0.292917,-0.146519,-0.842172,-28.017135,-6.930305,18.706760
30599,,1.244765,-3.090002,7.489099,-0.280646,-0.206678,-0.960405,-28.124970,-7.296510,18.271525
30600,,1.275482,-3.242861,7.329298,-0.262477,-0.281340,-1.075474,-28.213338,-7.734239,17.798174
30601,,1.244060,-3.398257,7.188666,-0.219581,-0.369373,-1.194660,-28.269199,-8.247361,17.288297
30602,,1.205481,-3.460255,7.040393,-0.151694,-0.453274,-1.320121,-28.273614,-8.839166,16.736791
30603,,1.262994,-3.441788,6.827813,-0.068393,-0.561615,-1.421924,-28.222074,-9.511007,16.161994
30604,,1.399804,-3.260452,6.713771,0.000198,-0.673750,-1.527488,-28.118022,-10.269243,15.561461
30605,,1.589532,-3.114648,6.492672,0.044496,-0.799181,-1.608759,-27.980147,-11.109581,14.950623
30606,,1.839700,-2.926601,6.313995,0.069720,-0.942997,-1.679966,-27.816185,-12.042278,14.337842
30607,,2.063578,-2.817507,6.089316,0.083137,-1.102122,-1.750895,-27.636653,-13.070759,13.726940
30608,,2.335546,-2.749103,5.934252,0.081944,-1.277515,-1.816412,-27.445950,-14.206148,13.122983
30609,,2.595216,-2.750058,5.928254,0.062633,-1.446987,-1.860585,-27.260678,-15.435105,12.535431
30610,,2.908696,-2.845487,5.933486,0.031051,-1.600117,-1.896573,-27.082397,-16.752709,11.962137
30611,,3.212553,-2.894384,6.021253,-0.027075,-1.743957,-1.924226,-26.932015,-18.146371,11.405902
30612,,3.635414,-2.971206,5.984889,-0.093716,-1.879424,-1.936433,-26.811028,-19.614959,10.871260
30613,,4.089378,-3.039587,5.872326,-0.155228,-2.002556,-1.934546,-26.724418,-21.141346,10.364540
30614,,4.631589,-2.998881,5.815555,-0.253824,-2.089983,-1.914673,-26.689171,-22.711765,9.885006
30615,,5.199446,-3.156798,5.657879,-0.362674,-2.149308,-1.902955,-26.713951,-24.304591,9.423919
30616,,5.576454,-3.331472,5.500150,-0.480966,-2.196269,-1.876624,-26.802179,-25.921699,8.985945
30617,,5.952776,-3.551698,5.493354,-0.611531,-2.246923,-1.846381,-26.970366,-27.551112,8.578952
30618,,6.446853,-3.943223,5.656499,-0.781263,-2.264051,-1.785885,-27.242815,-29.183381,8.212255
30619,,6.878311,-4.462720,5.888672,-0.962954,-2.219545,-1.665073,-27.644008,-30.754459,7.909057
30620,,6.806757,-4.973325,6.054957,-1.157694,-2.200768,-1.521501,-28.195337,-32.290149,7.695240
30621,,6.198697,-5.348059,5.745906,-1.269205,-2.247282,-1.438126,-28.851125,-33.817779,7.562601
30622,,5.092865,-4.917468,5.321086,-1.217205,-2.375016,-1.532135,-29.477045,-35.448318,7.435013
30623,,4.790692,-4.571997,5.254516,-1.071207,-2.516991,-1.744275,-29.977969,-37.199146,7.242961
30624,,5.857331,-4.779874,5.580475,-0.930438,-2.510149,-1.923336,-30.331708,-39.010658,6.949185
30625,,7.577360,-5.545947,6.278117,-0.997574,-2.324774,-1.901560,-30.683390,-40.714317,6.604695
30626,,8.426695,-6.578537,6.739599,-1.144238,-2.070995,-1.746285,-31.121359,-42.260860,6.272172
30627,,7.971661,-6.992867,6.947258,-1.109827,-1.871216,-1.635080,-31.530211,-43.666774,5.937714
30628,,7.429684,-6.775889,6.913451,-0.879238,-1.824435,-1.566122,-31.829162,-45.041831,5.639327
30629,,7.566187,-6.346285,6.227079,-0.710944,-1.855548,-1.525379,-32.051703,-46.409441,5.379958
30630,,7.586002,-5.764133,5.773885,-0.559166,-1.853350,-1.571703,-32.166026,-47.800746,5.092253
30631,,8.173357,-5.112929,6.161859,-0.366922,-1.947578,-1.604987,-32.166555,-49.237998,4.811133
30632,,9.518000,-4.319369,6.886428,-0.275419,-2.069036,-1.504587,-32.216918,-50.713064,4.664089
30633,,10.336490,-3.708788,7.102977,-0.366642,-2.028568,-1.340337,-32.390585,-52.108961,4.616325
30634,,10.262147,-3.401961,6.996959,-0.578394,-1.875638,-1.214708,-32.720029,-53.401737,4.607995
30635,,9.949891,-3.573800,6.833164,-0.794357,-1.703051,-1.111914,-33.168161,-54.570202,4.598167
30636,,9.563984,-3.992179,6.587469,-0.991073,-1.528571,-1.043714,-33.720753,-55.642746,4.574649
30637,,8.976420,-4.695368,6.404770,-1.038546,-1.428450,-0.993465,-34.293149,-56.642748,4.546227
30638,,8.932530,-4.969874,6.093106,-0.806548,-1.463547,-0.887992,-34.851683,-57.632936,4.656423
30639,,9.279370,-4.874107,5.752376,-0.610157,-1.456531,-0.789043,-35.376689,-58.578866,4.861892
30640,,9.186261,-4.745648,5.213834,-0.458436,-1.399068,-0.754113,-35.841402,-59.491670,5.092872
30641,,9.017680,-4.464183,4.836522,-0.247677,-1.348023,-0.757123,-36.159498,-60.374774,5.295337
30642,,9.269854,-4.087149,4.554184,-0.072819,-1.309073,-0.726794,-36.406032,-61.234185,5.525201
30643,,9.392646,-3.808831,4.130351,0.036367,-1.233141,-0.670427,-36.589686,-62.033926,5.756488
30644,,9.403578,-3.472259,3.917587,0.114326,-1.171358,-0.615053,-36.763057,-62.790406,6.021249
30645,,9.340497,-3.222328,3.735539,0.128887,-1.134495,-0.556603,-36.953279,-63.505107,6.316129
30646,,9.318557,-2.925618,3.541086,0.106566,-1.118141,-0.535323,-37.194195,-64.208571,6.647836
30647,,9.304439,-2.319508,3.569821,0.055349,-1.112986,-0.583897,-37.413377,-64.921897,6.924556
30648,,9.389854,-1.659199,3.448978,-0.031003,-1.152876,-0.678040,-37.650392,-65.689743,7.161465
30649,,9.583662,-0.964787,3.304236,-0.102612,-1.201562,-0.793178,-37.847062,-66.515668,7.311170
30650,,9.706306,-0.280414,3.128637,-0.169330,-1.230867,-0.921368,-37.996802,-67.404285,7.364704
30651,,9.906389,0.311341,2.968401,-0.252761,-1.226368,-1.050752,-38.036911,-68.332016,7.250572
30652,,9.923628,0.659082,2.895860,-0.388114,-1.186419,-1.172843,-37.982734,-69.290460,6.951142
30653,,9.919978,0.380957,2.850932,-0.530638,-1.111430,-1.283418,-37.769711,-70.247966,6.399018
30654,,9.715687,-0.037004,2.731469,-0.589145,-1.048469,-1.362441,-37.390288,-71.210471,5.637592
30655,,9.672758,-0.438908,2.500036,-0.602280,-1.021521,-1.420486,-36.837723,-72.171695,4.691032
30656,,9.666162,-0.817579,2.221834,-0.542017,-1.016560,-1.465851,-36.093935,-73.150361,3.585214
30657,,9.878829,-1.156893,1.916793,-0.438503,-1.029184,-1.503029,-35.125152,-74.134595,2.312700
30658,,10.053084,-1.188585,1.631476,-0.306628,-1.041247,-1.526526,-33.905627,-75.133281,0.864765
30659,,10.342054,-1.214766,1.485979,-0.221703,-1.041646,-1.536951,-32.424451,-76.118001,-0.796403
30660,,10.397812,-1.027124,1.509365,-0.194641,-1.015886,-1.530524,-30.671291,-77.084815,-2.714119
30661,,10.528905,-0.760706,1.609595,-0.256153,-0.993897,-1.518107,-28.663759,-78.013511,-4.921273
30662,,10.493205,-0.757376,1.643735,-0.323657,-0.949144,-1.505695,-26.318884,-78.906406,-7.504487
30663,,10.448637,-0.787411,1.636064,-0.393703,-0.931063,-1.483214,-23.640927,-79.752157,-10.460061
30664,,10.281632,-1.016892,1.520579,-0.438265,-0.918552,-1.436230,-20.620161,-80.561786,-13.781354
30665,,10.261117,-1.061608,1.456290,-0.457826,-0.935189,-1.376106,-17.280012,-81.327807,-17.430218
30666,,10.403516,-1.025950,1.516584,-0.522748,-0.922110,-1.302460,-13.585469,-82.047199,-21.467176
30667,,10.510845,-1.114912,1.593457,-0.616975,-0.884806,-1.222925,-9.554170,-82.687342,-25.892112
30668,,10.580077,-1.233934,1.721782,-0.701493,-0.819410,-1.132272,-5.181059,-83.246575,-30.703871
30669,,10.614824,-1.377458,1.792532,-0.736909,-0.747167,-1.034270,-0.587673,-83.706434,-35.753125
30670,,10.556581,-1.582200,1.792314,-0.746378,-0.671331,-0.929366,4.133391,-84.083116,-40.931826
30671,,10.428424,-1.827872,1.820371,-0.691115,-0.611656,-0.817120,8.767430,-84.380556,-45.988439
30672,,10.424260,-1.960660,1.797357,-0.586263,-0.551401,-0.703068,13.231018,-84.620696,-50.810939
30673,,10.393164,-1.794565,1.905860,-0.477377,-0.478176,-0.598371,17.347514,-84.795673,-55.220768
30674,,10.413174,-1.623023,1.935927,-0.398054,-0.397710,-0.495346,20.991789,-84.923146,-59.109786
30675,,10.412188,-1.440484,1.904482,-0.362804,-0.306592,-0.399037,23.983588,-84.998549,-62.322918
30676,,10.263046,-1.280367,1.815403,-0.327048,-0.211767,-0.318642,26.332445,-85.035217,-64.870018
30677,,10.298982,-1.034376,1.669957,-0.280525,-0.135340,-0.250702,28.093782,-85.038698,-66.800374
30678,,10.320799,-0.834271,1.599683,-0.257453,-0.045358,-0.181506,29.174907,-85.015621,-68.035054
30679,,10.285636,-0.590686,1.617278,-0.250608,0.050741,-0.125476,29.624671,-84.955065,-68.631751
30680,,10.327214,-0.315934,1.654093,-0.299030,0.137347,-0.069130,29.429297,-84.870728,-68.609149
30681,,10.278974,-0.469767,1.513335,-0.329881,0.240180,-0.006268,28.580971,-84.748725,-67.948190
30682,,10.107662,-0.678394,1.402239,-0.313840,0.313037,0.045378,27.266584,-84.605815,-66.810361
30683,,10.038836,-0.887848,1.305155,-0.265027,0.361031,0.086766,25.726209,-84.443114,-65.416554
30684,,10.052187,-1.060873,1.128914,-0.173409,0.371107,0.125203,24.061994,-84.283806,-63.845922
30685,,10.112897,-1.015442,1.014170,-0.050237,0.412209,0.164443,22.302864,-84.104244,-62.107746
30686,,10.122763,-0.990111,0.901654,0.061508,0.432527,0.188396,20.508204,-83.916429,-60.269849
30687,,10.192391,-0.787991,0.908842,0.150179,0.444081,0.204334,18.819511,-83.716905,-58.485826
30688,,10.200260,-0.562459,0.854676,0.201019,0.430062,0.214064,17.191862,-83.524150,-56.734403
30689,,10.197340,-0.310535,0.850788,0.226195,0.423909,0.214210,15.733642,-83.326897,-55.137184
30690,,10.095214,-0.399233,0.802215,0.221718,0.410326,0.225254,14.275070,-83.136997,-53.542867
30691,,10.014606,-0.504535,0.857483,0.242702,0.391280,0.231001,12.955632,-82.951339,-52.074679
30692,,9.873443,-0.673503,0.755165,0.234366,0.361547,0.250999,11.589436,-82.783377,-50.565074
30693,,9.803311,-0.727029,0.720595,0.234728,0.330974,0.272211,10.273192,-82.627998,-49.103638
30694,,9.751070,-0.750141,0.762620,0.235091,0.299076,0.294167,8.887168,-82.491146,-47.572765
30695,,9.690693,-0.699470,0.735401,0.252383,0.273537,0.314365,7.547357,-82.363178,-46.076436
30696,,9.629928,-0.684348,0.712256,0.272981,0.256810,0.334776,6.131112,-82.244123,-44.492435
30697,,9.540289,-0.600093,0.768820,0.304563,0.230500,0.343459,4.809508,-82.132984,-42.983479
30698,,9.551051,-0.502524,0.817213,0.335766,0.198563,0.348285,3.474103,-82.038220,-41.444114
30699,,9.558899,-0.301571,0.932504,0.361797,0.174601,0.339045,2.288609,-81.949790,-40.038794
30700,,9.586423,-0.154909,1.033522,0.368728,0.147203,0.330346,1.112031,-81.875394,-38.640236
30701,,9.674413,-0.073821,1.079442,0.362937,0.131852,0.318363,0.063986,-81.803573,-37.372587
30702,,9.728987,-0.063906,1.109317,0.353351,0.120714,0.304546,-0.975205,-81.737229,-36.121301
30703,,9.792198,-0.012188,1.163949,0.348707,0.112044,0.288839,-1.878575,-81.670890,-35.007679
30704,,9.825332,0.036592,1.188383,0.343309,0.101808,0.267088,-2.744995,-81.610562,-33.936451
30705,,9.830746,0.022538,1.230964,0.329176,0.091990,0.246102,-3.468721,-81.552340,-33.015407
30706,,9.849360,0.027222,1.194102,0.320156,0.075053,0.224945,-4.166991,-81.504923,-32.127289
30707,,9.776924,0.064115,1.184944,0.311452,0.065078,0.206929,-4.739411,-81.460662,-31.369285
30708,,9.752244,0.004458,1.222453,0.293731,0.039049,0.188317,-5.309024,-81.433011,-30.626385
30709,,9.753924,-0.022378,1.245926,0.277434,0.020391,0.167228,-5.756329,-81.414319,-30.014520
30710,,9.718407,-0.106006,1.234700,0.259182,0.007943,0.144676,-6.185747,-81.405268,-29.433339
30711,,9.715775,-0.149240,1.243193,0.249538,-0.008429,0.121566,-6.485977,-81.404597,-28.986369
30712,,9.660937,-0.205242,1.246164,0.248800,-0.022499,0.099650,-6.763460,-81.414943,-28.564856
30713,,9.634631,-0.241182,1.256565,0.263990,-0.031263,0.078170,-6.902970,-81.429638,-28.272086
30714,,9.607055,-0.216523,1.216098,0.269896,-0.045857,0.068098,-7.061500,-81.455128,-27.958678
30715,,9.602592,-0.087782,1.234959,0.272392,-0.061601,0.059086,-7.140380,-81.488218,-27.722401
30716,,9.641630,0.015466,1.231850,0.253430,-0.066720,0.046605,-7.238785,-81.527015,-27.479361
30717,,9.645080,0.047768,1.216498,0.227527,-0.069331,0.035293,-7.258867,-81.566127,-27.328576
30718,,9.697167,-0.029372,1.272799,0.194574,-0.071510,0.024583,-7.309877,-81.609291,-27.167541
30719,,9.723988,-0.044242,1.282651,0.168242,-0.072192,0.010465,-7.271196,-81.651817,-27.110532
30720,,9.702560,-0.097795,1.330245,0.140003,-0.078281,-0.003862,-7.246587,-81.700961,-27.057519
30721,,9.796014,-0.186355,1.344862,0.121883,-0.083651,-0.007434,-7.170466,-81.751299,-27.065213
30722,,9.787357,-0.270651,1.342822,0.104182,-0.088312,-0.022073,-7.098703,-81.807462,-27.080563
30723,,9.807317,-0.336399,1.348548,0.107587,-0.085870,-0.023891,-6.965517,-81.860212,-27.154194
30724,,9.827312,-0.401823,1.354567,0.105399,-0.084616,-0.027886,-6.866225,-81.914635,-27.196635
30725,,9.814119,-0.505763,1.341409,0.116305,-0.083765,-0.026169,-6.715391,-81.966297,-27.283040
30726,,9.786797,-0.519623,1.326358,0.131068,-0.081616,-0.022135,-6.621588,-82.018540,-27.305089
30727,,9.825980,-0.608996,1.317447,0.147600,-0.079575,-0.018261,-6.480465,-82.067249,-27.363575
30728,,9.781583,-0.611644,1.340337,0.162409,-0.074000,-0.014452,-6.396012,-82.114571,-27.358080
30729,,9.773429,-0.604904,1.280816,0.168972,-0.065601,-0.005944,-6.285095,-82.154513,-27.373713
30730,,9.791204,-0.613925,1.238496,0.183539,-0.066303,-0.003795,-6.229529,-82.196697,-27.326877
30731,,9.775059,-0.599956,1.270664,0.194077,-0.054494,0.007549,-6.154560,-82.229472,-27.291722
30732,,9.742357,-0.637169,1.248080,0.215905,-0.048027,0.009929,-6.130818,-82.260351,-27.194101
30733,,9.747773,-0.569670,1.225815,0.224292,-0.043144,0.018471,-6.079267,-82.286001,-27.117862
30734,,9.771962,-0.572183,1.218996,0.236482,-0.035616,0.028538,-6.118412,-82.308618,-26.944938
30735,,9.731749,-0.512007,1.227355,0.242465,-0.030260,0.031758,-6.107269,-82.326115,-26.817441
30736,,9.753475,-0.503750,1.200301,0.249317,-0.027903,0.041981,-6.194528,-82.343434,-26.588602
30737,,9.741776,-0.426452,1.216157,0.252969,-0.019998,0.040408,-6.210118,-82.354524,-26.428085
30738,,9.784956,-0.410256,1.164105,0.246705,-0.022015,0.045977,-6.314868,-82.368136,-26.183149
30739,,9.797127,-0.336442,1.175474,0.250093,-0.016988,0.042555,-6.340567,-82.377327,-26.014118
30740,,9.776147,-0.256663,1.137417,0.234844,-0.013364,0.033403,-6.395612,-82.386750,-25.826215
30741,,9.800569,-0.106365,1.160614,0.216107,-0.010830,0.025341,-6.365009,-82.393510,-25.733655
30742,,9.859925,-0.125865,1.226666,0.186024,-0.003862,0.012486,-6.354015,-82.398893,-25.640596
30743,,9.914972,-0.076737,1.218721,0.161451,-0.001209,0.001505,-6.248575,-82.401690,-25.655147
30744,,9.881791,-0.004212,1.260298,0.134810,0.002101,-0.011406,-6.161095,-82.405204,-25.668834
30745,,9.879964,0.165272,1.266617,0.102688,0.010732,-0.039386,-5.909173,-82.403651,-25.865144
30746,,9.836841,0.198502,1.287429,0.065464,0.020260,-0.051130,-5.681802,-82.399114,-26.060001
30747,,9.817172,0.185317,1.336509,0.008819,0.021805,-0.073515,-5.333705,-82.392885,-26.407619
30748,,9.806892,0.106117,1.349418,-0.041251,0.035297,-0.087839,-5.003410,-82.381382,-26.767947
30749,,9.832337,-0.054291,1.343345,-0.074409,0.040055,-0.095464,-4.604571,-82.365221,-27.214904
30750,,9.855738,-0.202893,1.316213,-0.090897,0.046891,-0.099296,-4.251295,-82.346955,-27.627109
30751,,9.860356,-0.282579,1.272774,-0.096228,0.051959,-0.099889,-3.846504,-82.323390,-28.092738
30752,,9.874383,-0.364271,1.283254,-0.100877,0.053308,-0.094741,-3.520531,-82.300566,-28.483207
30753,,9.862378,-0.432302,1.276405,-0.102741,0.052385,-0.081411,-3.202455,-82.275394,-28.865162
30754,,9.821947,-0.519533,1.262775,-0.094666,0.057933,-0.075007,-2.959948,-82.248759,-29.167881
30755,,9.790763,-0.565104,1.271514,-0.083994,0.060431,-0.061717,-2.716551,-82.217957,-29.463687
30756,,9.754974,-0.588492,1.237869,-0.066430,0.065134,-0.050598,-2.563676,-82.186229,-29.659698
30757,,9.713501,-0.569453,1.284560,-0.057566,0.064322,-0.036885,-2.411658,-82.152340,-29.848039
30758,,9.729911,-0.579677,1.254030,-0.056206,0.067126,-0.026209,-2.357884,-82.118757,-29.938182
30759,,9.698446,-0.629798,1.263480,-0.048800,0.067975,-0.009736,-2.314606,-82.082075,-30.011716
30760,,9.719290,-0.620938,1.244360,-0.035571,0.067687,-0.004018,-2.342729,-82.047630,-30.007308
30761,,9.735636,-0.633771,1.213919,-0.014949,0.061683,0.004228,-2.338906,-82.014224,-30.021445
30762,,9.767754,-0.594858,1.238296,0.003331,0.065037,0.007163,-2.392226,-81.981044,-29.969148
30763,,9.784942,-0.510840,1.289235,0.005848,0.063295,0.013265,-2.412792,-81.946501,-29.946638
30764,,9.814790,-0.460920,1.292448,0.006026,0.064070,0.014568,-2.495173,-81.913683,-29.863474
30765,,9.822918,-0.419761,1.320955,0.000482,0.061515,0.013187,-2.518262,-81.880155,-29.841532
30766,,9.824192,-0.432817,1.348275,-0.004734,0.060516,0.014410,-2.606546,-81.849349,-29.758657
30767,,9.840610,-0.446691,1.317616,-0.005052,0.058959,0.011805,-2.627215,-81.817315,-29.742375
30768,,9.796454,-0.420727,1.342604,-0.005119,0.060278,0.011024,-2.702087,-81.786703,-29.673295
30769,,9.795347,-0.466274,1.379734,0.001628,0.054868,0.008095,-2.704633,-81.757107,-29.671470
