// Start Time: Unknown
// Update Rate: 100.0Hz
// Filter Profile: human (46.1)
// Firmware Version: 4.3.5
PacketCounter,SampleTimeFine,Acc_X,Acc_Y,Acc_Z,Gyr_X,Gyr_Y,Gyr_Z,Roll,Pitch,Yaw
25291,,9.135941,-2.381029,3.092285,-0.002864,0.002381,-0.022380,-37.607955,-66.865065,0.376191
25292,,9.136427,-2.378821,3.092549,-0.002160,0.004689,-0.027652,-37.583865,-66.871807,0.094057
25293,,9.135595,-2.400402,3.088256,-0.002883,0.002747,-0.025773,-37.579969,-66.872827,0.205636
25294,,9.136086,-2.398194,3.088518,-0.002143,0.004317,-0.024259,-37.551865,-66.879341,0.173742
25295,,9.124601,-2.406733,3.017455,-0.006847,0.007550,-0.023228,-37.512694,-66.883522,0.118788
25296,,9.115905,-2.414310,3.070696,-0.008376,0.002699,-0.026418,-37.487151,-66.891509,0.085799
25297,,9.154369,-2.443942,3.094138,-0.008292,0.003665,-0.019469,-37.456047,-66.895832,0.038353
25298,,9.149400,-2.435630,3.061082,0.000724,0.007193,-0.018524,-37.430006,-66.899012,0.010492
25299,,9.151041,-2.409842,3.066168,0.005383,0.002255,-0.019716,-37.393973,-66.904032,-0.033090
25300,,9.135715,-2.434709,3.081495,0.004735,0.004091,-0.020908,-37.365598,-66.909442,-0.060987
25301,,9.176723,-2.416206,3.114555,0.002719,0.005823,-0.021413,-37.334705,-66.913822,-0.095875
25302,,9.153409,-2.379892,3.072279,0.002044,0.005586,-0.019373,-37.308270,-66.918006,-0.123338
25303,,9.136689,-2.428849,3.083230,-0.000666,0.007450,-0.021231,-37.279414,-66.921561,-0.157809
25304,,9.167025,-2.397252,3.049531,-0.002664,0.008814,-0.018342,-37.254134,-66.923906,-0.186948
25305,,9.137078,-2.425549,3.084675,-0.001971,0.008681,-0.016989,-37.229163,-66.925276,-0.219719
25306,,9.138506,-2.400016,3.090073,-0.003312,0.010648,-0.019534,-37.201476,-66.927186,-0.251877
25307,,9.171437,-2.423249,3.080741,-0.006770,0.008498,-0.016282,-37.183749,-66.928257,-0.278602
25308,,9.159638,-2.377096,3.110162,-0.005987,0.011776,-0.014605,-37.161954,-66.927938,-0.306020
25309,,9.167442,-2.390416,3.053641,-0.012065,0.014897,-0.012889,-37.138650,-66.924271,-0.348209
25310,,9.167324,-2.389650,3.054595,-0.015540,0.013113,-0.013031,-37.122938,-66.922788,-0.374968
25311,,9.182938,-2.362057,3.040440,-0.016954,0.011303,-0.012506,-37.116269,-66.921599,-0.396603
25312,,9.152727,-2.391541,3.075448,-0.020323,0.012560,-0.008931,-37.108147,-66.918947,-0.418089
25313,,9.147360,-2.384437,3.042687,-0.018972,0.013030,-0.013011,-37.093718,-66.916599,-0.456216
25314,,9.079173,-2.382349,3.054201,-0.021122,0.009646,-0.014003,-37.082981,-66.917028,-0.481045
25315,,9.072707,-2.399041,3.016500,-0.013596,0.007601,-0.009456,-37.084359,-66.917441,-0.492624
25316,,9.106862,-2.398946,3.011462,-0.004058,0.006635,-0.014421,-37.065839,-66.919388,-0.515281
25317,,9.124250,-2.449082,3.016738,0.006822,0.003704,-0.016841,-37.052282,-66.925859,-0.532326
25318,,9.180858,-2.403602,3.034939,0.013579,0.000823,-0.020596,-37.021722,-66.932591,-0.557084
25319,,9.178627,-2.346446,3.011102,0.012176,0.001449,-0.026697,-37.000226,-66.939169,-0.582353
25320,,9.164833,-2.346627,3.030839,0.005947,-0.000183,-0.028863,-36.965931,-66.949197,-0.615924
25321,,9.152345,-2.322665,3.055078,0.001157,0.002064,-0.034783,-36.948874,-66.964572,-0.637186
25322,,9.149476,-2.391785,3.041037,-0.012660,-0.004113,-0.028410,-36.928871,-66.976234,-0.666794
25323,,9.135774,-2.392706,3.059985,-0.011189,-0.000966,-0.025378,-36.927546,-66.988169,-0.683783
25324,,9.109100,-2.428236,3.002976,-0.009128,-0.000991,-0.024710,-36.906937,-66.997121,-0.711848
25325,,9.075602,-2.425767,3.008142,-0.007049,-0.001381,-0.020649,-36.911003,-67.010386,-0.721063
25326,,9.096956,-2.403891,3.026534,-0.006315,0.000192,-0.019133,-36.893810,-67.016877,-0.743665
25327,,9.131438,-2.403082,3.021012,-0.004887,0.001637,-0.016263,-36.904464,-67.022573,-0.746051
25328,,9.118534,-2.380894,3.045104,-0.006256,0.001529,-0.015577,-36.889973,-67.027235,-0.765685
25329,,9.120072,-2.355671,3.049640,-0.013134,0.001723,-0.018934,-36.907735,-67.033182,-0.763938
25330,,9.117954,-2.402666,3.040404,-0.015713,0.005889,-0.010286,-36.900843,-67.034029,-0.781197
25331,,9.116993,-2.425723,3.035857,-0.013093,0.003426,-0.018771,-36.920714,-67.040251,-0.774850
25332,,9.132960,-2.397241,3.021052,-0.004905,0.002001,-0.019657,-36.900676,-67.046096,-0.799644
25333,,9.146645,-2.416421,2.997025,-0.005598,0.002129,-0.021010,-36.917742,-67.051337,-0.793001
25334,,9.152344,-2.421487,3.030444,-0.006315,0.000187,-0.019134,-36.900566,-67.057827,-0.815550
25335,,9.167205,-2.416907,3.010850,-0.005622,0.000057,-0.017780,-36.924197,-67.064938,-0.803185
25336,,9.167578,-2.415609,3.010757,-0.007625,0.001415,-0.014891,-36.911382,-67.069366,-0.821812
25337,,9.139074,-2.420633,3.049574,-0.011749,0.001455,-0.016227,-36.942829,-67.076339,-0.803120
25338,,9.080310,-2.408787,3.007578,-0.010958,0.004368,-0.011153,-36.933604,-67.078123,-0.819897
25339,,9.093745,-2.429254,2.983327,-0.019250,0.000306,-0.007365,-36.980178,-67.084582,-0.789058
25340,,9.150566,-2.488103,3.015741,-0.017784,0.003456,-0.004331,-36.983032,-67.084450,-0.796937
25341,,9.132085,-2.460542,3.006211,-0.017149,0.001989,-0.006534,-37.031493,-67.089214,-0.763543
25342,,9.136295,-2.491152,3.034791,-0.015087,0.001969,-0.005866,-37.032394,-67.090305,-0.771836
25343,,9.161162,-2.454052,2.966805,-0.010368,-0.001241,-0.006898,-37.082590,-67.091246,-0.736116
25344,,9.147004,-2.456821,2.985735,-0.010447,-0.004650,-0.007226,-37.084806,-67.095811,-0.740085
25345,,9.147280,-2.456582,2.985088,-0.013145,-0.003165,-0.005690,-37.140382,-67.099943,-0.700185
25346,,9.147492,-2.456558,2.984456,-0.013820,-0.003404,-0.003651,-37.147413,-67.102707,-0.701009
25347,,9.152847,-2.463725,3.017271,-0.015807,-0.002416,0.002632,-37.210156,-67.106807,-0.656827
25348,,9.145491,-2.505355,2.973573,-0.015984,-0.008867,-0.001420,-37.225316,-67.111345,-0.650161
25349,,9.149044,-2.434166,2.986562,-0.012437,-0.006104,0.005678,-37.300388,-67.106572,-0.594214
25350,,9.152103,-2.489757,3.009708,-0.011784,-0.007938,0.006867,-37.321330,-67.107728,-0.578694
25351,,9.127177,-2.480246,2.961468,-0.008273,-0.004438,0.007178,-37.388571,-67.105746,-0.531242
25352,,9.152130,-2.491490,3.008191,-0.003554,-0.007646,0.006144,-37.403722,-67.107016,-0.516931
25353,,9.155636,-2.420456,3.021309,-0.008393,-0.009552,0.006683,-37.473694,-67.103419,-0.473594
25354,,9.150391,-2.414551,2.987083,-0.010295,-0.002715,0.006677,-37.489078,-67.102230,-0.463320
25355,,9.170062,-2.419124,3.000351,-0.008354,-0.007849,0.006848,-37.557432,-67.101056,-0.417219
25356,,9.181751,-2.409810,3.071090,-0.019220,-0.002879,0.006047,-37.577297,-67.100155,-0.407687
25357,,9.183263,-2.442111,2.974617,-0.020589,-0.002990,0.006733,-37.647168,-67.102284,-0.360384
25358,,9.202802,-2.447191,2.987874,-0.020530,-0.001658,0.010292,-37.671317,-67.099389,-0.347006
25359,,9.188235,-2.451926,3.006524,-0.019917,-0.005198,0.011313,-37.740867,-67.101449,-0.308212
25360,,9.193364,-2.460248,3.039181,-0.011646,-0.003202,0.010755,-37.761571,-67.099183,-0.293095
25361,,9.209935,-2.410591,3.028487,-0.011687,-0.004907,0.010589,-37.843256,-67.089466,-0.214728
25362,,9.205703,-2.381150,2.999064,-0.009624,-0.004927,0.011256,-37.864915,-67.087602,-0.197282
25363,,9.189883,-2.409777,3.013354,-0.014936,0.001447,0.014666,-37.945338,-67.079413,-0.116479
25364,,9.211558,-2.367223,3.036496,-0.013627,0.000224,0.010421,-37.964310,-67.075375,-0.104344
25365,,9.196935,-2.371636,3.055626,-0.017078,0.000506,0.007047,-38.025403,-67.071041,-0.060034
25366,,9.191481,-2.365845,3.021918,-0.018424,0.002471,0.004507,-38.038959,-67.068021,-0.056761
25367,,9.191307,-2.366816,3.021685,-0.020487,0.002491,0.003840,-38.091257,-67.069189,-0.020515
25368,,9.157044,-2.367116,3.027042,-0.017709,0.004416,0.002635,-38.100821,-67.065979,-0.021093
25369,,9.162200,-2.374660,3.060287,-0.019179,0.001270,-0.000406,-38.152937,-67.060304,0.018552
25370,,9.151606,-2.361139,2.993425,-0.014967,0.007090,-0.005355,-38.150295,-67.058584,0.006448
25371,,9.173491,-2.317103,3.017202,-0.019727,0.008590,-0.004483,-38.174638,-67.052985,-0.003383
25372,,9.199990,-2.358507,2.968847,-0.025381,0.004154,-0.012419,-38.172760,-67.055063,-0.021242
25373,,9.180453,-2.354294,2.954841,-0.024625,0.007804,-0.014123,-38.194223,-67.053460,-0.025409
25374,,9.180625,-2.353613,2.954848,-0.030179,0.006400,-0.018333,-38.186908,-67.056550,-0.052196
25375,,9.146776,-2.352329,2.960182,-0.031548,0.006284,-0.017647,-38.211307,-67.057430,-0.051673
25376,,9.086882,-2.364386,2.913175,-0.030936,0.002741,-0.016631,-38.209350,-67.061473,-0.073112
25377,,9.050861,-2.410720,2.908765,-0.025439,0.005271,-0.022597,-38.221674,-67.070118,-0.082032
25378,,9.117330,-2.457930,2.887821,-0.011278,-0.004332,-0.025722,-38.204730,-67.080552,-0.107492
25379,,9.177110,-2.467004,2.929136,-0.004415,-0.004143,-0.025757,-38.213680,-67.089515,-0.105500
25380,,9.187164,-2.454058,2.875757,0.007093,-0.008103,-0.033789,-38.180810,-67.104405,-0.136813
25381,,9.175104,-2.429676,2.899216,0.012391,-0.014093,-0.040600,-38.168538,-67.130770,-0.150050
25382,,9.176634,-2.425458,2.897904,0.010845,-0.020653,-0.043983,-38.133086,-67.154937,-0.181803
25383,,9.164171,-2.423983,2.915183,0.008469,-0.031825,-0.052618,-38.125890,-67.188922,-0.195592
25384,,9.159079,-2.459771,2.868945,0.002047,-0.042015,-0.055633,-38.100831,-67.226787,-0.221540
25385,,9.124181,-2.471070,2.956125,-0.002484,-0.058674,-0.062048,-38.107785,-67.277696,-0.233250
25386,,9.025618,-2.590307,2.976197,0.006016,-0.074813,-0.069898,-38.092570,-67.335383,-0.246107
25387,,8.917703,-2.687424,3.144069,0.031527,-0.092751,-0.088379,-38.097960,-67.403255,-0.219058
25388,,8.830572,-2.864307,3.219561,0.070561,-0.120912,-0.104584,-38.047352,-67.493842,-0.230116
25389,,8.863016,-3.082951,3.373547,0.150112,-0.141898,-0.128753,-37.975090,-67.593969,-0.227810
25390,,8.894966,-3.162377,3.610376,0.254444,-0.159344,-0.148093,-37.803359,-67.717108,-0.255939
25391,,8.920270,-3.244963,3.902948,0.361760,-0.163449,-0.164181,-37.585625,-67.835358,-0.286499
25392,,8.956117,-3.404419,4.252804,0.488216,-0.169391,-0.176653,-37.253664,-67.972847,-0.343030
25393,,8.990588,-3.245886,4.686090,0.588722,-0.132508,-0.180102,-36.855198,-68.092117,-0.418819
25394,,8.845556,-3.143478,5.107130,0.655662,-0.093945,-0.178288,-36.355625,-68.195338,-0.552429
25395,,8.882324,-3.112322,5.380581,0.709499,-0.048299,-0.184729,-35.804773,-68.245374,-0.713404
25396,,8.985457,-3.247261,5.654950,0.784518,0.008702,-0.199635,-35.114800,-68.306700,-0.972374
25397,,9.071998,-3.373840,5.960199,0.881464,0.079823,-0.218089,-34.305345,-68.298612,-1.291076
25398,,9.129491,-3.395559,6.331551,0.980982,0.152115,-0.238126,-33.337391,-68.301196,-1.727940
25399,,9.198774,-3.330733,6.915950,1.072273,0.238996,-0.260044,-32.224945,-68.205340,-2.265746
25400,,9.273529,-3.109692,7.384278,1.100626,0.331981,-0.276999,-31.009058,-68.125605,-2.896275
25401,,9.244649,-2.873781,7.609502,1.049020,0.427631,-0.285836,-29.732853,-67.942159,-3.599020
25402,,9.446193,-2.909681,7.806408,0.944825,0.525359,-0.287177,-28.479660,-67.758531,-4.367437
25403,,9.750088,-2.945404,7.944227,0.826360,0.629108,-0.273162,-27.214031,-67.457974,-5.192998
25404,,10.019818,-2.912643,8.052045,0.686002,0.745835,-0.248378,-26.059711,-67.139657,-6.017866
25405,,10.234003,-2.913071,8.106597,0.508590,0.873025,-0.202249,-24.968621,-66.666961,-6.831548
25406,,10.296001,-3.141480,8.018980,0.308967,1.006106,-0.146168,-24.069453,-66.177632,-7.618854
25407,,10.398249,-3.707187,7.896491,0.140110,1.133206,-0.065958,-23.268032,-65.535837,-8.321338
25408,,10.609297,-4.571118,7.894060,0.052578,1.250700,0.063263,-22.704751,-64.863162,-8.907621
25409,,10.898249,-5.337317,7.997206,0.067388,1.379735,0.221150,-22.232013,-64.007465,-9.296435
25410,,11.250611,-5.861606,7.930813,0.155349,1.510715,0.412008,-21.928310,-63.118611,-9.534783
25411,,11.512706,-6.184624,7.919231,0.284231,1.649514,0.626420,-21.748050,-61.968860,-9.510130
25412,,11.599423,-6.261763,8.020533,0.416908,1.793318,0.861298,-21.652948,-60.833750,-9.344893
25413,,11.588541,-6.175985,7.957061,0.507372,1.931927,1.099656,-21.716060,-59.421885,-8.894703
25414,,11.598318,-6.030022,7.677874,0.568771,2.047678,1.332961,-21.840898,-58.051036,-8.365896
25415,,11.825074,-5.963638,7.678488,0.588426,2.162295,1.570075,-22.135921,-56.413614,-7.626128
25416,,11.957329,-5.858308,7.689400,0.572281,2.278049,1.804677,-22.481397,-54.815530,-6.808637
25417,,12.038743,-5.990894,7.834527,0.532123,2.400537,2.023678,-22.976164,-52.950794,-5.840897
25418,,12.148492,-6.193274,7.953745,0.437883,2.525168,2.259065,-23.516961,-51.112468,-4.835101
25419,,12.068011,-6.397378,8.043150,0.332683,2.643649,2.487484,-24.214776,-49.009124,-3.709147
25420,,11.970740,-6.761558,8.092807,0.279998,2.745154,2.693376,-24.886221,-46.939107,-2.587693
25421,,11.761323,-7.331522,7.949675,0.298580,2.831925,2.885492,-25.605407,-44.633763,-1.391258
25422,,11.597706,-8.005706,7.731713,0.425111,2.887486,3.074973,-26.179935,-42.377850,-0.201187
25423,,11.618473,-8.496788,7.624069,0.650751,2.925456,3.243009,-26.678795,-39.928095,1.057557
25424,,11.767338,-8.764619,7.470259,0.956107,2.953198,3.392607,-26.910303,-37.543202,2.304963
25425,,12.077331,-8.578900,7.525602,1.282848,2.997089,3.518216,-26.999999,-34.991240,3.603014
25426,,12.139967,-8.029058,7.593767,1.507300,3.061312,3.645176,-26.848768,-32.483379,4.888013
25427,,11.903676,-7.479652,7.537343,1.602091,3.121238,3.778355,-26.694854,-29.823485,6.232750
25428,,11.467800,-6.921128,7.307864,1.561826,3.155546,3.911606,-26.448675,-27.205649,7.594301
25429,,10.995738,-6.634659,7.190578,1.450201,3.160869,4.029400,-26.313455,-24.491706,9.016604
25430,,10.421310,-6.096622,7.181186,1.248970,3.131701,4.139597,-26.167628,-21.835295,10.468356
25431,,9.868351,-5.548689,7.285110,0.951942,3.091685,4.256931,-26.230526,-19.126015,11.978770
25432,,9.223870,-5.484614,7.204847,0.632765,3.031485,4.366094,-26.339992,-16.462545,13.527296
25433,,8.715963,-6.165074,6.972289,0.434862,2.932514,4.446709,-26.585936,-13.801042,15.115056
25434,,8.290456,-7.068390,6.681852,0.411409,2.815394,4.525947,-26.702617,-11.197964,16.748913
25435,,7.976217,-7.759996,6.330890,0.568220,2.692305,4.588961,-26.750730,-8.634473,18.421502
25436,,7.718002,-7.975475,5.945213,0.807139,2.584229,4.646963,-26.509283,-6.119112,20.152977
25437,,7.219768,-7.754822,5.578919,1.059840,2.483610,4.698087,-26.148670,-3.663919,21.925193
25438,,6.552130,-7.218654,5.372422,1.255464,2.373831,4.737600,-25.507532,-1.258726,23.778359
25439,,6.028763,-6.659259,5.406176,1.344346,2.257749,4.767719,-24.845564,1.045527,25.675107
25440,,5.643228,-6.091589,5.458497,1.356256,2.155211,4.802821,-23.991222,3.305828,27.672442
25441,,5.099370,-5.552335,5.403694,1.320609,2.051024,4.808110,-23.190510,5.445898,29.698409
25442,,4.677514,-5.477795,5.296594,1.298442,1.947145,4.806904,-22.204914,7.536156,31.823081
25443,,4.267052,-5.508934,5.037233,1.358995,1.845362,4.781369,-21.224465,9.485227,33.957846
25444,,3.837996,-5.598306,4.758939,1.510196,1.746281,4.748379,-19.953487,11.376826,36.190381
25445,,3.477930,-5.552647,4.641065,1.714087,1.654566,4.715940,-18.615807,13.113036,38.427159
25446,,2.914624,-4.928663,4.376701,1.901134,1.570044,4.683486,-16.958393,14.787487,40.777413
25447,,2.233759,-4.008243,4.053963,1.991861,1.466663,4.650667,-15.310624,16.283681,43.129428
25448,,1.532197,-3.151659,3.804830,1.981194,1.332967,4.607773,-13.450809,17.677234,45.605506
25449,,0.993542,-2.530721,3.771244,1.948532,1.183165,4.544880,-11.690489,18.858795,48.056758
25450,,0.721160,-2.161823,4.013940,1.943937,1.033612,4.471072,-9.728013,19.914676,50.608909
25451,,0.775767,-2.171878,4.399665,1.970531,0.923980,4.393090,-7.855263,20.783535,53.101093
25452,,0.852172,-2.170903,4.563998,2.000206,0.845472,4.336568,-5.774448,21.557204,55.685379
25453,,0.672266,-1.705449,4.538288,2.044407,0.777291,4.271004,-3.789794,22.172934,58.195529
25454,,0.473988,-0.986652,4.467999,2.052470,0.704960,4.196442,-1.628811,22.687784,60.773233
25455,,0.184144,-0.078511,4.459151,2.018055,0.646385,4.133149,0.375394,23.059027,63.261028
25456,,-0.035150,0.500723,4.624740,1.957463,0.579841,4.055441,2.497208,23.330557,65.797124
25457,,0.007281,0.634077,4.928897,1.902898,0.530566,3.979808,4.437116,23.478459,68.222432
25458,,0.177813,0.757085,5.239394,1.901110,0.504980,3.892958,6.505740,23.551388,70.673649
25459,,0.361113,0.975741,5.457353,1.891988,0.510870,3.820481,8.415554,23.545215,73.012326
25460,,0.370562,1.264744,5.542056,1.857916,0.539151,3.754562,10.426846,23.495387,75.381460
25461,,0.367621,1.701785,5.625298,1.794312,0.555242,3.697612,12.252890,23.381837,77.648567
25462,,0.278008,2.354117,5.786660,1.662857,0.574365,3.641050,14.113868,23.224011,79.941198
25463,,0.162471,2.964300,5.773981,1.474904,0.588528,3.585953,15.722167,23.014169,82.135472
25464,,0.058389,3.431675,5.793894,1.266649,0.594192,3.528897,17.308066,22.763357,84.343839
25465,,-0.165528,3.612995,5.748283,1.071317,0.574922,3.475443,18.641682,22.456837,86.454125
25466,,-0.223212,3.736484,5.737054,0.904335,0.550492,3.418854,19.960857,22.104604,88.563715
25467,,-0.217326,3.812543,5.822490,0.772377,0.534149,3.366419,21.071635,21.711106,90.581777
25468,,-0.194983,4.043981,6.045968,0.619035,0.512069,3.324276,22.166952,21.279682,92.599866
25469,,-0.330823,4.286830,6.215093,0.439958,0.498622,3.278775,23.036473,20.817667,94.537714
25470,,-0.452715,4.458050,6.436231,0.253516,0.473947,3.235759,23.861333,20.326637,96.468592
25471,,-0.465019,4.537470,6.585198,0.077107,0.446562,3.184590,24.468290,19.809244,98.320388
25472,,-0.493157,4.709054,6.704590,-0.071097,0.428105,3.120969,25.041147,19.280823,100.151218
25473,,-0.582382,4.867640,6.832546,-0.185899,0.404689,3.046699,25.436885,18.741780,101.899217
25474,,-0.618622,4.904974,6.958608,-0.261908,0.382421,2.964452,25.830671,18.202145,103.612299
25475,,-0.656793,4.955836,7.107756,-0.310445,0.370580,2.879803,26.094350,17.665491,105.247354
25476,,-0.627245,5.064097,7.338508,-0.333914,0.353749,2.788802,26.380957,17.138520,106.841819
25477,,-0.667712,5.282712,7.558102,-0.356121,0.345061,2.702732,26.561946,16.618987,108.364690
25478,,-0.684329,5.703509,7.681131,-0.419743,0.338816,2.604563,26.739459,16.120766,109.844102
25479,,-0.717221,6.146709,7.854416,-0.531243,0.326189,2.504590,26.767439,15.634058,111.249638
25480,,-0.910092,6.540826,7.959932,-0.686350,0.300498,2.398794,26.734257,15.166824,112.601563
25481,,-1.014864,6.757876,8.238094,-0.870931,0.269687,2.286256,26.517209,14.708762,113.874470
25482,,-1.067668,6.766597,8.416677,-1.060896,0.226470,2.173850,26.213302,14.269548,115.085136
25483,,-1.056645,6.609688,8.604266,-1.232384,0.191346,2.056125,25.742553,13.841534,116.218578
25484,,-1.226247,6.213658,8.994521,-1.341894,0.142692,1.942868,25.226738,13.434006,117.287345
25485,,-1.294805,5.894963,9.211397,-1.406811,0.080877,1.836041,24.613549,13.020917,118.281923
25486,,-1.411197,5.925984,9.631245,-1.420111,0.034953,1.726256,24.007694,12.629598,119.213395
25487,,-1.580751,6.049454,9.847173,-1.431087,-0.017298,1.600372,23.340453,12.239533,120.065417
25488,,-1.590217,6.181980,9.882135,-1.445539,-0.063037,1.456370,22.674047,11.877740,120.835008
25489,,-1.471312,6.170278,9.972419,-1.465990,-0.105742,1.303543,21.945543,11.524762,121.514670
25490,,-1.408755,6.031190,9.910439,-1.499814,-0.133100,1.148475,21.204395,11.209438,122.108921
25491,,-1.447057,6.016038,9.862046,-1.510036,-0.163649,0.983698,20.413689,10.907328,122.610557
25492,,-1.521687,5.836889,9.727178,-1.494023,-0.197307,0.805637,19.633671,10.640591,123.011378
25493,,-1.287319,5.509438,9.677948,-1.396433,-0.230894,0.600677,18.868874,10.387403,123.297243
25494,,-0.974569,5.030277,9.790336,-1.228154,-0.265844,0.397964,18.196480,10.168015,123.466569
25495,,-0.620666,4.834472,10.118051,-0.996327,-0.258812,0.169190,17.621285,9.981212,123.514590
25496,,-0.722010,4.475522,10.195727,-0.643477,-0.246391,-0.090069,17.237479,9.859465,123.420535
25497,,-0.529016,4.779299,10.356530,-0.220064,-0.250366,-0.382312,17.058484,9.769207,123.166689
25498,,-0.406457,5.931622,10.703129,0.124618,-0.216003,-0.682099,17.060224,9.763025,122.749604
25499,,-0.056721,6.746463,11.037504,0.244817,-0.187338,-0.978724,17.097770,9.805051,122.176188
25500,,0.319067,6.741290,11.198738,0.212228,-0.144386,-1.269570,17.095052,9.937316,121.444650
25501,,0.590793,6.249361,11.154905,0.196791,-0.077251,-1.575936,17.054633,10.136600,120.559069
25502,,0.707468,5.673638,10.880047,0.280442,-0.018638,-1.889296,17.027769,10.441129,119.502877
25503,,0.636723,5.241206,10.635796,0.495861,0.032333,-2.214476,17.092828,10.803547,118.280316
25504,,0.608828,5.153972,10.493999,0.805025,0.076961,-2.552808,17.284908,11.275454,116.868784
25505,,0.686235,5.187133,10.395360,1.157027,0.111469,-2.903748,17.639813,11.804640,115.276461
25506,,0.788859,5.285656,10.425318,1.511442,0.146896,-3.257734,18.130493,12.455558,113.484834
25507,,0.876317,5.380734,10.353351,1.843349,0.154905,-3.600106,18.765443,13.158180,111.517237
25508,,0.978486,5.489635,10.277633,2.125951,0.158051,-3.927848,19.478460,13.978617,109.359201
25509,,0.781075,5.549766,10.086647,2.363253,0.148888,-4.220500,20.278461,14.843482,107.054378
25510,,0.506240,5.649174,9.874298,2.556503,0.103292,-4.484452,21.091242,15.804187,104.582442
25511,,0.215110,5.758863,9.786480,2.699572,0.046792,-4.710081,21.936071,16.778808,101.993674
25512,,-0.043443,5.832228,9.628189,2.791497,-0.033376,-4.906544,22.724063,17.827083,99.261088
25513,,-0.169827,5.912884,9.610045,2.873055,-0.112413,-5.084826,23.508584,18.870552,96.432081
25514,,-0.288797,6.023153,9.461510,2.897518,-0.198373,-5.230071,24.186985,19.976108,93.475834
25515,,-0.500222,6.165857,9.369676,2.903924,-0.287641,-5.350383,24.823546,21.056286,90.449683
25516,,-0.565338,6.134392,9.056619,2.860859,-0.416640,-5.460756,25.300723,22.163447,87.291014
25517,,-0.599272,5.848611,8.635789,2.792893,-0.554743,-5.539121,25.695631,23.201987,84.068242
25518,,-0.749023,5.656364,8.372279,2.709195,-0.711310,-5.584072,25.905354,24.225691,80.726845
25519,,-0.835049,5.693070,8.224040,2.582659,-0.889774,-5.611011,26.010098,25.135292,77.335479
25520,,-0.723088,5.564318,8.212407,2.446790,-1.089099,-5.614942,25.898629,25.980332,73.824769
25521,,-0.524091,5.374017,8.370059,2.329332,-1.260018,-5.603165,25.709299,26.690926,70.289524
25522,,-0.476121,5.133151,8.534705,2.235863,-1.415955,-5.583011,25.340931,27.335314,66.655392
25523,,-0.517281,4.953801,8.508016,2.167631,-1.566192,-5.548645,24.947731,27.839088,63.022896
25524,,-0.572091,4.802224,8.408389,2.104640,-1.689166,-5.517197,24.407568,28.277494,59.308375
25525,,-0.679465,4.535431,8.269858,2.064867,-1.804267,-5.499821,23.877007,28.590952,55.605763
25526,,-0.850235,4.006609,8.066846,2.064755,-1.923774,-5.483962,23.241400,28.834419,51.817822
25527,,-0.874727,3.417365,7.870902,2.116392,-2.036465,-5.466342,22.686942,28.953649,48.054556
25528,,-0.918494,2.978058,7.690257,2.223374,-2.134726,-5.455996,22.102193,29.011637,44.216191
25529,,-1.034046,2.767423,7.570936,2.363146,-2.227283,-5.437744,21.667963,28.964905,40.418218
25530,,-1.159777,2.668125,7.480724,2.523387,-2.311926,-5.422384,21.249423,28.866467,36.559821
25531,,-1.398023,2.580120,7.438074,2.679344,-2.403103,-5.405791,21.002720,28.679630,32.747805
25532,,-1.575239,2.548553,7.415473,2.843050,-2.497441,-5.386960,20.784968,28.441324,28.882246
25533,,-1.769769,2.588863,7.382924,2.987920,-2.604192,-5.369525,20.740804,28.123519,25.063451
25534,,-1.851954,2.897866,7.313337,3.112594,-2.712897,-5.363802,20.708812,27.755010,21.185781
25535,,-1.750852,3.297235,7.090598,3.172942,-2.824409,-5.362863,20.804269,27.323414,17.344847
25536,,-1.557379,3.438088,6.979723,3.209272,-2.915945,-5.357898,20.872548,26.851742,13.453347
25537,,-1.459298,3.447309,6.861996,3.234260,-3.027807,-5.356677,21.053837,26.328238,9.598329
25538,,-1.345335,3.248514,6.732471,3.292436,-3.214286,-5.334335,21.225426,25.710441,5.685641
25539,,-1.102164,3.226162,6.675629,3.358339,-3.418294,-5.307418,21.540661,24.999366,1.803092
25540,,-0.707155,3.638652,6.666110,3.376024,-3.649109,-5.278007,21.836837,24.171801,-2.138158
25541,,-0.134831,4.506185,6.910946,3.289559,-3.863542,-5.248020,22.200924,23.255664,-6.051882
25542,,0.658752,5.411859,7.394522,3.044991,-4.062568,-5.220155,22.416146,22.235097,-10.011785
25543,,1.648997,5.888760,8.198754,2.727747,-4.201509,-5.185160,22.586908,21.159567,-13.923515
25544,,2.843582,6.187912,9.289935,2.355925,-4.304599,-5.140560,22.560761,20.010321,-17.841466
25545,,3.995269,6.507440,10.124722,1.940790,-4.316189,-5.107274,22.450341,18.856714,-21.682250
25546,,5.120364,6.895765,10.806735,1.421946,-4.247066,-5.111327,22.065948,17.711455,-25.508927
25547,,6.020881,7.160773,11.022572,0.816277,-4.098695,-5.154217,21.481773,16.633045,-29.265910
25548,,6.534723,7.141866,11.012542,0.131900,-3.917268,-5.197690,20.522331,15.602609,-32.998665
25549,,6.970455,6.833319,10.775811,-0.595838,-3.736239,-5.230468,19.289335,14.611345,-36.651318
25550,,7.130734,6.398754,10.412975,-1.409658,-3.531680,-5.206396,17.609302,13.633413,-40.230906
25551,,6.785373,5.419425,9.302831,-2.313870,-3.333187,-5.073972,15.574216,12.628696,-43.634900
25552,,6.174850,3.772281,8.568137,-3.116432,-3.178076,-4.845395,13.116590,11.549928,-46.848022
25553,,6.103535,1.282408,8.793721,-3.618870,-3.037596,-4.601664,10.543394,10.378323,-49.827250
25554,,6.461880,-1.815573,9.713446,-3.714364,-2.807713,-4.284161,7.953896,9.182515,-52.548934
25555,,6.452454,-4.408232,11.347899,-3.532560,-2.461759,-3.814254,5.642058,8.027859,-54.905124
25556,,5.941341,-5.621596,12.771831,-3.283942,-1.976726,-3.155333,3.511422,7.040627,-56.814856
25557,,4.416044,-4.756811,12.340055,-3.147722,-1.448584,-2.454667,1.596864,6.255488,-58.264334
25558,,2.611585,-2.821258,11.186512,-3.122317,-1.018154,-1.887453,-0.304423,5.681815,-59.358878
25559,,1.524516,-1.637158,10.252422,-3.203905,-0.721602,-1.513467,-2.171197,5.227344,-60.221160
25560,,1.415239,-2.816585,9.046373,-3.292582,-0.555796,-1.251347,-4.117934,4.867436,-60.922831
25561,,0.989678,-5.712313,7.964903,-3.041475,-0.475796,-1.055599,-5.860554,4.519519,-61.505112
25562,,0.977540,-7.337436,7.439050,-2.443792,-0.466984,-1.021872,-7.301200,4.183948,-62.058074
25563,,1.102874,-7.222627,7.494907,-1.906491,-0.467809,-1.046999,-8.393281,3.812151,-62.619704
25564,,0.724252,-6.606865,8.096364,-1.559429,-0.466317,-1.079655,-9.321480,3.450194,-63.191241
25565,,-0.248591,-7.212592,9.152475,-1.270648,-0.474842,-1.121007,-10.051575,3.049036,-63.782984
25566,,-0.614054,-8.803269,10.400114,-0.811495,-0.522723,-1.162844,-10.544940,2.632510,-64.385959
25567,,0.017127,-9.634601,11.414496,-0.170964,-0.562791,-1.166169,-10.644944,2.168851,-64.987784
25568,,0.741880,-8.958853,12.233040,0.447671,-0.549060,-1.087496,-10.405948,1.742976,-65.543488
25569,,1.006241,-7.462538,12.976887,0.796324,-0.496152,-0.966394,-9.948976,1.341455,-66.042565
25570,,0.904950,-6.137951,13.309039,0.837456,-0.415133,-0.829161,-9.476543,1.024099,-66.471075
25571,,0.660320,-5.266215,13.229794,0.643479,-0.322596,-0.679041,-9.104862,0.754257,-66.829566
25572,,0.572079,-4.662513,12.892698,0.343005,-0.247659,-0.543450,-8.910181,0.562595,-67.115218
25573,,0.371926,-4.664757,12.628043,-0.026149,-0.184427,-0.407714,-8.921939,0.397133,-67.333934
25574,,0.443971,-5.271799,12.397169,-0.342160,-0.136152,-0.286607,-9.117462,0.291575,-67.484204
25575,,0.820035,-6.250263,12.182814,-0.534338,-0.073643,-0.164718,-9.422580,0.209959,-67.574672
25576,,1.137891,-7.150980,12.015038,-0.592739,0.002372,-0.023496,-9.760833,0.206282,-67.588455
25577,,1.142890,-7.628892,11.890605,-0.564654,0.079916,0.146976,-10.088231,0.240658,-67.517340
25578,,1.009304,-7.750340,11.802980,-0.513801,0.165218,0.321202,-10.380350,0.363737,-67.353298
25579,,0.756826,-7.818722,11.755545,-0.449012,0.246797,0.498039,-10.646343,0.529127,-67.102331
25580,,0.751584,-7.900710,11.581491,-0.348444,0.323367,0.670118,-10.840681,0.779954,-66.759844
25581,,0.977891,-7.855283,11.534759,-0.219113,0.395569,0.837680,-10.976561,1.067636,-66.335164
25582,,0.976992,-7.686660,11.517988,-0.094226,0.479237,1.004897,-11.017923,1.444246,-65.822430
25583,,1.229276,-7.354614,11.596692,-0.026812,0.561962,1.177347,-11.039458,1.863479,-65.225709
25584,,1.397478,-6.989487,11.562174,-0.076874,0.671757,1.396423,-11.055695,2.391803,-64.513897
25585,,1.282197,-6.693396,11.521967,-0.216330,0.783741,1.641708,-11.169362,2.987457,-63.681287
25586,,1.223926,-6.633091,11.443154,-0.371960,0.892468,1.917952,-11.323969,3.700582,-62.701722
25587,,1.173347,-7.134210,11.438932,-0.471926,0.985436,2.207179,-11.547738,4.478280,-61.577192
25588,,1.689090,-7.787375,11.491339,-0.400756,1.101116,2.508623,-11.665492,5.382762,-60.291575
25589,,2.301772,-8.157290,11.448250,-0.223039,1.261251,2.844273,-11.683672,6.393701,-58.841974
25590,,2.687787,-8.006451,11.120436,-0.024464,1.442535,3.198340,-11.496830,7.568905,-57.200872
25591,,2.998918,-7.853537,10.729118,0.166085,1.615195,3.569452,-11.185355,8.851140,-55.369685
25592,,3.332341,-7.619655,10.562500,0.362091,1.779908,3.947951,-10.634730,10.278114,-53.313190
25593,,3.670879,-7.206705,10.291051,0.568867,1.930282,4.307916,-9.927809,11.778763,-51.055342
25594,,4.005707,-6.460041,9.968385,0.727627,2.068751,4.656622,-8.965431,13.383497,-48.558342
25595,,4.240460,-5.410196,9.738446,0.809815,2.155831,4.953309,-7.898484,14.992817,-45.870545
25596,,4.315060,-4.256683,9.628687,0.793697,2.243408,5.209088,-6.649472,16.643476,-42.962990
25597,,4.287557,-3.275085,9.567220,0.694355,2.306140,5.412300,-5.392371,18.254255,-39.902759
25598,,4.219841,-2.535069,9.512368,0.551468,2.353047,5.587107,-4.010903,19.858166,-36.644769
25599,,3.981865,-1.742979,9.403459,0.383522,2.376807,5.722773,-2.658970,21.381209,-33.264646
25600,,3.698580,-1.025938,9.482331,0.185808,2.374117,5.826816,-1.213614,22.851451,-29.713194
25601,,3.462744,-0.241506,9.598036,-0.062616,2.369745,5.907071,0.148155,24.215879,-26.072536
25602,,3.198891,0.631170,9.708171,-0.361006,2.369697,5.987320,1.542030,25.520873,-22.270423
25603,,2.864294,1.395948,9.911832,-0.731237,2.369554,6.041242,2.774604,26.725565,-18.400691
25604,,2.420433,1.862024,9.881173,-1.147115,2.386730,6.099847,3.961325,27.883409,-14.384591
25605,,1.683312,2.224906,9.473086,-1.554911,2.363746,6.133927,4.955987,28.942190,-10.321880
25606,,0.897719,2.401898,8.986813,-1.956326,2.284252,6.158857,5.887605,29.909699,-6.147377
25607,,0.280635,2.479848,8.514939,-2.356430,2.180780,6.197528,6.619400,30.750949,-1.940329
25608,,-0.149844,2.258721,8.046805,-2.655750,2.042899,6.217099,7.318687,31.478518,2.354674
25609,,-0.448775,1.744341,7.669464,-2.842243,1.880534,6.224198,7.909965,32.064622,6.642103
25610,,-0.550379,1.092123,7.427524,-2.872160,1.707430,6.235088,8.588257,32.518029,10.989539
25611,,-0.541933,0.794458,7.289550,-2.807574,1.529427,6.241444,9.279397,32.823461,15.312079
25612,,-0.486977,0.678638,7.195798,-2.678279,1.360157,6.246584,10.113439,32.986510,19.669492
25613,,-0.217899,0.559741,7.321297,-2.525090,1.204585,6.251726,10.987350,33.007885,23.985991
25614,,0.119902,0.537544,7.387909,-2.357353,1.091793,6.260158,11.997154,32.903837,28.322457
25615,,0.288665,0.537142,7.387003,-2.103558,1.010774,6.236492,13.077706,32.694665,32.591991
25616,,0.291660,0.492307,7.493569,-1.772260,0.926900,6.193282,14.342323,32.367068,36.829117
25617,,0.381267,0.653621,7.659591,-1.387073,0.833903,6.154016,15.726737,31.916542,40.970829
25618,,0.683246,1.112861,7.875458,-0.994129,0.758535,6.112398,17.301906,31.335136,45.057976
25619,,1.083796,1.986253,8.096569,-0.692472,0.712090,6.068427,18.932285,30.645086,49.037721
25620,,1.405862,2.993071,8.394449,-0.502902,0.710494,6.018336,20.617873,29.858934,52.952215
25621,,1.737204,4.025840,8.663886,-0.466236,0.747325,5.956468,22.202661,29.014756,56.760377
25622,,1.841742,4.939970,8.772184,-0.568948,0.813121,5.888889,23.668389,28.126421,60.503716
25623,,1.825902,5.606869,8.757354,-0.753891,0.854762,5.815862,24.909613,27.203916,64.144385
25624,,1.537247,5.970921,8.608979,-0.982402,0.844445,5.756623,25.950851,26.222078,67.709889
25625,,1.310874,6.064987,8.582615,-1.217823,0.760247,5.708940,26.735852,25.161261,71.164308
25626,,1.286919,6.241055,8.741598,-1.439787,0.660763,5.668446,27.314108,24.020362,74.533397
25627,,1.293692,6.553332,8.890186,-1.669806,0.558712,5.632226,27.644374,22.814304,77.803982
25628,,1.302004,6.820692,9.118947,-1.915090,0.469613,5.572660,27.751598,21.566053,80.990338
25629,,1.309263,6.789136,9.192830,-2.138177,0.391574,5.503192,27.620401,20.297298,84.083219
25630,,1.291538,6.526244,9.214693,-2.294012,0.310263,5.416321,27.319305,19.021153,87.092290
25631,,1.223302,6.108122,9.337636,-2.326691,0.211900,5.307034,26.892426,17.740074,89.996507
25632,,1.315247,6.105556,9.677638,-2.302301,0.092102,5.183033,26.397345,16.453120,92.796442
25633,,1.580149,6.477094,9.926354,-2.295265,0.005482,5.046382,25.808335,15.179001,95.491508
25634,,1.697217,6.910125,10.145770,-2.366021,-0.055799,4.880242,25.105426,13.945914,98.084032
25635,,1.563732,7.346689,10.259593,-2.489687,-0.090630,4.693510,24.245874,12.770101,100.569480
25636,,1.353538,7.734233,10.377367,-2.656375,-0.121469,4.482491,23.227465,11.670244,102.944646
25637,,0.976634,8.072465,10.430094,-2.852296,-0.160272,4.254695,22.023600,10.640722,105.199288
25638,,0.784159,8.099373,10.386216,-3.062219,-0.244019,3.999823,20.642963,9.674434,107.314714
25639,,0.732193,7.535741,10.653580,-3.276016,-0.337989,3.728901,19.076921,8.758866,109.281806
25640,,0.827537,6.315739,10.815649,-3.387013,-0.438384,3.444848,17.399880,7.900204,111.095479
25641,,0.999978,4.957823,10.991236,-3.331416,-0.514736,3.154779,15.705214,7.094381,112.756978
25642,,1.155239,4.024375,11.053639,-3.077580,-0.540266,2.863965,14.120412,6.370532,114.272151
25643,,1.053596,3.833262,11.136769,-2.687380,-0.483831,2.561630,12.723231,5.751546,115.642161
25644,,0.753650,3.845534,11.257140,-2.239250,-0.415129,2.247581,11.557464,5.245703,116.855575
25645,,0.907144,3.794205,11.503122,-1.777650,-0.351565,1.908302,10.628523,4.828690,117.893141
25646,,1.282182,3.820743,11.461508,-1.328568,-0.244874,1.543645,9.937407,4.530247,118.740143
25647,,1.686747,3.393043,11.765748,-0.784806,-0.117872,1.141215,9.535997,4.343781,119.374650
25648,,2.039671,2.250863,11.862956,0.003847,0.039846,0.675529,9.568275,4.299545,119.760244
25649,,1.960804,3.623352,11.597354,0.998252,0.182645,0.176944,10.148698,4.375379,119.878064
25650,,1.847799,6.352618,11.624743,1.541932,0.361663,-0.263561,11.024438,4.604310,119.766335
25651,,1.247987,7.810202,11.230690,1.448506,0.499972,-0.601007,11.831711,4.942808,119.484398
25652,,0.790159,7.419678,10.820976,1.026197,0.607646,-0.895346,12.381871,5.388343,119.052999
25653,,0.696340,6.153269,10.357790,0.679890,0.697480,-1.181878,12.717511,5.914765,118.476090
25654,,0.681597,4.936071,9.917308,0.561427,0.767021,-1.443389,12.962873,6.524587,117.762122
25655,,0.522974,4.103491,9.437648,0.629059,0.825401,-1.675301,13.227956,7.191778,116.928674
25656,,0.341895,4.218788,9.040918,0.730861,0.881553,-1.899558,13.522553,7.932518,115.977271
25657,,0.266082,4.740575,8.798017,0.761251,0.925111,-2.114704,13.809772,8.722920,114.914456
25658,,0.444128,4.593489,8.387916,0.739006,0.965770,-2.325169,14.047237,9.578282,113.738493
25659,,0.626145,4.093009,7.850533,0.744268,1.025816,-2.535556,14.255958,10.492489,112.454705
25660,,0.754441,3.675020,7.361870,0.819352,1.080046,-2.748142,14.459919,11.480080,111.055987
25661,,0.777457,3.551286,6.843555,0.898480,1.127196,-2.956126,14.667836,12.520125,109.547342
25662,,0.716751,3.477807,6.449320,0.974430,1.160862,-3.161239,14.859651,13.622538,107.922114
25663,,0.490050,3.516046,6.073565,1.016599,1.172552,-3.357063,15.023996,14.756632,106.185655
25664,,0.333053,3.594776,5.722734,1.034828,1.168312,-3.556181,15.125598,15.930633,104.324841
25665,,0.224319,3.673860,5.338551,1.020994,1.154192,-3.764732,15.153052,17.121556,102.335517
25666,,0.167860,3.865449,4.956388,0.960776,1.153533,-3.980461,15.055053,18.351690,100.203385
25667,,0.223971,4.024295,4.513801,0.849293,1.158433,-4.213677,14.808528,19.604684,97.920659
25668,,0.439850,4.192892,3.767017,0.734446,1.242898,-4.474112,14.379940,20.937594,95.466179
25669,,-0.108969,3.987750,3.113745,0.665263,1.256114,-4.772170,13.791590,22.291246,92.806353
25670,,-0.507545,3.753023,2.383651,0.649674,1.087184,-5.062055,13.031932,23.567793,89.898749
25671,,-0.767748,3.728869,1.940412,0.627252,0.826794,-5.329892,12.116158,24.686214,86.751575
25672,,-0.748558,3.938328,1.800749,0.488158,0.538769,-5.588075,10.951835,25.626732,83.352774
25673,,-0.495705,4.115403,1.946767,0.208559,0.264498,-5.816366,9.500650,26.360328,79.741011
25674,,-0.195949,4.051317,2.248251,-0.179945,0.027351,-6.024084,7.687930,26.889361,75.924890
25675,,-0.166774,3.552869,2.756983,-0.585439,-0.172258,-6.190511,5.565160,27.195059,71.964685
25676,,-0.428272,2.779018,3.317129,-0.906619,-0.412204,-6.316408,3.180702,27.233018,67.885805
25677,,-0.645248,1.856510,3.890827,-1.046918,-0.668013,-6.429094,0.708050,26.971515,63.744689
25678,,-0.655949,1.084077,4.287825,-1.017312,-0.923974,-6.563430,-1.762776,26.404691,59.540644
25679,,-0.430409,0.468285,4.485481,-0.841516,-1.168184,-6.727848,-4.085534,25.537258,55.305473
25680,,0.047825,-0.204620,4.537066,-0.573250,-1.417492,-6.899103,-6.211964,24.370468,51.043149
25681,,0.730946,-0.752138,4.781368,-0.327020,-1.668104,-7.069298,-8.089360,22.917030,46.794160
25682,,1.646803,-1.008522,6.115821,-0.319214,-1.935225,-7.173991,-9.846303,21.177640,42.600078
25683,,3.279327,-1.257885,7.944178,-0.715650,-2.179605,-7.059354,-11.615793,19.197438,38.620938
25684,,4.583213,-2.467148,8.862896,-1.357145,-2.337101,-6.800221,-13.541852,17.038642,34.926920
25685,,5.152667,-3.784585,9.032134,-1.965708,-2.482149,-6.517339,-15.579511,14.722791,31.546991
25686,,5.262079,-4.750073,8.624937,-2.395219,-2.602995,-6.256950,-17.673312,12.264857,28.453780
25687,,5.385643,-5.507600,7.878062,-2.615624,-2.687713,-6.020779,-19.696581,9.699081,25.632084
25688,,5.956621,-6.412877,7.336823,-2.709337,-2.738951,-5.828861,-21.626808,7.049396,23.033953
25689,,6.713323,-7.614535,6.935664,-2.669782,-2.787386,-5.661055,-23.381827,4.329037,20.639972
25690,,7.407315,-9.043812,6.877260,-2.497499,-2.839556,-5.489950,-24.925327,1.554663,18.433508
25691,,7.785263,-9.918224,7.206352,-2.198000,-2.892811,-5.278907,-26.179604,-1.250980,16.421390
25692,,7.975731,-10.082452,7.962583,-1.968291,-2.950724,-5.043794,-27.221923,-4.062519,14.598271
25693,,8.281038,-9.634194,8.564056,-1.915180,-3.005041,-4.798072,-28.154365,-6.872665,12.957197
25694,,8.668432,-8.984257,8.709322,-1.989649,-3.034498,-4.544266,-29.082561,-9.648547,11.490103
25695,,8.765926,-8.642060,8.506282,-2.109002,-3.035789,-4.307858,-30.032860,-12.389660,10.176862
25696,,8.622071,-8.619657,8.137737,-2.151839,-3.024180,-4.100202,-30.985313,-15.077620,8.999873
25697,,8.508428,-8.691487,7.749577,-2.076800,-3.023738,-3.931608,-31.869093,-17.743147,7.937201
25698,,8.478387,-8.632433,7.345766,-1.886069,-3.016624,-3.833950,-32.625716,-20.379489,6.948393
25699,,8.640865,-8.678589,7.220582,-1.573276,-2.996170,-3.793354,-33.166904,-23.015692,5.986945
25700,,8.765369,-8.757120,7.341273,-1.146331,-2.942552,-3.787839,-33.421467,-25.618726,5.013042
25701,,8.886821,-8.699834,7.534027,-0.628642,-2.869323,-3.802940,-33.312730,-28.205880,3.985371
25702,,8.938179,-8.398700,7.672683,-0.092600,-2.789321,-3.823154,-32.820350,-30.742875,2.879561
25703,,8.955412,-7.643539,7.718446,0.342740,-2.732717,-3.829967,-31.987005,-33.257435,1.683267
25704,,8.917284,-6.542253,7.663732,0.589148,-2.687213,-3.821340,-30.917503,-35.715892,0.393124
25705,,9.002590,-5.332113,7.624458,0.562723,-2.667159,-3.779962,-29.766940,-38.146104,-0.980674
25706,,9.463885,-4.243373,7.658558,0.301950,-2.650654,-3.734653,-28.670382,-40.518765,-2.435516
25707,,10.327128,-3.514293,7.664705,-0.114707,-2.607365,-3.680026,-27.705263,-42.849316,-3.981293
25708,,11.279826,-3.350883,7.655109,-0.588954,-2.509597,-3.607585,-26.906888,-45.077928,-5.615458
25709,,11.979600,-3.534798,7.568633,-1.046371,-2.387877,-3.515844,-26.262525,-47.221437,-7.335780
25710,,12.406016,-3.892286,7.252352,-1.440140,-2.233483,-3.391382,-25.760624,-49.226420,-9.113485
25711,,12.478343,-4.338622,6.737347,-1.743601,-2.081530,-3.232387,-25.365586,-51.120534,-10.924140
25712,,12.491833,-4.854466,6.160374,-1.961286,-1.942833,-3.041720,-25.078264,-52.872964,-12.713291
25713,,12.355894,-5.348811,5.736814,-2.061332,-1.831356,-2.821784,-24.858166,-54.526048,-14.447765
25714,,12.207906,-5.776200,5.538185,-2.043836,-1.748189,-2.566676,-24.707580,-56.054602,-16.054014
25715,,11.954163,-6.069836,5.674532,-1.902741,-1.649573,-2.293908,-24.566721,-57.481018,-17.522459
25716,,11.561867,-6.116831,5.823042,-1.700374,-1.560712,-2.023619,-24.440433,-58.778271,-18.816971
25717,,11.351832,-5.943661,5.779162,-1.490633,-1.474510,-1.738274,-24.354528,-59.979323,-19.798707
25718,,11.258157,-5.473773,5.701457,-1.332432,-1.387503,-1.456977,-24.352785,-61.050456,-20.676421
25719,,11.119943,-5.049479,5.526546,-1.252812,-1.298666,-1.182816,-24.502479,-62.027669,-21.238466
25720,,10.981739,-4.788224,5.320242,-1.218382,-1.214792,-0.931114,-24.828174,-62.885455,-21.657209
25721,,10.745189,-4.671413,5.080479,-1.212750,-1.147411,-0.711727,-25.345122,-63.672320,-21.796274
25722,,10.595358,-4.578528,4.888679,-1.208587,-1.078812,-0.513802,-26.043693,-64.359571,-21.788283
25723,,10.362128,-4.487367,4.792605,-1.210188,-1.023475,-0.358038,-26.904592,-64.993664,-21.557042
25724,,10.109466,-4.488269,4.701881,-1.200807,-0.970267,-0.236985,-27.887122,-65.552319,-21.231620
25725,,10.059494,-4.323874,4.689576,-1.205531,-0.927007,-0.151280,-28.975075,-66.077329,-20.767308
25726,,9.870006,-4.249250,4.594286,-1.210451,-0.874161,-0.093979,-30.126033,-66.542167,-20.266642
25727,,9.749761,-4.207201,4.527799,-1.221812,-0.843693,-0.061012,-31.335197,-66.990911,-19.702641
25728,,9.626059,-4.292419,4.510447,-1.209475,-0.818048,-0.041223,-32.572100,-67.403639,-19.111468
25729,,9.467645,-4.382195,4.499788,-1.165438,-0.796848,-0.047139,-33.798155,-67.814841,-18.496979
25730,,9.265178,-4.579506,4.433020,-1.076945,-0.782102,-0.056195,-34.978111,-68.205319,-17.888786
25731,,9.100952,-4.728409,4.462287,-0.938992,-0.782920,-0.086780,-36.080787,-68.612204,-17.277154
25732,,8.929465,-4.893099,4.547477,-0.758705,-0.785251,-0.117550,-37.069997,-69.016109,-16.681355
25733,,8.858408,-4.948761,4.675448,-0.545776,-0.789866,-0.151251,-37.937605,-69.439159,-16.089320
25734,,8.811367,-5.049157,4.765929,-0.300388,-0.794251,-0.184097,-38.649595,-69.864107,-15.512419
25735,,8.869259,-5.101152,4.869182,-0.031241,-0.793340,-0.214529,-39.201848,-70.304233,-14.954883
25736,,9.086815,-5.043028,4.926086,0.246634,-0.783172,-0.232721,-39.577281,-70.738045,-14.405691
25737,,9.269843,-4.796260,5.025554,0.495843,-0.760237,-0.242004,-39.802263,-71.169150,-13.876158
25738,,9.341905,-4.430535,5.069909,0.697231,-0.716625,-0.236020,-39.878364,-71.573445,-13.373210
25739,,9.263944,-4.126910,5.137397,0.853739,-0.674552,-0.215389,-39.866163,-71.954592,-12.883722
25740,,9.293790,-3.958440,5.124504,0.986892,-0.630055,-0.191849,-39.759170,-72.304661,-12.400966
25741,,9.423518,-3.755920,5.243584,1.095007,-0.569902,-0.161656,-39.578593,-72.618765,-11.943220
25742,,9.557298,-3.415839,5.306842,1.147799,-0.501617,-0.124294,-39.335740,-72.888331,-11.507848
25743,,9.736582,-3.130974,5.317016,1.141980,-0.421631,-0.078699,-39.078566,-73.105941,-11.103478
25744,,9.819822,-2.923398,5.167277,1.094299,-0.343110,-0.023619,-38.829400,-73.269741,-10.707733
25745,,9.856201,-2.731918,4.894647,1.025571,-0.254363,0.023285,-38.590951,-73.375498,-10.354016
25746,,9.811873,-2.693751,4.702615,0.946308,-0.186711,0.077303,-38.392077,-73.434089,-9.994720
25747,,9.842211,-2.643695,4.392421,0.870691,-0.117110,0.127833,-38.235741,-73.440475,-9.644342
25748,,9.831288,-2.698705,4.119207,0.825145,-0.042038,0.182235,-38.092188,-73.397327,-9.299783
25749,,9.830863,-2.653861,3.906485,0.787685,0.017682,0.231274,-37.975962,-73.305760,-8.960493
25750,,9.820075,-2.614132,3.757459,0.746167,0.082112,0.283066,-37.880594,-73.171395,-8.612543
25751,,9.871897,-2.535420,3.707074,0.692898,0.147697,0.332376,-37.814144,-72.984963,-8.273851
25752,,9.845386,-2.438087,3.648830,0.625227,0.205932,0.375800,-37.776693,-72.762206,-7.937126
25753,,9.790831,-2.381066,3.533089,0.549351,0.266995,0.420335,-37.776346,-72.490285,-7.615618
25754,,9.745858,-2.255755,3.422892,0.461260,0.314066,0.458567,-37.820871,-72.189499,-7.290467
25755,,9.614492,-2.210217,3.290716,0.351737,0.360088,0.492092,-37.921949,-71.849600,-6.971341
25756,,9.563720,-2.185659,3.211499,0.245774,0.397073,0.520369,-38.070552,-71.489192,-6.665372
25757,,9.519423,-2.200594,3.157633,0.137236,0.423676,0.548207,-38.283334,-71.099879,-6.359301
25758,,9.468612,-2.234335,3.064006,0.041721,0.448965,0.570465,-38.540309,-70.697647,-6.060971
25759,,9.451634,-2.270301,2.964359,-0.044826,0.465357,0.588205,-38.843918,-70.274256,-5.762122
25760,,9.367003,-2.337308,2.867680,-0.116858,0.472665,0.605510,-39.186702,-69.847821,-5.467610
25761,,9.345211,-2.345868,2.740230,-0.177314,0.467352,0.609525,-39.563112,-69.414516,-5.171189
25762,,9.262372,-2.369069,2.653433,-0.234367,0.455651,0.612367,-39.970418,-68.991775,-4.878033
25763,,9.176344,-2.488470,2.625225,-0.270820,0.438232,0.607137,-40.398502,-68.570697,-4.578901
25764,,9.158585,-2.604688,2.583939,-0.283831,0.418971,0.603502,-40.831520,-68.165714,-4.286905
25765,,9.174737,-2.742149,2.528330,-0.269226,0.402858,0.593380,-41.250416,-67.763590,-3.995487
25766,,9.129074,-2.797338,2.543408,-0.239413,0.385186,0.578910,-41.638566,-67.380921,-3.722848
25767,,9.065256,-2.852910,2.412330,-0.186787,0.365644,0.564976,-41.993310,-67.004172,-3.446291
25768,,9.067160,-2.861725,2.378306,-0.127225,0.343808,0.547363,-42.303028,-66.649954,-3.187549
25769,,9.014075,-2.954847,2.303383,-0.055937,0.317804,0.528598,-42.573197,-66.306502,-2.918109
25770,,8.932267,-2.927951,2.270746,0.031341,0.292071,0.503957,-42.781166,-65.990004,-2.669939
25771,,8.920258,-2.919562,2.221914,0.116440,0.259557,0.477667,-42.943790,-65.690276,-2.407497
25772,,8.867449,-2.853764,2.250333,0.200137,0.229475,0.456063,-43.054570,-65.418156,-2.158691
25773,,8.897272,-2.768537,2.219131,0.265861,0.197452,0.429191,-43.132573,-65.163227,-1.894080
25774,,8.906624,-2.688982,2.295575,0.306766,0.170439,0.404903,-43.179227,-64.935544,-1.647605
25775,,8.948809,-2.596347,2.333647,0.332458,0.144218,0.381249,-43.215850,-64.721795,-1.384327
25776,,8.959080,-2.557447,2.390886,0.339578,0.119314,0.354754,-43.237043,-64.535000,-1.144369
25777,,8.913092,-2.522088,2.394904,0.342559,0.098354,0.334361,-43.260548,-64.359111,-0.888371
25778,,8.954253,-2.516036,2.396804,0.338626,0.077166,0.313830,-43.277581,-64.205889,-0.652940
25779,,8.929465,-2.482785,2.411131,0.336857,0.059307,0.294572,-43.298682,-64.062291,-0.402393
25780,,8.888575,-2.475443,2.434308,0.321907,0.038066,0.272478,-43.318607,-63.941545,-0.173842
25781,,8.884200,-2.501286,2.477829,0.322806,0.021126,0.259000,-43.346096,-63.828196,0.077750
25782,,8.809004,-2.512341,2.494031,0.321683,0.003131,0.241210,-43.365415,-63.734214,0.305915
25783,,8.888732,-2.557110,2.502375,0.326677,-0.017819,0.221791,-43.389101,-63.652028,0.559352
25784,,8.886921,-2.577451,2.541227,0.332989,-0.040318,0.201532,-43.401569,-63.591677,0.787416
25785,,8.924412,-2.550290,2.588327,0.338903,-0.059892,0.173437,-43.409557,-63.546480,1.028659
25786,,8.897439,-2.526342,2.674007,0.347665,-0.073636,0.151772,-43.397556,-63.519568,1.238959
25787,,8.899080,-2.538599,2.708649,0.350329,-0.089496,0.120740,-43.377606,-63.507910,1.455072
25788,,8.871714,-2.499181,2.758480,0.354818,-0.106529,0.097210,-43.341738,-63.516231,1.643323
25789,,8.836439,-2.518239,2.754437,0.355939,-0.123145,0.070248,-43.303230,-63.538904,1.843610
25790,,8.811196,-2.562254,2.848813,0.363254,-0.138363,0.045710,-43.244805,-63.580851,2.011989
25791,,8.809296,-2.569243,2.806127,0.372085,-0.150187,0.020985,-43.177332,-63.634618,2.190255
25792,,8.782229,-2.566265,2.839122,0.385708,-0.160763,-0.000701,-43.085083,-63.704293,2.335089
25793,,8.780227,-2.551267,2.925335,0.400397,-0.178015,-0.023869,-42.985868,-63.787745,2.496302
25794,,8.823979,-2.546961,2.948941,0.406505,-0.188180,-0.050428,-42.861474,-63.888553,2.618388
25795,,8.853443,-2.542924,2.990054,0.411047,-0.203098,-0.080317,-42.727723,-64.005025,2.747420
25796,,8.940460,-2.551622,3.074377,0.418622,-0.208793,-0.103516,-42.566969,-64.135381,2.836554
25797,,8.972228,-2.541479,3.114153,0.419439,-0.213706,-0.133599,-42.389728,-64.277439,2.921502
25798,,8.987630,-2.555068,3.166610,0.418757,-0.219286,-0.159635,-42.187111,-64.434115,2.964070
25799,,9.017859,-2.531489,3.171975,0.414684,-0.222075,-0.181948,-41.974915,-64.598631,3.007962
25800,,9.056157,-2.521161,3.243814,0.414156,-0.222781,-0.207404,-41.732731,-64.775191,3.003727
25801,,9.119897,-2.519002,3.239084,0.404650,-0.220251,-0.219554,-41.487697,-64.953410,3.005626
25802,,9.157531,-2.473810,3.282092,0.382834,-0.217340,-0.235913,-41.229355,-65.138397,2.963789
25803,,9.105901,-2.443469,3.314287,0.364698,-0.205545,-0.240992,-40.970902,-65.318373,2.925144
25804,,9.086551,-2.438882,3.337509,0.336778,-0.198637,-0.248721,-40.707217,-65.499880,2.848532
25805,,9.049763,-2.406614,3.351472,0.309703,-0.185909,-0.247608,-40.452661,-65.673620,2.778556
25806,,9.130857,-2.432062,3.356970,0.282547,-0.176121,-0.250216,-40.195307,-65.845549,2.675023
25807,,9.201904,-2.389122,3.395991,0.252077,-0.162044,-0.245556,-39.950157,-66.007807,2.576347
25808,,9.282333,-2.416095,3.402332,0.216276,-0.144135,-0.244667,-39.705011,-66.163247,2.444895
25809,,9.367186,-2.372265,3.422957,0.177605,-0.129766,-0.242748,-39.473466,-66.309815,2.314856
25810,,9.440682,-2.340489,3.372442,0.131058,-0.104064,-0.235664,-39.248424,-66.443791,2.152350
25811,,9.413660,-2.258986,3.346152,0.077417,-0.086178,-0.236177,-39.040351,-66.568146,1.986904
25812,,9.301218,-2.283089,3.364786,0.011452,-0.066501,-0.223503,-38.861098,-66.680532,1.799930
25813,,9.195556,-2.349284,3.322043,-0.040936,-0.051356,-0.214631,-38.710368,-66.781125,1.625092
25814,,9.126948,-2.449556,3.303936,-0.074119,-0.035627,-0.208402,-38.567027,-66.873882,1.424136
25815,,9.093617,-2.528619,3.285894,-0.087628,-0.026919,-0.197311,-38.436585,-66.956997,1.237497
25816,,9.066066,-2.591489,3.306361,-0.092247,-0.019083,-0.192459,-38.304108,-67.036277,1.037314
25817,,9.034805,-2.624605,3.298556,-0.083130,-0.009974,-0.180619,-38.173285,-67.105248,0.857049
25818,,8.997496,-2.675406,3.253251,-0.076249,-0.008218,-0.180445,-38.033224,-67.175014,0.658796
25819,,9.019609,-2.712907,3.256323,-0.055449,0.002366,-0.179429,-37.875035,-67.237431,0.464340
25820,,9.039179,-2.695186,3.235839,-0.042505,-0.000648,-0.181082,-37.706543,-67.303569,0.256415
25821,,9.059740,-2.652959,3.220379,-0.034862,0.004771,-0.182617,-37.528996,-67.365316,0.053241
25822,,9.083875,-2.641114,3.234188,-0.041015,0.006432,-0.184511,-37.347820,-67.428929,-0.167306
25823,,9.050430,-2.594844,3.209862,-0.053247,0.012860,-0.184575,-37.170058,-67.486935,-0.381552
25824,,9.091929,-2.635043,3.228760,-0.070387,0.013966,-0.184464,-36.997329,-67.546559,-0.610976
25825,,9.140345,-2.611010,3.170596,-0.080607,0.018650,-0.184006,-36.829301,-67.600989,-0.831219
