// Start Time: Unknown
// Update Rate: 100.0Hz
// Filter Profile: human (46.1)
// Firmware Version: 4.3.5
PacketCounter,Acc_X,Acc_Y,Acc_Z,Gyr_X,Gyr_Y,Gyr_Z
55881,9.844628,-0.503909,0.387356,-0.098463,0.026411,-0.011603
55882,9.837706,-0.498105,0.347908,-0.080687,0.023532,-0.018056
55883,9.823600,-0.448632,0.371844,-0.080142,0.020296,-0.020830
55884,9.840209,-0.465219,0.397129,-0.081060,0.015930,-0.027343
55885,9.842687,-0.433579,0.444496,-0.082585,0.017396,-0.030290
55886,9.818569,-0.461316,0.388640,-0.089070,0.014573,-0.032800
55887,9.835230,-0.477156,0.413665,-0.090123,0.018218,-0.032512
55888,9.816380,-0.484505,0.344996,-0.082624,0.017176,-0.034736
55889,9.811305,-0.501198,0.359004,-0.077937,0.014098,-0.040112
55890,9.811436,-0.497772,0.360185,-0.078889,0.017949,-0.035481
55891,9.833333,-0.493122,0.372424,-0.072747,0.015999,-0.037105
55892,9.821427,-0.504952,0.344829,-0.068759,0.011794,-0.035138
55893,9.838150,-0.520605,0.369427,-0.069187,0.012419,-0.033248
55894,9.848050,-0.531228,0.352308,-0.060980,0.005779,-0.034695
55895,9.848214,-0.528025,0.352554,-0.060966,0.005777,-0.034718
55896,9.860363,-0.510159,0.381301,-0.057328,0.002396,-0.026483
55897,9.845557,-0.514149,0.411840,-0.050934,0.005021,-0.028325
55898,9.860602,-0.505363,0.381492,-0.052527,0.002327,-0.022340
55899,9.838938,-0.504643,0.370584,-0.045145,0.003904,-0.023675
55900,9.860805,-0.501173,0.381789,-0.041898,0.005316,-0.022426
55901,9.860887,-0.499350,0.382063,-0.038461,0.004328,-0.017674
55902,9.839187,-0.499226,0.371304,-0.035572,0.003769,-0.015340
55903,9.834577,-0.464319,0.376573,-0.035915,0.004582,-0.009085
55904,9.839259,-0.497281,0.372004,-0.032863,0.008395,-0.011327
55905,9.866188,-0.474661,0.370888,-0.038436,0.007111,-0.012520
55906,9.844436,-0.475291,0.360542,-0.035542,0.009333,-0.004999
55907,9.882814,-0.492373,0.396073,-0.036175,0.012356,-0.006583
55908,9.861039,-0.493223,0.386078,-0.030505,0.011047,-0.006241
55909,9.878116,-0.457406,0.403127,-0.024034,0.011092,-0.008895
55910,9.866166,-0.471432,0.375559,-0.018648,0.014780,-0.011203
55911,9.866163,-0.470366,0.376978,-0.017300,0.015702,-0.011782
55912,9.851652,-0.421746,0.401341,-0.015505,0.016006,-0.014283
55913,9.861465,-0.434201,0.385107,-0.020081,0.016448,-0.009793
55914,9.861458,-0.432972,0.386651,-0.018380,0.016566,-0.016638
55915,9.861470,-0.431340,0.388181,-0.027276,0.016459,-0.018269
55916,9.853875,-0.532552,0.363216,-0.024394,0.015898,-0.015925
55917,9.844468,-0.463274,0.375023,-0.016578,0.016873,-0.019146
55918,9.834659,-0.447707,0.394137,-0.016930,0.012124,-0.023264
55919,9.827944,-0.440266,0.353964,-0.014144,0.014154,-0.020071
55920,9.796403,-0.425850,0.361815,-0.012700,0.009713,-0.026686
55921,9.781126,-0.484103,0.400782,-0.020435,0.015706,-0.027211
55922,9.796189,-0.474721,0.371733,-0.020336,0.013115,-0.028062
55923,9.784422,-0.486863,0.344210,-0.012970,0.014713,-0.029358
55924,9.859595,-0.493418,0.360893,-0.011976,0.013662,-0.028860
55925,9.864791,-0.470183,0.349668,-0.013503,0.015146,-0.031795
55926,9.817989,-0.515735,0.395400,-0.012951,0.011940,-0.034571
55927,9.843028,-0.519142,0.348242,-0.007640,0.008667,-0.033136
55928,9.839992,-0.507600,0.408214,-0.005387,0.008362,-0.037563
55929,9.805309,-0.483973,0.474676,0.001453,0.003608,-0.033194
55930,9.803788,-0.455050,0.421193,0.001358,0.006198,-0.032352
55931,9.814047,-0.411148,0.396507,-0.005095,0.003360,-0.034921
55932,9.820901,-0.413125,0.438264,-0.008418,0.004530,-0.035362
55933,9.814138,-0.458499,0.404625,-0.007877,0.004096,-0.032938
55934,9.819175,-0.489076,0.399788,-0.007874,0.004095,-0.032943
55935,9.857708,-0.503295,0.434964,-0.000965,0.006323,-0.032308
55936,9.872829,-0.493356,0.405226,0.004246,0.005648,-0.030019
55937,9.867916,-0.510892,0.418380,0.009002,0.005588,-0.025804
55938,9.894654,-0.540944,0.425058,0.005200,0.010141,-0.019112
55939,9.964698,-0.622731,0.461736,0.012086,0.015144,-0.013269
55940,10.009732,-0.698256,0.547073,0.011882,0.020323,-0.011578
55941,10.091347,-0.765953,0.614471,0.011598,0.040610,-0.002381
55942,10.154157,-0.952549,0.628655,0.023969,0.062024,0.012172
55943,10.179717,-1.203335,0.672604,0.055604,0.094568,0.035239
55944,10.112782,-1.429040,0.680979,0.095257,0.121687,0.071847
55945,9.991700,-1.593126,0.680600,0.172683,0.139095,0.104733
55946,9.982814,-1.490533,0.641635,0.255297,0.148646,0.139106
55947,9.994968,-1.444144,0.623767,0.328975,0.168793,0.183520
55948,9.967239,-1.679758,0.668452,0.402767,0.203649,0.226136
55949,10.201095,-2.058105,0.707651,0.495383,0.240360,0.306023
55950,10.204169,-2.402985,0.868289,0.594473,0.306289,0.403972
55951,9.846084,-2.615638,0.962759,0.709487,0.349236,0.478654
55952,9.644280,-2.690700,0.797425,0.871192,0.352360,0.530594
55953,9.838065,-2.595813,0.755061,1.025305,0.343493,0.589999
55954,9.852923,-2.362570,0.977779,1.087340,0.361270,0.645903
55955,10.020793,-2.173993,1.075640,1.082838,0.374431,0.699879
55956,10.362998,-2.234320,1.138194,1.066350,0.422146,0.780979
55957,10.483594,-2.295498,1.249903,1.073792,0.481462,0.856585
55958,10.493169,-2.260904,1.200451,1.133403,0.516616,0.915770
55959,10.578294,-2.037397,1.150652,1.175188,0.526046,0.961862
55960,10.769611,-1.821919,1.313711,1.130627,0.540027,1.020178
55961,10.944886,-1.637157,1.802089,0.995289,0.586915,1.068486
55962,10.993324,-1.668868,2.132865,0.826321,0.650382,1.133211
55963,10.955497,-1.970745,2.236959,0.699664,0.719005,1.207580
55964,10.797335,-2.285234,2.201923,0.652784,0.773177,1.282977
55965,10.693652,-2.604590,2.210556,0.617783,0.812894,1.347444
55966,10.651162,-2.809094,2.203609,0.623365,0.845679,1.401485
55967,10.662890,-2.895400,2.336344,0.627835,0.877502,1.448699
55968,10.695409,-3.076005,2.433420,0.599146,0.919900,1.494623
55969,10.698148,-3.205471,2.661971,0.554057,0.966007,1.541617
55970,10.598799,-3.358318,2.729518,0.555375,1.009441,1.587549
55971,10.505109,-3.499665,2.744030,0.582599,1.043895,1.624111
55972,10.387405,-3.554441,2.756563,0.579384,1.065125,1.657754
55973,10.385244,-3.574035,2.739339,0.566823,1.083779,1.681207
55974,10.420111,-3.639788,2.713822,0.570969,1.109958,1.718053
55975,10.359470,-3.704412,2.858979,0.557783,1.136671,1.760518
55976,10.320245,-3.888979,2.917187,0.531827,1.168438,1.800808
55977,10.206767,-3.989391,3.040464,0.549975,1.213866,1.835391
55978,10.074507,-4.148887,3.059226,0.581756,1.257644,1.874406
55979,9.911059,-4.115564,3.188654,0.608142,1.294866,1.909449
55980,9.724995,-4.032330,3.168709,0.629957,1.318018,1.919194
55981,9.671073,-4.040695,3.281944,0.625299,1.330971,1.927432
55982,9.721907,-4.115704,3.415261,0.617062,1.361970,1.932214
55983,9.619736,-4.253143,3.588794,0.619500,1.410985,1.955395
55984,9.385665,-4.504611,3.651518,0.624827,1.438253,1.980484
55985,9.094794,-4.692253,3.742221,0.665939,1.455382,1.988893
55986,8.840678,-4.855675,3.762195,0.699211,1.454206,1.977221
55987,8.545638,-5.002608,3.683289,0.723562,1.422725,1.948655
55988,8.372585,-4.997650,3.634615,0.744075,1.373129,1.902636
55989,8.311587,-4.954077,3.795729,0.744900,1.336065,1.864167
55990,8.324653,-4.948439,4.077501,0.720429,1.324038,1.850739
55991,8.189022,-4.970969,4.304874,0.669974,1.324199,1.843384
55992,8.047291,-4.910876,4.521827,0.601999,1.307986,1.849082
55993,7.807314,-5.060355,4.492238,0.521431,1.299108,1.856185
55994,7.654957,-5.249674,4.381855,0.484688,1.278626,1.878946
55995,7.387326,-5.253547,4.372090,0.497074,1.266665,1.884347
55996,7.078398,-5.165651,4.472403,0.506998,1.254487,1.863420
55997,6.998604,-5.239678,4.581369,0.522716,1.241931,1.856037
55998,6.905007,-5.160507,4.629945,0.581497,1.264076,1.863796
55999,6.665104,-5.110611,4.755345,0.605916,1.286555,1.859483
56000,6.451322,-5.141387,4.835075,0.606583,1.278285,1.848587
56001,6.184763,-5.085577,4.821441,0.607135,1.262474,1.816610
56002,5.763164,-4.996018,4.805233,0.619479,1.241304,1.760170
56003,5.446493,-4.989376,4.842378,0.643313,1.194116,1.688694
56004,5.202746,-4.932562,4.909924,0.661151,1.153933,1.623543
56005,4.939916,-4.805917,5.112439,0.650932,1.125192,1.563074
56006,4.725735,-4.806010,5.327479,0.608369,1.099089,1.516349
56007,4.566046,-4.870562,5.327604,0.569667,1.070205,1.485102
56008,4.352521,-4.850334,5.316098,0.534717,1.032721,1.440772
56009,4.232918,-4.973126,5.246792,0.479543,0.989730,1.394810
56010,4.139326,-5.350062,5.168002,0.481112,0.949657,1.362570
56011,3.930425,-5.485374,5.282549,0.497994,0.912770,1.337243
56012,3.691615,-5.530043,5.375834,0.489594,0.859560,1.317214
56013,3.473501,-5.494298,5.268251,0.493409,0.773330,1.310616
56014,3.525291,-5.580806,5.199659,0.520066,0.679628,1.327308
56015,3.412758,-5.616712,5.327803,0.563175,0.647494,1.306281
56016,3.079820,-5.264396,5.709184,0.600377,0.640557,1.222605
56017,2.790584,-5.120408,5.930915,0.609000,0.642567,1.117828
56018,2.603272,-5.162221,5.936821,0.610969,0.630544,1.030859
56019,2.569751,-5.373816,6.011828,0.597579,0.610425,0.989978
56020,2.460875,-5.568030,6.187654,0.578995,0.594871,0.977823
56021,2.019766,-5.463341,6.491680,0.564354,0.563228,0.934565
56022,1.853059,-5.136643,6.709836,0.478514,0.515620,0.870182
56023,1.883189,-5.161000,6.682738,0.354248,0.483923,0.808516
56024,2.037320,-5.563738,6.580213,0.284813,0.468365,0.763177
56025,2.036915,-5.859991,6.717234,0.255998,0.465937,0.758757
56026,1.967132,-6.120170,6.876547,0.260443,0.431085,0.785385
56027,1.838277,-6.098303,6.991386,0.254786,0.408713,0.790399
56028,1.799011,-6.121184,6.975703,0.266176,0.397060,0.771904
56029,1.794504,-6.163788,6.899238,0.294340,0.389439,0.739098
56030,1.843025,-6.118660,6.966846,0.348307,0.368161,0.719937
56031,1.794678,-6.072187,7.051778,0.371806,0.346533,0.706994
56032,1.655856,-5.826179,6.946150,0.412425,0.284656,0.699037
56033,1.446547,-5.542726,7.162951,0.408535,0.283120,0.645810
56034,1.423870,-5.615244,6.960147,0.422265,0.284643,0.592473
56035,1.516888,-5.642075,7.007699,0.436898,0.273004,0.577221
56036,1.620737,-5.616301,7.168737,0.442027,0.261480,0.593600
56037,1.490320,-5.302958,7.299249,0.410198,0.274112,0.578096
56038,1.189627,-5.102359,7.219060,0.383933,0.264087,0.530007
56039,1.117036,-5.063966,7.197838,0.359311,0.243428,0.476218
56040,1.066031,-4.874502,7.306568,0.317849,0.240901,0.443025
56041,0.889465,-4.892128,7.481752,0.259817,0.249401,0.414212
56042,0.835016,-4.766975,7.496182,0.222234,0.228689,0.371036
56043,0.733311,-4.695278,7.452032,0.171616,0.225223,0.308343
56044,0.865211,-4.811188,7.267812,0.165283,0.193366,0.249688
56045,0.877182,-4.453277,7.596742,0.095658,0.179673,0.189252
56046,0.854708,-4.487028,7.668860,0.042746,0.211960,0.103426
56047,1.039929,-4.433860,7.713536,0.009830,0.235175,0.020878
56048,1.056047,-4.509664,7.922092,-0.031725,0.268475,-0.060178
56049,0.998430,-4.356331,8.009466,-0.060971,0.299354,-0.159838
56050,0.826836,-4.081889,7.931383,-0.082546,0.314067,-0.275794
56051,0.730784,-4.003363,8.054730,-0.134362,0.341240,-0.401867
56052,0.791237,-4.158342,8.139256,-0.192669,0.379829,-0.499968
56053,0.948103,-4.248184,8.379040,-0.262864,0.417482,-0.571026
56054,1.042913,-4.596162,8.541396,-0.342768,0.480075,-0.636754
56055,1.102964,-5.019166,8.586878,-0.390899,0.542842,-0.720464
56056,1.286948,-5.257218,8.562759,-0.387062,0.612189,-0.824540
56057,1.389998,-5.509471,8.517202,-0.325184,0.666883,-0.938107
56058,1.366504,-5.537585,8.383131,-0.215890,0.692827,-1.033502
56059,1.210355,-5.324838,8.315355,-0.119605,0.687851,-1.114855
56060,1.219306,-5.043306,8.231522,-0.069151,0.688132,-1.196710
56061,1.378749,-4.879400,8.190460,-0.029261,0.704796,-1.273904
56062,1.556355,-4.879412,8.213506,-0.009460,0.739641,-1.344870
56063,1.650377,-4.951381,8.325592,-0.016882,0.799308,-1.406584
56064,1.742233,-5.022349,8.438749,-0.067834,0.871462,-1.455786
56065,1.773671,-4.985082,8.553217,-0.161154,0.966628,-1.505805
56066,1.937915,-4.993451,8.628224,-0.260293,1.051032,-1.569115
56067,1.934282,-5.064918,8.515178,-0.373787,1.111324,-1.628682
56068,1.667508,-5.044697,8.121032,-0.456239,1.108747,-1.676792
56069,1.639663,-5.008079,7.925092,-0.534943,1.085268,-1.701806
56070,1.697857,-5.226832,7.989694,-0.628096,1.086922,-1.700345
56071,1.982159,-5.820608,8.057606,-0.699781,1.115404,-1.673225
56072,2.323964,-6.534034,8.014624,-0.701604,1.163841,-1.642458
56073,2.468021,-7.164684,7.834856,-0.607950,1.219219,-1.602201
56074,2.220761,-7.413374,7.621393,-0.466138,1.255184,-1.584092
56075,2.048859,-7.480049,7.590295,-0.341205,1.247747,-1.581509
56076,2.007814,-7.339754,7.399293,-0.240190,1.238837,-1.569483
56077,2.030949,-7.111777,7.292868,-0.174417,1.246214,-1.547161
56078,2.021807,-6.918828,7.228675,-0.150337,1.246566,-1.509681
56079,2.035586,-6.833013,7.186130,-0.179465,1.239493,-1.462345
56080,2.111012,-6.947311,7.138350,-0.230887,1.226528,-1.412770
56081,2.104964,-7.128041,7.009726,-0.263866,1.215162,-1.348141
56082,1.928591,-7.118631,6.919756,-0.298340,1.217932,-1.300325
56083,1.767696,-7.239464,6.811586,-0.329903,1.205311,-1.252650
56084,1.615849,-7.240825,6.711664,-0.359025,1.191042,-1.201968
56085,1.450291,-7.111556,6.570229,-0.418873,1.158357,-1.142220
56086,1.349693,-7.074300,6.401656,-0.486607,1.115597,-1.075071
56087,1.309387,-7.111354,6.236876,-0.554545,1.075431,-1.014488
56088,1.302560,-7.145330,6.151586,-0.607980,1.037527,-0.955934
56089,1.354271,-7.219356,6.057439,-0.661394,0.990403,-0.891435
56090,1.276561,-7.311762,5.984296,-0.709317,0.947411,-0.831520
56091,1.163612,-7.367836,5.913987,-0.748457,0.907318,-0.772680
56092,1.058421,-7.520426,5.882951,-0.767309,0.867372,-0.735147
56093,0.917657,-7.573394,5.907641,-0.766469,0.824218,-0.705036
56094,0.758370,-7.522783,5.915646,-0.770269,0.768271,-0.682319
56095,0.728686,-7.463976,6.005431,-0.780047,0.707540,-0.669156
56096,0.745421,-7.357200,6.072140,-0.803698,0.684257,-0.664158
56097,0.667742,-7.103968,6.241514,-0.821924,0.676127,-0.659061
56098,0.566611,-6.874621,6.153813,-0.862411,0.640494,-0.661346
56099,0.715644,-6.662621,6.195723,-0.915094,0.632815,-0.683445
56100,0.888383,-6.703485,6.262697,-0.978010,0.649432,-0.699971
56101,1.175496,-7.048894,6.287127,-1.002031,0.676157,-0.699044
56102,1.240111,-7.417068,6.357157,-0.969629,0.707035,-0.686862
56103,1.230670,-7.700211,6.423651,-0.911923,0.726654,-0.666398
56104,1.009173,-7.785382,6.489174,-0.838241,0.713630,-0.644957
56105,0.953610,-7.798591,6.493650,-0.785769,0.681442,-0.615040
56106,1.027846,-7.657552,6.678072,-0.752811,0.678029,-0.591374
56107,1.129669,-7.523926,6.785429,-0.784466,0.706089,-0.574952
56108,1.160163,-7.656750,6.575217,-0.818690,0.709337,-0.548006
56109,1.155070,-7.868822,6.186041,-0.804731,0.700726,-0.517064
56110,1.181543,-8.098802,5.876524,-0.747175,0.691795,-0.480759
56111,1.136649,-8.147453,5.688740,-0.646199,0.676615,-0.464426
56112,1.033243,-7.978635,5.685791,-0.560088,0.662233,-0.461641
56113,0.993335,-7.834068,5.629474,-0.513507,0.629436,-0.461523
56114,1.016500,-7.680648,5.387710,-0.504626,0.569167,-0.451515
56115,1.073667,-7.320997,5.020955,-0.507499,0.498888,-0.439570
56116,1.131581,-6.950730,4.934890,-0.566232,0.422984,-0.423906
56117,1.331354,-6.626958,5.257186,-0.738600,0.346331,-0.398660
56118,1.432892,-6.701700,5.484971,-1.001169,0.291316,-0.389592
56119,1.357483,-6.977998,5.381704,-1.208627,0.260687,-0.400931
56120,1.083651,-7.269489,5.003488,-1.294252,0.245531,-0.416587
56121,0.812794,-7.415254,4.754675,-1.267180,0.217607,-0.434364
56122,0.997576,-7.378650,4.947293,-1.253760,0.193586,-0.455094
56123,1.283279,-7.318900,5.358407,-1.309224,0.228831,-0.478854
56124,1.336239,-7.445597,5.549767,-1.346825,0.287421,-0.506687
56125,1.106368,-7.646860,5.456443,-1.291324,0.328193,-0.524904
56126,0.922691,-7.774941,5.204749,-1.168992,0.313169,-0.537494
56127,1.059372,-7.362578,5.105348,-1.022994,0.266586,-0.570912
56128,1.530772,-6.871925,5.162693,-0.997512,0.233472,-0.604916
56129,1.746033,-6.747183,5.003739,-1.028212,0.262825,-0.671315
56130,1.560171,-7.228281,4.644359,-1.013653,0.312812,-0.740520
56131,1.174865,-8.242712,4.308099,-0.855603,0.325759,-0.782102
56132,1.056014,-8.979318,4.110874,-0.574443,0.311155,-0.785849
56133,1.262498,-9.326973,4.094900,-0.356083,0.288436,-0.747344
56134,1.467229,-9.492114,4.056454,-0.255707,0.269523,-0.668898
56135,1.453210,-9.650498,3.887479,-0.231739,0.233541,-0.578165
56136,1.344748,-9.934100,3.774972,-0.284580,0.170534,-0.473177
56137,1.304576,-10.598770,3.639164,-0.329679,0.074920,-0.349790
56138,1.533980,-11.243184,3.532031,-0.275813,-0.001852,-0.230920
56139,1.866131,-11.479221,3.607581,-0.197696,-0.059326,-0.108319
56140,1.981541,-11.485476,3.654117,-0.158659,-0.080354,0.003786
56141,1.916068,-11.455656,3.803722,-0.126502,-0.117063,0.116546
56142,1.675085,-11.376399,3.814043,-0.092344,-0.166160,0.224724
56143,1.586885,-11.163948,3.838568,-0.046565,-0.229346,0.335940
56144,1.647474,-10.965049,3.863927,-0.005614,-0.268681,0.445624
56145,1.690654,-10.677624,3.913796,0.059332,-0.278355,0.521300
56146,1.710009,-10.331264,3.879980,0.133300,-0.268025,0.586149
56147,1.623745,-10.030705,3.989592,0.202779,-0.268817,0.645285
56148,1.571195,-9.796580,4.224328,0.263649,-0.267621,0.684747
56149,1.470435,-9.311105,4.382927,0.342416,-0.272538,0.713606
56150,1.500970,-8.822552,4.438812,0.396719,-0.279736,0.717593
56151,1.505590,-8.587816,4.327524,0.429002,-0.264009,0.698776
56152,1.463331,-8.455156,4.346606,0.464969,-0.256256,0.674107
56153,1.435472,-8.343133,4.456073,0.517165,-0.238085,0.669173
56154,1.376352,-8.171968,4.648127,0.540891,-0.229133,0.655418
56155,1.212604,-8.130482,4.638497,0.568736,-0.214396,0.650749
56156,1.123175,-8.042636,4.733014,0.573315,-0.218897,0.642071
56157,1.065002,-7.971512,4.784334,0.563291,-0.214491,0.629850
56158,1.052487,-7.930012,4.820919,0.547510,-0.215704,0.613177
56159,1.072726,-7.948486,4.776930,0.534057,-0.217257,0.588655
56160,1.165850,-8.157311,4.687670,0.580143,-0.210609,0.564817
56161,0.894856,-8.476879,4.686639,0.684405,-0.188865,0.581549
56162,0.418056,-8.633467,4.531941,0.769546,-0.218197,0.608107
56163,0.115451,-8.672703,4.278289,0.824330,-0.320704,0.627808
56164,0.320159,-8.762965,4.161548,0.832481,-0.433609,0.638895
56165,0.609923,-8.839172,4.090204,0.842912,-0.486723,0.635298
56166,0.619790,-8.671720,4.287986,0.853400,-0.518023,0.615524
56167,0.589262,-8.389916,4.362153,0.837761,-0.561786,0.605239
56168,0.492996,-8.179842,4.381759,0.793527,-0.608959,0.601156
56169,0.339781,-7.813111,4.336425,0.715504,-0.652730,0.609174
56170,0.276900,-7.628279,4.237797,0.614279,-0.683214,0.611293
56171,0.317989,-7.525751,4.293865,0.502476,-0.707144,0.625416
56172,0.296211,-7.526087,4.404251,0.396792,-0.725676,0.630030
56173,0.302966,-7.669673,4.508414,0.305399,-0.744870,0.634071
56174,0.412052,-7.939021,4.428628,0.260521,-0.770942,0.643847
56175,0.524634,-8.231253,4.335320,0.259885,-0.781950,0.656985
56176,0.483422,-8.420694,4.424610,0.304642,-0.785131,0.654006
56177,0.356879,-8.545165,4.506265,0.347550,-0.825701,0.647811
56178,0.179455,-8.414268,4.688430,0.378004,-0.878048,0.648623
56179,0.091487,-8.259129,4.790410,0.400878,-0.944360,0.659011
56180,0.203273,-8.129818,4.598902,0.415763,-1.027489,0.689582
56181,0.535150,-8.210255,4.597066,0.376804,-1.096045,0.727103
56182,0.887107,-8.508082,4.457677,0.385057,-1.121273,0.761244
56183,0.998194,-8.803715,4.381224,0.465647,-1.087393,0.783587
56184,0.590861,-8.932664,4.467850,0.590645,-1.104924,0.802343
56185,0.576516,-9.003003,4.695236,0.666437,-1.195452,0.849565
56186,0.662065,-9.107232,4.782362,0.684232,-1.261207,0.923616
56187,0.693390,-9.085105,4.816768,0.670463,-1.329636,1.003036
56188,0.963647,-8.961293,4.758832,0.676782,-1.369211,1.062023
56189,1.177026,-9.076899,4.582478,0.732964,-1.370112,1.103931
56190,1.200088,-9.007434,4.899717,0.834999,-1.360416,1.123974
56191,1.183175,-8.617526,5.572962,0.863133,-1.356436,1.136699
56192,1.196902,-8.218252,5.962751,0.842950,-1.354422,1.164277
56193,1.102420,-7.827557,5.820564,0.832362,-1.353667,1.190387
56194,1.018846,-7.353240,5.606005,0.787911,-1.356954,1.213942
56195,1.212767,-7.088786,5.706975,0.695947,-1.386228,1.253782
56196,1.460936,-7.056083,5.994206,0.602161,-1.395228,1.285364
56197,1.821229,-7.369248,6.022224,0.568983,-1.370979,1.304590
56198,1.878800,-7.676876,6.231396,0.633839,-1.314659,1.292798
56199,1.631282,-7.644847,6.586392,0.720848,-1.272548,1.261265
56200,1.517707,-7.201339,7.079588,0.736859,-1.242146,1.246360
56201,1.389094,-6.552943,7.221191,0.674882,-1.216362,1.241115
56202,1.261605,-5.926707,7.210189,0.566561,-1.184905,1.229834
56203,1.517405,-5.583624,7.241270,0.405870,-1.183846,1.221112
56204,1.846879,-5.817293,7.462233,0.260116,-1.127153,1.200133
56205,2.037083,-6.489695,7.576616,0.200098,-1.074348,1.185870
56206,1.942205,-6.629817,7.931302,0.220439,-0.997398,1.170620
56207,1.471481,-6.245880,7.941879,0.202618,-0.911299,1.122045
56208,0.880508,-5.903063,7.723806,0.185113,-0.876011,1.050829
56209,0.722086,-5.508558,7.524449,0.152471,-0.930117,1.004809
56210,0.885444,-5.367420,7.582244,0.072671,-1.014165,0.991597
56211,1.121751,-5.297176,7.558983,0.001639,-1.084944,0.982446
56212,1.183279,-5.545973,7.459087,-0.016101,-1.057608,0.918925
56213,1.326790,-6.632179,7.156140,0.106970,-0.964774,0.824957
56214,1.282201,-6.484895,7.442932,0.269741,-0.840826,0.728974
56215,0.742937,-5.735582,7.869826,0.314759,-0.715481,0.587320
56216,0.479575,-5.123496,7.757484,0.379090,-0.692631,0.432336
56217,0.711159,-4.373866,7.771797,0.329678,-0.659920,0.305971
56218,0.698179,-4.337068,7.397551,0.287266,-0.614045,0.193860
56219,0.628936,-4.732517,6.847053,0.287111,-0.604803,0.087785
56220,0.991656,-4.851419,6.881482,0.305858,-0.586636,-0.019471
56221,1.067898,-4.780321,6.881461,0.338021,-0.512569,-0.155280
56222,0.867721,-4.317380,6.789649,0.363318,-0.472356,-0.309853
56223,0.762678,-3.638356,6.689296,0.323009,-0.467063,-0.471321
56224,0.709942,-2.960057,6.608580,0.194856,-0.466203,-0.637906
56225,0.749783,-2.855110,6.330639,0.034627,-0.481767,-0.815285
56226,0.985826,-3.006605,5.955228,-0.104432,-0.512096,-0.994075
56227,1.193481,-3.165697,5.702157,-0.195134,-0.565061,-1.188865
56228,1.450095,-3.218302,5.423500,-0.252968,-0.615240,-1.402860
56229,1.613791,-3.348716,5.222786,-0.284071,-0.656069,-1.630538
56230,1.765392,-3.404713,5.146761,-0.289764,-0.695727,-1.852521
56231,1.882552,-3.455292,5.098192,-0.280267,-0.748727,-2.060947
56232,1.951296,-3.493240,5.134821,-0.272428,-0.825941,-2.242447
56233,2.200344,-3.560005,5.289988,-0.293840,-0.939980,-2.379617
56234,2.741162,-3.542475,5.287447,-0.360525,-1.063802,-2.498389
56235,3.271953,-3.469938,5.021912,-0.425562,-1.181299,-2.638153
56236,3.629780,-3.401592,4.475821,-0.455663,-1.333496,-2.806802
56237,4.080767,-3.279481,3.902998,-0.461875,-1.530920,-2.977245
56238,4.675974,-3.294533,3.585511,-0.470172,-1.724114,-3.130304
56239,5.368494,-3.699502,3.817685,-0.505002,-1.835288,-3.242377
56240,6.026455,-4.444198,4.264684,-0.588008,-1.872106,-3.262355
56241,6.498936,-4.972394,4.531016,-0.661039,-1.889047,-3.246366
56242,6.753917,-4.825779,4.545818,-0.741006,-1.914557,-3.281034
56243,7.136249,-4.468125,4.204394,-0.832586,-1.977304,-3.367641
56244,7.721001,-4.347848,3.265964,-0.875803,-2.111048,-3.442326
56245,8.401691,-4.412271,2.270710,-0.898578,-2.248412,-3.463035
56246,8.747435,-4.789393,1.976558,-1.014209,-2.326072,-3.408034
56247,9.512351,-5.491199,2.275539,-1.253846,-2.374854,-3.229429
56248,9.946009,-6.230170,2.500148,-1.500908,-2.368874,-3.006311
56249,9.927122,-6.792227,2.344710,-1.645371,-2.390966,-2.825493
56250,10.290402,-7.042061,2.265466,-1.759904,-2.444497,-2.679368
56251,10.926819,-6.846376,2.679144,-1.890523,-2.401477,-2.590612
56252,11.020416,-6.906406,2.824859,-2.059734,-2.299345,-2.570530
56253,10.544702,-7.288983,2.505915,-2.064485,-2.269324,-2.601298
56254,10.609209,-7.265609,2.800868,-2.007111,-2.178395,-2.601287
56255,10.507552,-7.447683,3.588354,-2.058667,-1.898248,-2.520042
56256,9.855460,-7.762218,4.220551,-2.069332,-1.618524,-2.420922
56257,9.580910,-8.006092,4.258108,-1.987041,-1.490103,-2.297219
56258,9.927919,-7.796926,4.399278,-1.925421,-1.394628,-2.163501
56259,10.119950,-7.868950,4.430354,-1.750513,-1.336045,-2.060895
56260,10.564003,-7.917916,4.213865,-1.471341,-1.312048,-1.982227
56261,11.391615,-8.140088,3.598009,-1.189965,-1.295336,-1.862200
56262,11.851123,-8.225629,3.251158,-0.870812,-1.157198,-1.766740
56263,11.402013,-7.603742,3.277868,-0.518441,-0.960446,-1.745374
56264,10.983248,-6.638191,3.496039,-0.204460,-0.837926,-1.694020
56265,10.781809,-5.548513,3.834923,0.049534,-0.690257,-1.587193
56266,10.605065,-4.349598,3.752566,0.126151,-0.553408,-1.479197
56267,10.657449,-3.597264,3.292649,0.108111,-0.465012,-1.368280
56268,10.892065,-3.234842,2.644524,0.023183,-0.386646,-1.240460
56269,10.887999,-3.040214,2.119254,-0.040699,-0.267739,-1.137725
56270,10.730782,-2.854219,1.867510,-0.093046,-0.162895,-1.067554
56271,10.641016,-2.804380,1.796996,-0.121177,-0.129319,-0.991937
56272,10.552992,-2.881214,1.517286,-0.139681,-0.123375,-0.899802
56273,10.210563,-2.830056,1.159351,-0.163940,-0.114154,-0.841303
56274,9.877702,-2.600187,1.000175,-0.162902,-0.101447,-0.809278
56275,9.799126,-2.613688,0.899382,-0.138828,-0.100321,-0.769382
56276,9.857486,-2.646334,0.719404,-0.067618,-0.096029,-0.716763
56277,10.035738,-2.711244,0.530147,0.008607,-0.095678,-0.659561
56278,10.374603,-2.836758,0.309244,0.090715,-0.092023,-0.580666
56279,10.504132,-2.861788,0.295743,0.173993,-0.087131,-0.489339
56280,10.431284,-2.794028,0.429367,0.210582,-0.100123,-0.415162
56281,10.291341,-2.610567,0.632939,0.204026,-0.124919,-0.355130
56282,10.052907,-2.501251,0.795544,0.169705,-0.154714,-0.319240
56283,9.986369,-2.488433,0.854538,0.155798,-0.191898,-0.296434
56284,9.950357,-2.543387,0.810002,0.180038,-0.211066,-0.285390
56285,9.772039,-2.623971,0.669694,0.272825,-0.208133,-0.297252
56286,9.504556,-2.571541,0.550845,0.442539,-0.206348,-0.337609
56287,9.229941,-2.223619,0.377141,0.647759,-0.211042,-0.393389
56288,9.096204,-1.697047,0.354021,0.841403,-0.233691,-0.445779
56289,9.093274,-1.061346,0.388836,0.976823,-0.258954,-0.501901
56290,9.205827,-0.266042,0.497024,1.029128,-0.285361,-0.539762
56291,9.445388,0.429568,0.789804,0.956604,-0.295867,-0.574199
56292,9.667858,1.033492,1.041661,0.791881,-0.290427,-0.606774
56293,9.738536,1.376256,1.349533,0.560788,-0.285562,-0.639386
56294,9.778941,1.442048,1.382015,0.327350,-0.287538,-0.671212
56295,9.918708,1.375742,1.448460,0.092049,-0.293806,-0.702189
56296,10.034531,1.086735,1.336017,-0.108909,-0.282177,-0.729354
56297,10.139766,0.734369,1.304575,-0.262488,-0.269388,-0.748622
56298,10.180032,0.248908,1.163840,-0.353322,-0.250275,-0.767914
56299,10.181429,-0.037969,1.080112,-0.378243,-0.230143,-0.775117
56300,10.102260,-0.300965,0.994087,-0.369050,-0.213524,-0.783833
56301,10.058884,-0.493793,0.941756,-0.350362,-0.206962,-0.778251
56302,10.038545,-0.549477,0.934232,-0.329401,-0.190710,-0.771215
56303,9.960184,-0.563623,0.926446,-0.321016,-0.180120,-0.753740
56304,9.886082,-0.506299,0.901397,-0.328566,-0.162039,-0.728554
56305,9.896626,-0.629724,0.856886,-0.357147,-0.140571,-0.682002
56306,9.924773,-0.620065,0.860401,-0.388452,-0.109342,-0.629185
56307,9.949961,-0.922671,0.778124,-0.410000,-0.076893,-0.570062
56308,9.909217,-1.129058,0.649058,-0.404633,-0.044627,-0.503939
56309,9.979832,-1.206967,0.599047,-0.392935,-0.024236,-0.433105
56310,10.065916,-1.281775,0.521084,-0.370109,-0.001730,-0.365260
56311,10.055376,-1.361204,0.515643,-0.343132,0.016034,-0.296641
56312,10.039477,-1.364669,0.454258,-0.305547,0.038943,-0.237222
56313,10.074172,-1.430458,0.465064,-0.269454,0.051279,-0.169427
56314,10.056317,-1.521207,0.423200,-0.217283,0.058506,-0.114425
56315,10.080527,-1.536526,0.390602,-0.143448,0.064301,-0.062810
56316,10.003889,-1.502675,0.425647,-0.066159,0.066396,-0.015781
56317,10.011792,-1.385512,0.393906,0.008362,0.073635,0.033105
56318,9.974870,-1.251629,0.387355,0.074023,0.071236,0.075747
56319,9.956687,-1.093010,0.441314,0.139725,0.071255,0.110176
56320,9.982672,-0.958912,0.471594,0.194331,0.071035,0.151312
56321,9.964490,-0.806035,0.525494,0.237742,0.068539,0.166171
56322,10.017061,-0.650253,0.454476,0.263436,0.056166,0.181629
56323,10.068254,-0.573246,0.500061,0.278334,0.069346,0.192120
56324,10.076604,-0.400001,0.553085,0.299280,0.076282,0.201373
56325,10.081694,-0.145055,0.547111,0.306418,0.078713,0.201649
56326,10.054217,-0.057479,0.532210,0.293434,0.078433,0.198905
56327,10.039417,-0.009213,0.552173,0.273993,0.077745,0.194213
56328,9.922008,0.076099,0.546433,0.237351,0.071200,0.183886
56329,9.893685,0.090591,0.546723,0.206601,0.065541,0.173191
56330,9.856204,-0.037879,0.540848,0.182137,0.062751,0.160977
56331,9.762839,-0.130434,0.575557,0.175504,0.060348,0.159811
56332,9.733935,-0.216094,0.545595,0.175507,0.048492,0.154817
56333,9.719104,-0.265719,0.532852,0.176359,0.045328,0.151778
56334,9.702299,-0.287747,0.567045,0.188227,0.042573,0.155177
56335,9.664125,-0.258789,0.481731,0.202457,0.042024,0.150480
56336,9.661628,-0.218377,0.479439,0.210679,0.038363,0.154375
56337,9.649693,-0.219257,0.500751,0.203735,0.033840,0.149914
56338,9.691320,-0.201895,0.474781,0.207077,0.028005,0.146056
56339,9.679599,-0.175734,0.441271,0.202371,0.025826,0.138017
56340,9.695396,-0.205918,0.468252,0.201181,0.019783,0.125339
56341,9.764611,-0.243726,0.501865,0.198007,0.013556,0.119622
56342,9.791690,-0.285545,0.510944,0.191222,0.013602,0.114966
56343,9.786083,-0.341504,0.578924,0.187566,0.007790,0.106811
56344,9.766256,-0.381927,0.521117,0.191418,-0.003292,0.112824
56345,9.809242,-0.440990,0.553128,0.193089,-0.012477,0.101959
56346,9.852521,-0.473988,0.530421,0.201048,-0.018522,0.098195
56347,9.857251,-0.461556,0.516812,0.215210,-0.024204,0.084977
56348,9.850490,-0.459495,0.574044,0.228409,-0.028878,0.071172
56349,9.865263,-0.428374,0.588742,0.236863,-0.031022,0.053753
56350,9.863861,-0.402446,0.632451,0.237103,-0.038837,0.039843
56351,9.817066,-0.404490,0.563354,0.236685,-0.043450,0.028641
56352,9.799568,-0.382849,0.635671,0.237962,-0.044943,0.020110
56353,9.783775,-0.365203,0.607392,0.240941,-0.043310,0.014236
56354,9.795446,-0.354383,0.532455,0.234571,-0.043687,0.012143
56355,9.795629,-0.354182,0.529199,0.240234,-0.039952,0.009473
56356,9.810809,-0.317611,0.541938,0.238180,-0.042472,0.008478
56357,9.842275,-0.274293,0.524335,0.237687,-0.046911,0.001720
56358,9.851421,-0.202894,0.539992,0.230235,-0.043931,-0.004540
56359,9.902819,-0.125677,0.579467,0.215342,-0.042910,-0.013855
56360,9.859658,-0.097789,0.596944,0.199974,-0.043584,-0.017543
56361,9.843758,-0.100125,0.622759,0.175669,-0.042768,-0.035352
56362,9.859065,-0.058817,0.634160,0.152207,-0.042436,-0.043730
56363,9.859319,-0.076486,0.685468,0.132192,-0.036064,-0.051244
56364,9.855764,-0.120391,0.650249,0.117936,-0.031182,-0.062703
56365,9.860987,-0.093292,0.634448,0.102483,-0.022399,-0.069549
56366,9.828868,-0.074659,0.637394,0.087041,-0.015651,-0.068296
56367,9.868829,-0.165890,0.638123,0.070785,-0.010785,-0.072740
56368,9.821804,-0.183868,0.626791,0.055536,-0.008963,-0.068524
56369,9.839440,-0.224239,0.606301,0.046901,-0.005019,-0.075078
56370,9.845924,-0.250677,0.602752,0.038228,-0.002801,-0.069119
56371,9.831283,-0.280480,0.587623,0.034677,0.001198,-0.064476
56372,9.858932,-0.305036,0.596430,0.036154,-0.000179,-0.061451
56373,9.850516,-0.346546,0.522899,0.034729,-0.000816,-0.056423
56374,9.833296,-0.316062,0.598165,0.036441,0.002364,-0.053841
56375,9.877038,-0.335908,0.577265,0.028739,0.003561,-0.047292
56376,9.867280,-0.348060,0.549394,0.023324,0.006983,-0.044490
56377,9.942009,-0.348632,0.569499,0.023101,0.011895,-0.047448
56378,9.922598,-0.400687,0.569227,0.020986,0.014523,-0.039729
56379,9.906388,-0.379338,0.545272,0.028864,0.010722,-0.047056
56380,9.937198,-0.332292,0.531687,0.025749,0.014365,-0.039897
56381,9.932461,-0.348049,0.546570,0.024378,0.013429,-0.039275
56382,9.921214,-0.330397,0.564641,0.015661,0.015634,-0.033267
56383,9.879015,-0.333038,0.542512,0.009386,0.017458,-0.031759
56384,9.879009,-0.329988,0.544476,0.000583,0.021964,-0.029440
56385,9.890298,-0.341121,0.530081,0.003424,0.021533,-0.027021
56386,9.859638,-0.380896,0.547085,-0.000253,0.020368,-0.030754
56387,9.849865,-0.394875,0.520833,0.002817,0.024493,-0.028793
56388,9.845075,-0.412101,0.536600,0.009490,0.022623,-0.023380
56389,9.845044,-0.409825,0.538900,0.013708,0.023131,-0.021592
56390,9.840036,-0.404979,0.499306,0.014631,0.022424,-0.016599
56391,9.817268,-0.375802,0.534531,0.019385,0.020279,-0.008612
56392,9.809122,-0.422774,0.462991,0.017625,0.017393,-0.006781
56393,9.779738,-0.360545,0.501007,0.025060,0.019424,-0.003761
56394,9.779647,-0.360518,0.502803,0.022300,0.015556,0.005639
56395,9.768184,-0.347103,0.520769,0.022915,0.012597,0.007401
56396,9.779459,-0.361752,0.505561,0.028129,0.012097,0.009756
56397,9.772777,-0.328960,0.509781,0.035337,0.009574,0.013239
56398,9.728878,-0.305219,0.531858,0.028211,0.009798,0.013445
56399,9.730460,-0.337277,0.487887,0.027370,0.008201,0.012143
56400,9.756353,-0.338063,0.542599,0.037879,0.006890,0.012417
56401,9.770665,-0.279464,0.503180,0.040573,0.011057,0.007433
56402,9.757441,-0.212132,0.510694,0.040280,0.018256,0.000751
56403,9.799400,-0.182913,0.481031,0.029092,0.017346,-0.009695
56404,9.787946,-0.167629,0.499506,0.011765,0.023124,-0.014668
56405,9.765100,-0.137914,0.534487,-0.007869,0.019207,-0.020553
56406,9.687473,-0.204213,0.540800,-0.018141,0.017596,-0.025999
56407,9.661603,-0.224542,0.543644,-0.028186,0.011081,-0.028474
56408,9.609946,-0.267314,0.547419,-0.024031,0.006415,-0.035084
56409,9.542158,-0.315698,0.580612,-0.030394,0.001072,-0.033839
56410,9.565099,-0.340414,0.547536,-0.027316,-0.002269,-0.036584
56411,9.627193,-0.409830,0.506375,-0.027855,-0.011067,-0.031208
56412,9.698980,-0.462496,0.492841,-0.017960,-0.018868,-0.029251
56413,9.733471,-0.501619,0.441314,-0.006839,-0.023124,-0.027199
56414,9.826386,-0.551387,0.438574,0.015941,-0.032291,-0.025027
56415,9.873517,-0.522945,0.445691,0.038570,-0.038849,-0.022134
56416,9.930098,-0.455347,0.425185,0.058365,-0.046970,-0.013544
56417,9.923690,-0.420052,0.423277,0.068447,-0.057374,-0.012357
56418,9.946320,-0.333761,0.505870,0.064789,-0.060536,-0.007974
56419,9.900800,-0.254569,0.510488,0.065732,-0.061232,-0.003007
