// Start Time: Unknown
// Update Rate: 100.0Hz
// Filter Profile: human (46.1)
// Firmware Version: 4.3.5
PacketCounter,Acc_X,Acc_Y,Acc_Z,Gyr_X,Gyr_Y,Gyr_Z
14047,9.894662,-0.721818,0.509577,-0.021689,0.010499,-0.029760
14048,9.895071,-0.756825,0.529422,-0.013712,0.011218,-0.029083
14049,9.816401,-0.772138,0.526803,-0.010786,0.012146,-0.029337
14050,9.791719,-0.730333,0.543144,-0.007176,0.006485,-0.027355
14051,9.816188,-0.691017,0.490552,0.002017,0.007815,-0.028371
14052,9.757449,-0.730427,0.502529,-0.002927,0.004208,-0.024985
14053,9.791900,-0.684810,0.525928,0.007176,0.003796,-0.023118
14054,9.789502,-0.693560,0.473157,0.007647,0.008498,-0.020903
14055,9.804561,-0.700106,0.519773,0.010821,0.009286,-0.019586
14056,9.799356,-0.645109,0.532427,0.006018,0.009348,-0.018952
14057,9.851436,-0.672545,0.537073,0.003726,0.011801,-0.018312
14058,9.886050,-0.665188,0.580432,0.005161,0.017254,-0.019365
14059,9.853977,-0.657786,0.593957,0.006844,0.022564,-0.018847
14060,9.864347,-0.723655,0.554123,0.014545,0.024754,-0.029282
14061,9.859361,-0.705639,0.587629,0.024283,0.031972,-0.024685
14062,9.846830,-0.683759,0.598832,0.022070,0.035599,-0.020652
14063,9.848821,-0.632681,0.636943,0.015308,0.035472,-0.023039
14064,9.809182,-0.620838,0.629054,0.008073,0.034314,-0.019018
14065,9.821243,-0.600724,0.605889,-0.001950,0.035888,-0.017503
14066,9.779900,-0.676234,0.582722,-0.001412,0.041768,-0.011896
14067,9.811870,-0.680362,0.575384,-0.001906,0.042048,-0.015041
14068,9.804281,-0.674996,0.556943,-0.008054,0.048976,-0.008428
14069,9.798915,-0.659167,0.592176,-0.005439,0.047560,-0.004097
14070,9.816359,-0.693498,0.558513,-0.010073,0.046297,-0.005301
14071,9.816116,-0.693277,0.563039,-0.009756,0.047332,-0.000336
14072,9.808781,-0.726889,0.563791,-0.002200,0.049526,0.000617
14073,9.778213,-0.672741,0.614216,0.001173,0.044016,0.001046
14074,9.770565,-0.668811,0.595839,0.005457,0.047911,0.005898
14075,9.789889,-0.655024,0.596571,0.003468,0.041563,0.000409
14076,9.742819,-0.641278,0.566020,0.001445,0.038887,0.003540
14077,9.769518,-0.631684,0.588968,-0.004892,0.037299,0.000880
14078,9.786872,-0.628575,0.535514,-0.005379,0.037580,-0.002265
14079,9.759776,-0.638268,0.519688,-0.007228,0.033587,-0.000960
14080,9.766906,-0.642375,0.545765,-0.007053,0.032269,-0.002787
14081,9.764771,-0.653043,0.495245,-0.009386,0.028558,-0.004625
14082,9.784533,-0.676236,0.513053,-0.005032,0.023800,-0.007451
14083,9.777200,-0.671269,0.492238,-0.007122,0.019948,-0.007717
14084,9.764805,-0.688994,0.520442,-0.005386,0.015290,-0.005332
14085,9.809329,-0.675625,0.483919,-0.005354,0.010306,-0.004399
14086,9.777376,-0.707241,0.514745,-0.001304,0.004516,-0.012191
14087,9.789798,-0.687789,0.488451,0.005239,-0.000197,-0.010417
14088,9.770279,-0.700644,0.491840,0.012938,-0.005476,-0.013732
14089,9.797295,-0.689481,0.510371,0.016975,-0.012582,-0.011972
14090,9.745644,-0.696845,0.523836,0.020110,-0.017948,-0.013104
14091,9.765167,-0.643666,0.499702,0.026860,-0.017817,-0.010694
14092,9.772649,-0.646564,0.520414,0.025578,-0.030747,-0.013927
14093,9.819389,-0.621306,0.533088,0.020211,-0.032901,-0.010303
14094,9.817647,-0.631175,0.476179,0.020840,-0.040662,-0.011447
14095,9.785736,-0.624466,0.483419,0.019970,-0.043909,-0.013406
14096,9.791649,-0.675980,0.467366,0.021817,-0.051063,-0.016246
14097,9.792014,-0.674246,0.462199,0.030416,-0.058083,-0.016685
14098,9.762329,-0.655902,0.521461,0.040021,-0.058192,-0.017935
14099,9.796688,-0.610451,0.538945,0.044440,-0.061774,-0.017376
14100,9.796738,-0.570558,0.514265,0.041403,-0.058913,-0.021472
14101,9.822779,-0.644656,0.512394,0.038331,-0.062218,-0.028026
14102,9.796313,-0.651613,0.487362,0.035158,-0.063022,-0.029357
14103,9.809429,-0.667667,0.473735,0.041268,-0.064976,-0.036917
14104,9.815635,-0.716848,0.456066,0.048782,-0.068940,-0.038445
14105,9.798499,-0.677855,0.487715,0.055209,-0.069849,-0.041045
14106,9.789815,-0.718635,0.424218,0.065131,-0.068906,-0.037363
14107,9.819221,-0.655494,0.470927,0.066132,-0.073155,-0.039710
14108,9.824872,-0.667210,0.433885,0.066364,-0.069595,-0.029537
14109,9.800785,-0.662703,0.461927,0.069278,-0.068661,-0.029813
14110,9.885616,-0.694098,0.447977,0.064887,-0.066370,-0.020818
14111,9.899297,-0.749141,0.453662,0.064796,-0.063857,-0.015611
14112,9.928084,-0.812908,0.505433,0.073432,-0.060981,-0.005031
14113,10.026644,-0.941856,0.523817,0.080148,-0.048411,0.013596
14114,10.051241,-1.107203,0.510577,0.095246,-0.025375,0.034106
14115,9.953384,-1.181588,0.529853,0.133182,-0.019337,0.052496
14116,9.956691,-1.088365,0.597809,0.163348,-0.009211,0.070821
14117,9.979450,-0.982400,0.662103,0.171690,-0.008652,0.085939
14118,9.937373,-1.068406,0.638318,0.173030,0.006797,0.107188
14119,9.911701,-1.154360,0.558846,0.192133,0.016561,0.126877
14120,9.832978,-1.175927,0.457035,0.217104,0.023199,0.146949
14121,9.789129,-1.230503,0.417632,0.235394,0.030896,0.168023
14122,9.799914,-1.341257,0.456299,0.255323,0.032731,0.188086
14123,9.824649,-1.424724,0.522269,0.271773,0.044011,0.227576
14124,9.912528,-1.561285,0.587240,0.278706,0.056705,0.271695
14125,9.964164,-1.746444,0.632942,0.297098,0.067044,0.323578
14126,9.973350,-2.043138,0.574943,0.349470,0.086326,0.371808
14127,9.956105,-2.225020,0.651378,0.417306,0.108312,0.421316
14128,9.986631,-2.306646,0.601993,0.491933,0.118951,0.473181
14129,9.958781,-2.383949,0.601345,0.568544,0.127170,0.535529
14130,9.930749,-2.497703,0.521669,0.645363,0.137437,0.592953
14131,9.914418,-2.392392,0.496984,0.714659,0.140382,0.651874
14132,9.996872,-2.428329,0.527859,0.740755,0.159923,0.711638
14133,10.087620,-2.458451,0.637946,0.783935,0.188338,0.761692
14134,10.215293,-2.414600,0.749940,0.829967,0.220142,0.816137
14135,10.147572,-2.499716,0.833487,0.864447,0.254450,0.860783
14136,9.952566,-2.297197,0.859870,0.904285,0.265069,0.899047
14137,9.909825,-2.229897,0.825765,0.917430,0.269984,0.941705
14138,10.118602,-2.173659,0.870847,0.875289,0.287967,0.987729
14139,10.265792,-2.269329,1.050554,0.818943,0.337102,1.042568
14140,10.363086,-2.466294,1.190484,0.775470,0.386556,1.096997
14141,10.301415,-2.543356,1.312777,0.754316,0.431089,1.141552
14142,10.197970,-2.702632,1.341975,0.755020,0.460525,1.180483
14143,10.131384,-2.897318,1.362497,0.788201,0.488153,1.210352
14144,10.129014,-2.934537,1.405686,0.799561,0.515638,1.241097
14145,10.101626,-2.887477,1.513766,0.827508,0.550022,1.263792
14146,9.993538,-2.976737,1.611798,0.828671,0.589580,1.292810
14147,10.010726,-3.066556,1.681949,0.811715,0.607200,1.316402
14148,10.023326,-3.083142,1.758618,0.798862,0.636145,1.352377
14149,10.091220,-3.385198,1.739572,0.772830,0.656980,1.381472
14150,10.137073,-3.448585,1.813604,0.790837,0.685929,1.396765
14151,10.003863,-3.620119,1.875504,0.782033,0.715286,1.406964
14152,9.974236,-3.730851,1.920030,0.810112,0.725210,1.428454
14153,9.930525,-3.650576,2.072446,0.830278,0.747755,1.451022
14154,9.841451,-3.630490,2.156469,0.769790,0.752914,1.477504
14155,9.860223,-3.658491,2.193903,0.744701,0.758643,1.502313
14156,9.732971,-3.701390,2.255839,0.691844,0.784556,1.518852
14157,9.608142,-3.867568,2.316243,0.641684,0.800678,1.513377
14158,9.562102,-3.916462,2.412455,0.599025,0.814883,1.519553
14159,9.448399,-4.152087,2.495278,0.581179,0.827300,1.523854
14160,9.315042,-4.041645,2.550580,0.537921,0.836108,1.531449
14161,9.235662,-4.243482,2.601030,0.502664,0.838306,1.533887
14162,9.224975,-4.484179,2.595378,0.515001,0.844382,1.541080
14163,9.116566,-4.466468,2.719736,0.520885,0.859218,1.551773
14164,9.014288,-4.545773,2.796359,0.504144,0.872798,1.565286
14165,8.789143,-4.610580,2.907268,0.484693,0.878778,1.575985
14166,8.627675,-4.593181,2.981533,0.470632,0.868437,1.588256
14167,8.492304,-4.597380,3.025524,0.414410,0.864284,1.585386
14168,8.413846,-4.694350,3.089720,0.360713,0.866634,1.571537
14169,8.408977,-4.787547,3.171950,0.323838,0.872805,1.557002
14170,8.284677,-4.904052,3.335087,0.307016,0.887266,1.547822
14171,8.103675,-5.046363,3.402835,0.285886,0.891302,1.542077
14172,7.871111,-5.113051,3.416660,0.266249,0.881792,1.535142
14173,7.782816,-5.299181,3.477389,0.252671,0.867914,1.531337
14174,7.696615,-5.363727,3.505632,0.243691,0.860126,1.524346
14175,7.614816,-5.375928,3.577858,0.231383,0.843453,1.519235
14176,7.547124,-5.531850,3.705241,0.222236,0.832741,1.507909
14177,7.415536,-5.562123,3.750382,0.213132,0.823307,1.484391
14178,7.203116,-5.681594,3.725586,0.236376,0.818487,1.464033
14179,6.992099,-5.762238,3.819279,0.253059,0.804609,1.439484
14180,6.820466,-5.918067,3.868708,0.284762,0.786567,1.415419
14181,6.643342,-5.945004,3.884827,0.338088,0.771302,1.391838
14182,6.501345,-6.039793,3.981997,0.386420,0.769900,1.369473
14183,6.366344,-6.078979,4.100988,0.415474,0.757673,1.348806
14184,6.219804,-6.189016,4.176200,0.423739,0.751740,1.325934
14185,5.994687,-6.174731,4.284855,0.444436,0.747685,1.306542
14186,5.874978,-6.155770,4.348920,0.452524,0.738505,1.282424
14187,5.799752,-6.299246,4.357224,0.452205,0.720704,1.252263
14188,5.768467,-6.347103,4.408545,0.469139,0.708910,1.231842
14189,5.678298,-6.357369,4.401761,0.471604,0.692730,1.212597
14190,5.581176,-6.249098,4.526763,0.465464,0.684195,1.200287
14191,5.415099,-6.327426,4.591030,0.436418,0.673704,1.177570
14192,5.289664,-6.333665,4.696544,0.421637,0.655027,1.154481
14193,5.178448,-6.320220,4.749143,0.417661,0.645389,1.128377
14194,5.017850,-6.425515,4.712392,0.410079,0.644378,1.107700
14195,4.834918,-6.453276,4.809540,0.409302,0.626527,1.083827
14196,4.692513,-6.438909,4.903304,0.410422,0.613350,1.066001
14197,4.594553,-6.467830,4.957705,0.398999,0.604838,1.039149
14198,4.495356,-6.524823,4.965957,0.406815,0.599045,1.011962
14199,4.336232,-6.526757,4.982571,0.422789,0.600564,0.978658
14200,4.215558,-6.329845,5.194618,0.438076,0.597292,0.944069
14201,4.119168,-6.337197,5.294378,0.425501,0.592687,0.904010
14202,4.113799,-6.329881,5.377795,0.400172,0.589541,0.870394
14203,3.989609,-6.485906,5.447973,0.374306,0.589063,0.848912
14204,3.876087,-6.569678,5.479672,0.360297,0.586371,0.830183
14205,3.792065,-6.688205,5.547805,0.366319,0.570575,0.819152
14206,3.732585,-6.820630,5.597092,0.337003,0.565529,0.806776
14207,3.617929,-6.902308,5.624787,0.307556,0.560721,0.795823
14208,3.504353,-7.020116,5.583380,0.311569,0.556004,0.782049
14209,3.381918,-7.035483,5.645018,0.320735,0.550941,0.778369
14210,3.348339,-7.095817,5.707432,0.321096,0.549684,0.776554
14211,3.256271,-7.263163,5.783875,0.303695,0.546207,0.772874
14212,3.221393,-7.248716,5.778814,0.336653,0.549970,0.774525
14213,3.061814,-7.210008,5.847417,0.337421,0.550226,0.772684
14214,2.944066,-7.190720,5.928376,0.349236,0.540250,0.776418
14215,2.837106,-7.031254,6.026214,0.332838,0.537767,0.766276
14216,2.804785,-7.094078,6.064276,0.294422,0.538232,0.759256
14217,2.715387,-7.071641,6.066151,0.276502,0.538259,0.753304
14218,2.613930,-7.128582,6.059593,0.277677,0.533475,0.750408
14219,2.512177,-7.027127,6.138582,0.280449,0.516983,0.747342
14220,2.499490,-7.032120,6.056907,0.253657,0.505857,0.747532
14221,2.418901,-6.990323,5.996739,0.247002,0.497476,0.735798
14222,2.296721,-7.027841,6.000626,0.249802,0.489893,0.726952
14223,2.257612,-6.968696,6.020788,0.251590,0.477410,0.715235
14224,2.179563,-6.969813,6.048191,0.233431,0.469321,0.704795
14225,2.076788,-7.076187,6.048496,0.241475,0.470101,0.699023
14226,1.930689,-7.024716,6.095072,0.234247,0.452223,0.702662
14227,1.897775,-7.055904,6.114289,0.234652,0.441236,0.701877
14228,1.770285,-7.114997,6.093179,0.234603,0.440376,0.703131
14229,1.656992,-7.102940,6.211089,0.245606,0.435341,0.698565
14230,1.554945,-7.138568,6.030576,0.241430,0.408517,0.703807
14231,1.551423,-6.961226,6.358190,0.254589,0.359785,0.737550
14232,1.628926,-6.675203,6.349187,0.188134,0.391610,0.692267
14233,1.373122,-7.066403,6.106641,0.128687,0.400120,0.675349
14234,1.181566,-7.267025,6.004699,0.248646,0.381379,0.660515
14235,1.132407,-6.904749,6.178688,0.328713,0.370149,0.626321
14236,1.074691,-6.666493,6.261027,0.327554,0.353341,0.602891
14237,1.050825,-6.457347,6.306040,0.314892,0.346647,0.589211
14238,1.009414,-6.249145,6.449612,0.281022,0.336370,0.566983
14239,0.894469,-6.199882,6.384966,0.218278,0.324911,0.545923
14240,0.822371,-6.157742,6.300402,0.149456,0.303434,0.519814
14241,0.775463,-6.360174,6.255272,0.118314,0.302430,0.499691
14242,0.740596,-6.295623,6.325591,0.095268,0.282300,0.470235
14243,0.875654,-6.354729,6.351042,0.062814,0.277185,0.440147
14244,0.757899,-6.354030,6.364009,0.054381,0.280345,0.413549
14245,0.704465,-6.522265,6.269922,0.068314,0.248100,0.384346
14246,0.524022,-6.461114,6.243100,0.109867,0.237472,0.357683
14247,0.421527,-6.224146,6.277412,0.100942,0.207744,0.321778
14248,0.418900,-6.220151,6.236453,0.049101,0.174541,0.301024
14249,0.296206,-6.174095,6.167635,0.008604,0.142561,0.283977
14250,0.327930,-6.196544,6.162455,-0.069831,0.109251,0.261007
14251,0.306298,-6.562394,5.999384,-0.140071,0.093730,0.255690
14252,0.217881,-6.739339,6.036276,-0.169234,0.059195,0.251245
14253,0.179149,-6.586337,6.115027,-0.235723,0.036280,0.237633
14254,-0.073054,-6.409523,6.117274,-0.346901,0.000180,0.220129
14255,-0.045240,-6.064952,6.093455,-0.509739,-0.063888,0.204481
14256,0.027146,-5.802917,6.071398,-0.746221,-0.113345,0.191127
14257,0.136965,-5.832711,5.987799,-1.022957,-0.139979,0.173049
14258,0.010591,-6.001620,5.734749,-1.286794,-0.167288,0.140877
14259,0.049540,-6.345375,5.351727,-1.487084,-0.200211,0.108430
14260,0.088065,-7.005181,5.261769,-1.626125,-0.227977,0.091921
14261,0.215284,-7.107878,5.757629,-1.707159,-0.241222,0.110878
14262,0.292586,-6.814504,6.212769,-1.890342,-0.205558,0.119954
14263,0.216894,-6.510646,6.409942,-2.104443,-0.201554,0.110686
14264,0.217702,-6.340071,6.159567,-2.384784,-0.236602,0.094879
14265,0.488057,-6.979138,5.627528,-2.588621,-0.220204,0.066905
14266,0.562567,-8.140037,5.265181,-2.627603,-0.182991,0.051335
14267,0.526547,-9.364453,5.096736,-2.405472,-0.164300,0.063560
14268,0.770103,-10.334735,4.881166,-2.084321,-0.111761,0.072088
14269,0.718304,-10.980874,4.839055,-1.707930,-0.075550,0.087851
14270,0.710654,-11.071911,4.827681,-1.272701,-0.017287,0.105695
14271,0.517376,-10.571770,5.040926,-0.915992,0.002420,0.091914
14272,0.533197,-10.401130,4.771431,-0.623951,-0.006470,0.086090
14273,0.476590,-10.002127,4.553700,-0.284643,0.002678,0.070235
14274,0.450201,-9.389958,4.483890,-0.039311,0.016292,0.035122
14275,0.290086,-8.397465,4.498170,0.103304,0.026498,-0.003232
14276,0.203240,-7.483640,4.364257,0.117778,0.022442,-0.051403
14277,0.332616,-7.292941,4.132431,0.042620,0.004235,-0.071181
14278,0.290400,-7.646747,4.024068,-0.062432,0.018479,-0.076248
14279,0.215986,-8.246217,3.896665,-0.101878,0.008390,-0.074703
14280,0.279994,-8.720168,3.863775,-0.088192,-0.004083,-0.066349
14281,0.350399,-8.894935,3.885512,-0.055286,-0.016244,-0.063878
14282,0.381029,-9.135207,3.931512,-0.012821,-0.029083,-0.060208
14283,0.312525,-9.328438,4.105864,0.028315,-0.038108,-0.046690
14284,0.271361,-9.472278,4.236139,0.058080,-0.050787,-0.021333
14285,0.327685,-9.625706,4.242563,0.096628,-0.060513,0.010173
14286,0.311237,-9.869100,4.170084,0.151706,-0.063873,0.050522
14287,0.354975,-9.773266,4.217079,0.230818,-0.087121,0.072208
14288,0.431140,-9.617573,4.122498,0.295415,-0.100859,0.082215
14289,0.453942,-9.648299,4.039843,0.403908,-0.101218,0.066368
14290,0.435173,-9.877760,4.006906,0.599649,-0.071468,0.040377
14291,0.255099,-10.079232,4.340482,0.899098,-0.041742,-0.001497
14292,0.066265,-9.710998,5.147494,1.202058,-0.008067,-0.031447
14293,0.013514,-9.007001,6.064528,1.423107,0.050419,-0.055791
14294,0.212401,-8.134213,7.241967,1.503492,0.155304,-0.042383
14295,0.554613,-7.376876,8.250712,1.393362,0.303211,-0.017276
14296,0.701674,-7.613535,8.375864,1.320903,0.449160,0.016571
14297,0.743197,-8.826573,7.930141,1.409301,0.534507,0.065906
14298,0.759277,-10.401556,6.761052,1.676860,0.563774,0.123474
14299,0.676394,-11.691316,5.773610,2.110630,0.555219,0.195652
14300,0.373241,-12.500352,4.877124,2.661560,0.475190,0.227691
14301,-0.449988,-12.505777,3.259834,3.299362,0.320771,0.186771
14302,-0.744129,-12.190615,2.130153,4.033937,0.099274,0.107759
14303,-0.103174,-11.688650,1.327814,4.809627,-0.100099,0.060555
14304,1.192343,-9.329627,1.388206,5.439491,-0.175546,0.008547
14305,1.537531,-4.780846,3.438479,5.552856,-0.095687,-0.056624
14306,1.662802,-0.796581,6.117703,4.767510,0.134429,-0.074740
14307,-0.185700,2.967634,8.791446,3.220822,0.285238,-0.043708
14308,-1.065932,3.170215,9.417268,1.299039,0.212707,0.043602
14309,-0.899994,-0.062610,8.862626,-0.189581,0.170360,0.135369
14310,-0.441351,-3.867606,8.024128,-0.726168,0.186694,0.186310
14311,-0.030972,-6.382274,7.549146,-0.636931,0.173826,0.190432
14312,0.503744,-7.816957,7.271069,-0.184488,0.156246,0.165586
14313,0.589967,-7.730170,7.319789,0.364720,0.111002,0.116062
14314,0.491787,-6.586296,7.553286,0.717574,0.047419,0.074064
14315,0.156649,-5.159502,8.018184,0.758740,0.029715,0.036317
14316,-0.222430,-4.750205,8.123743,0.585707,0.028702,0.038075
14317,-0.246657,-4.891075,7.868326,0.421006,0.009908,0.045699
14318,-0.037523,-4.926028,7.841079,0.258064,0.037946,0.050547
14319,-0.014739,-5.005910,7.772128,0.134455,0.051883,0.054944
14320,-0.035818,-5.043580,7.709143,0.013285,0.040179,0.043697
14321,0.060329,-5.092613,7.678318,-0.097311,0.029641,0.040072
14322,-0.071144,-5.357860,7.713405,-0.176251,0.020204,0.049634
14323,-0.042741,-5.681596,7.770971,-0.197564,0.012286,0.053055
14324,-0.122521,-5.846279,7.839045,-0.161865,0.018629,0.052166
14325,-0.194879,-5.935784,7.924545,-0.095700,0.008825,0.042311
14326,-0.130433,-5.693918,7.988420,-0.024138,-0.016604,0.034167
14327,-0.064540,-5.348456,8.018268,0.002511,-0.026606,0.022733
14328,-0.063300,-5.064706,7.978680,-0.011047,-0.029150,0.004275
14329,-0.088386,-5.028128,8.002772,-0.054513,-0.036907,-0.013700
14330,-0.076439,-5.018752,7.960369,-0.103073,-0.038563,-0.029263
14331,-0.119341,-5.130496,7.825123,-0.153076,-0.042600,-0.042843
14332,-0.199369,-5.434473,7.772664,-0.168664,-0.037535,-0.054937
14333,-0.198633,-5.673403,7.731443,-0.145642,-0.038982,-0.065916
14334,-0.195849,-5.585795,7.779391,-0.102575,-0.052399,-0.086182
14335,-0.103403,-5.415272,7.802790,-0.087492,-0.063854,-0.108903
14336,-0.078690,-5.364472,7.793629,-0.099814,-0.071968,-0.127314
14337,-0.079589,-5.331093,7.755977,-0.116045,-0.088219,-0.143017
14338,0.035648,-5.201917,7.718624,-0.147944,-0.093785,-0.161765
14339,-0.005329,-5.221360,7.727118,-0.180240,-0.089874,-0.177637
14340,0.017216,-5.333509,7.661062,-0.215768,-0.095476,-0.195451
14341,-0.045448,-5.529022,7.619400,-0.227028,-0.103074,-0.203187
14342,-0.074826,-5.537063,7.585915,-0.223935,-0.123626,-0.212877
14343,-0.029436,-5.467208,7.584408,-0.240013,-0.136941,-0.223874
14344,0.059902,-5.319878,7.515201,-0.270506,-0.150932,-0.239962
14345,0.169846,-5.287563,7.492235,-0.299926,-0.158554,-0.264029
14346,0.241442,-5.164201,7.517482,-0.315236,-0.161368,-0.295906
14347,0.318483,-5.142683,7.576194,-0.331303,-0.164956,-0.332823
14348,0.373225,-5.268762,7.657624,-0.336622,-0.148629,-0.354388
14349,0.345618,-5.278212,7.730216,-0.340970,-0.142313,-0.388769
14350,0.290986,-5.280369,7.613137,-0.334844,-0.156703,-0.414274
14351,0.315553,-5.450237,7.414740,-0.314507,-0.188332,-0.447917
14352,0.401550,-5.547092,7.164225,-0.272091,-0.218491,-0.500414
14353,0.497662,-5.354980,6.956458,-0.231581,-0.248927,-0.566815
14354,0.673090,-5.119723,6.781117,-0.206875,-0.276760,-0.633939
14355,0.798440,-4.728294,6.735470,-0.231744,-0.315336,-0.686463
14356,0.830101,-4.715744,6.729114,-0.279379,-0.329232,-0.725514
14357,0.740280,-4.945570,6.902594,-0.321259,-0.363168,-0.753777
14358,0.653830,-5.091198,7.022110,-0.372376,-0.384933,-0.788094
14359,0.518966,-5.176702,7.086391,-0.423145,-0.409931,-0.813002
14360,0.512736,-5.194466,7.088654,-0.483674,-0.442708,-0.834923
14361,0.670759,-5.335577,7.026939,-0.542283,-0.476276,-0.857650
14362,0.964643,-5.441226,6.894754,-0.597261,-0.498836,-0.886411
14363,1.360442,-5.702775,6.695822,-0.629513,-0.508925,-0.915672
14364,1.639887,-5.927453,6.721034,-0.614673,-0.519584,-0.956222
14365,1.882879,-5.986460,6.875239,-0.629943,-0.528417,-0.976781
14366,1.888078,-6.168596,6.927964,-0.681699,-0.523022,-0.990672
14367,1.752755,-6.292335,6.795615,-0.698339,-0.524572,-1.000971
14368,1.771140,-6.378761,6.771808,-0.694561,-0.538330,-1.008369
14369,1.808665,-6.364199,6.709110,-0.681386,-0.536060,-1.031371
14370,1.869021,-6.261430,6.699352,-0.676128,-0.546739,-1.058649
14371,2.228432,-5.880552,6.823652,-0.716128,-0.552890,-1.098274
14372,2.542973,-5.835748,6.905399,-0.806919,-0.545754,-1.132656
14373,2.772432,-5.935184,6.876821,-0.880360,-0.527199,-1.155292
14374,2.960230,-6.162247,6.794882,-0.942767,-0.542156,-1.152910
14375,2.994946,-6.364512,6.493062,-0.969564,-0.547345,-1.163233
14376,2.801861,-6.480248,6.071606,-0.944673,-0.565925,-1.175780
14377,2.785009,-6.283272,5.864106,-0.884697,-0.608512,-1.222911
14378,3.210774,-5.623494,6.294852,-0.888150,-0.625415,-1.294889
14379,3.765579,-5.396389,6.895629,-0.966772,-0.559117,-1.354747
14380,4.074257,-6.085971,7.009827,-1.016303,-0.494578,-1.412186
14381,4.065901,-6.405000,6.618135,-0.891281,-0.462834,-1.446992
14382,3.849258,-6.472618,5.858280,-0.709888,-0.474889,-1.459898
14383,3.569476,-6.686056,5.341088,-0.552854,-0.490155,-1.454730
14384,3.602850,-6.935174,5.332298,-0.410405,-0.547479,-1.451600
14385,4.003578,-6.949146,5.568073,-0.364417,-0.560722,-1.452518
14386,4.408620,-7.107311,5.631175,-0.335665,-0.542274,-1.435303
14387,4.659726,-7.134469,5.553247,-0.262596,-0.541195,-1.421802
14388,4.799415,-6.885847,5.421171,-0.198613,-0.574071,-1.407029
14389,4.968629,-6.549872,5.434252,-0.209722,-0.607328,-1.414830
14390,4.821026,-6.349926,5.195631,-0.273760,-0.611821,-1.436389
14391,4.595035,-6.133338,4.961077,-0.312189,-0.638913,-1.476161
14392,4.754425,-5.909699,4.936719,-0.387968,-0.681047,-1.492773
14393,5.316964,-5.902339,5.333226,-0.552975,-0.691912,-1.466189
14394,5.971925,-6.175810,5.927842,-0.780215,-0.642436,-1.397839
14395,6.116723,-6.714637,5.979626,-0.924670,-0.584907,-1.340143
14396,5.809575,-6.923124,5.551763,-0.882925,-0.588950,-1.307515
14397,5.707577,-6.913203,4.965594,-0.778569,-0.618913,-1.293477
14398,5.624191,-6.818430,4.457112,-0.683383,-0.657974,-1.303665
14399,5.600564,-6.704410,4.265911,-0.600085,-0.701058,-1.336946
14400,5.830871,-6.315799,4.274074,-0.511142,-0.741181,-1.377977
14401,6.316241,-5.815335,4.571517,-0.474487,-0.735831,-1.398431
14402,6.666035,-5.707091,4.881599,-0.491104,-0.708702,-1.392319
14403,6.782630,-5.801555,4.968514,-0.497306,-0.694342,-1.375650
14404,6.751818,-5.794017,4.825079,-0.479632,-0.698481,-1.364181
14405,6.688103,-5.815140,4.556342,-0.458491,-0.713824,-1.364549
14406,6.576243,-5.789955,4.131506,-0.409853,-0.750347,-1.374773
14407,6.657350,-5.575519,3.800509,-0.352417,-0.794902,-1.402892
14408,6.885555,-5.356707,3.613455,-0.316157,-0.826094,-1.426971
14409,7.149708,-5.246278,3.655146,-0.340522,-0.829287,-1.425084
14410,7.327283,-5.225127,3.783957,-0.386740,-0.826152,-1.413889
14411,7.560618,-5.230854,3.865570,-0.442714,-0.815550,-1.391024
14412,7.635076,-5.215742,3.827496,-0.493668,-0.808622,-1.376878
14413,7.527044,-5.232777,3.648708,-0.517463,-0.811331,-1.387229
14414,7.517589,-5.151519,3.427549,-0.534234,-0.837127,-1.412401
14415,7.503828,-5.093168,3.254023,-0.557343,-0.855489,-1.434916
14416,7.583038,-5.102152,3.207210,-0.588787,-0.871154,-1.439471
14417,7.938721,-5.018436,3.367421,-0.653514,-0.879194,-1.411428
14418,8.405392,-5.046584,3.473310,-0.761323,-0.856237,-1.359711
14419,8.610869,-5.150883,3.580337,-0.851993,-0.839514,-1.310294
14420,8.767087,-5.187494,3.534962,-0.895422,-0.814619,-1.279456
14421,8.891887,-5.351035,3.455080,-0.909413,-0.820294,-1.257778
14422,9.088181,-5.483061,3.447471,-0.875060,-0.793788,-1.237964
14423,9.070611,-5.643059,3.388573,-0.817129,-0.756057,-1.225376
14424,8.918842,-5.721989,3.269074,-0.688888,-0.718659,-1.208102
14425,8.941104,-5.531132,3.277170,-0.535515,-0.706512,-1.176732
14426,9.090193,-5.511388,3.254848,-0.423950,-0.687419,-1.128424
14427,9.166782,-5.386704,3.323841,-0.327266,-0.641201,-1.091365
14428,9.191050,-5.039220,3.323792,-0.240264,-0.622436,-1.070932
14429,9.205772,-4.713203,3.034562,-0.167638,-0.612483,-1.050912
14430,9.066330,-4.312771,2.690063,-0.086021,-0.629584,-1.047930
14431,9.104861,-3.936944,2.531985,-0.048188,-0.666616,-1.051433
14432,9.356736,-3.587018,2.675376,-0.115616,-0.647498,-1.051301
14433,9.391324,-3.572751,2.827270,-0.218430,-0.579940,-1.039826
14434,9.372480,-3.373797,2.979160,-0.298349,-0.511703,-1.020916
14435,9.413985,-3.442011,2.908671,-0.336672,-0.466092,-0.996551
14436,9.521655,-3.519038,2.635921,-0.345088,-0.445904,-0.968272
14437,9.539191,-3.470135,2.383916,-0.332153,-0.439938,-0.961644
14438,9.565477,-3.367658,2.162356,-0.312312,-0.425245,-0.979598
14439,9.493028,-3.103294,2.068473,-0.278640,-0.420534,-0.998826
14440,9.451166,-2.734758,1.885024,-0.256881,-0.439071,-1.022175
14441,9.645287,-2.429931,1.840071,-0.274788,-0.445210,-1.052337
14442,9.672918,-2.371573,1.861586,-0.297428,-0.431100,-1.073278
14443,9.782629,-2.328016,1.847665,-0.312064,-0.400423,-1.088899
14444,9.721975,-2.406540,1.719705,-0.315576,-0.386583,-1.124984
14445,9.695954,-2.234601,1.616727,-0.289684,-0.378470,-1.153900
14446,9.645647,-2.000321,1.276869,-0.268056,-0.389577,-1.185668
14447,9.455781,-1.905316,1.114129,-0.252367,-0.425245,-1.217524
14448,9.425703,-1.787232,1.052064,-0.283833,-0.457301,-1.241693
14449,9.538597,-1.683719,1.262198,-0.374273,-0.449219,-1.243382
14450,9.617941,-1.956121,1.482483,-0.501381,-0.411035,-1.219662
14451,9.715267,-2.214451,1.626185,-0.589425,-0.379263,-1.170538
14452,9.909468,-2.546304,1.517989,-0.648312,-0.330512,-1.117037
14453,9.866450,-2.770408,1.490480,-0.657363,-0.313899,-1.068043
14454,10.045520,-2.991698,1.195228,-0.601255,-0.320034,-1.027338
14455,10.135376,-3.001884,1.120632,-0.518084,-0.320377,-0.989621
14456,10.172776,-2.791949,0.963715,-0.429141,-0.331122,-0.956422
14457,10.080892,-2.633059,0.952602,-0.361525,-0.351525,-0.927219
14458,10.162697,-2.384741,0.969980,-0.292659,-0.377168,-0.903451
14459,10.158668,-1.943469,1.059447,-0.266805,-0.385408,-0.882345
14460,10.070240,-1.701293,1.163959,-0.296491,-0.378421,-0.864464
14461,10.097979,-1.753582,1.198600,-0.311545,-0.393496,-0.842103
14462,10.039702,-1.589688,1.210252,-0.322429,-0.377361,-0.816695
14463,9.979928,-1.492601,1.138599,-0.343160,-0.359661,-0.788465
14464,9.967498,-1.681750,1.115198,-0.334533,-0.334542,-0.749122
14465,9.857818,-1.542652,1.169835,-0.333792,-0.321210,-0.711785
14466,9.880729,-1.654524,0.950629,-0.301591,-0.306020,-0.677134
14467,9.837021,-1.386126,0.913528,-0.291826,-0.287642,-0.631676
14468,9.905557,-1.485585,0.917977,-0.280491,-0.273738,-0.585112
14469,9.907493,-1.318256,0.985212,-0.283694,-0.260791,-0.541878
14470,9.912450,-1.439292,0.903844,-0.299111,-0.239124,-0.496163
14471,9.909446,-1.500257,0.887927,-0.280505,-0.221473,-0.447828
14472,9.938610,-1.532907,0.844805,-0.259741,-0.203708,-0.394675
14473,9.932279,-1.479300,0.828749,-0.235991,-0.184947,-0.341561
14474,9.894066,-1.486064,0.737159,-0.200508,-0.163416,-0.292464
14475,9.919331,-1.483524,0.735043,-0.171966,-0.147980,-0.251439
14476,9.941213,-1.398631,0.751210,-0.128438,-0.125477,-0.201257
14477,9.958647,-1.204348,0.713937,-0.101175,-0.105643,-0.159352
14478,9.964758,-1.108323,0.742693,-0.082152,-0.083938,-0.127654
14479,9.955212,-0.958716,0.762430,-0.077108,-0.063828,-0.094590
14480,9.933007,-0.841701,0.756691,-0.073700,-0.046424,-0.069832
14481,9.909920,-0.716341,0.806369,-0.068584,-0.030997,-0.050402
14482,9.905937,-0.588198,0.801500,-0.061229,-0.014154,-0.035911
14483,9.868879,-0.457452,0.808476,-0.059893,-0.000347,-0.026048
14484,9.910926,-0.353818,0.789349,-0.072449,0.014329,-0.021051
14485,9.947095,-0.273462,0.821007,-0.086483,0.033649,-0.029955
14486,9.933094,-0.252332,0.832053,-0.102150,0.045122,-0.033218
14487,9.929965,-0.173342,0.800163,-0.109996,0.060174,-0.043392
14488,9.928128,-0.131332,0.788040,-0.124411,0.069964,-0.055205
14489,9.907752,-0.113568,0.725998,-0.141976,0.080044,-0.065018
14490,9.932818,-0.097026,0.754770,-0.157875,0.090481,-0.073348
14491,9.881024,-0.112181,0.722659,-0.177520,0.092977,-0.080758
14492,9.910327,-0.190583,0.681570,-0.197575,0.101737,-0.087284
14493,9.923671,-0.201961,0.683952,-0.210327,0.105508,-0.087137
14494,9.930731,-0.367007,0.658782,-0.222319,0.111366,-0.088429
14495,9.974549,-0.463413,0.610582,-0.208941,0.111919,-0.083326
14496,9.931363,-0.520757,0.620073,-0.211456,0.110563,-0.080095
14497,9.897297,-0.630842,0.616008,-0.194532,0.105728,-0.074454
14498,9.886903,-0.663139,0.542355,-0.174785,0.092272,-0.070315
14499,9.826349,-0.746497,0.497403,-0.141851,0.086654,-0.054900
14500,9.833933,-0.756270,0.473590,-0.119590,0.074071,-0.039380
14501,9.803660,-0.798095,0.453212,-0.085743,0.066712,-0.020963
14502,9.815987,-0.777603,0.433334,-0.065563,0.053591,0.004553
14503,9.809299,-0.774407,0.414728,-0.041587,0.046184,0.022354
14504,9.820103,-0.748706,0.447127,-0.020816,0.034202,0.041449
14505,9.851110,-0.718309,0.422814,-0.011762,0.026800,0.057468
14506,9.842846,-0.711057,0.455675,0.003058,0.016619,0.072508
14507,9.854878,-0.698550,0.431457,0.021039,0.000242,0.081415
14508,9.860604,-0.711757,0.454559,0.036706,-0.004139,0.092304
14509,9.811652,-0.660755,0.453975,0.056259,-0.011498,0.099096
14510,9.816040,-0.637052,0.458607,0.067086,-0.015985,0.110431
14511,9.800152,-0.620245,0.518599,0.084958,-0.023715,0.115683
14512,9.797102,-0.554558,0.481493,0.096592,-0.027228,0.122157
14513,9.783829,-0.585997,0.504389,0.111637,-0.032294,0.124788
14514,9.801100,-0.573401,0.553421,0.122625,-0.035347,0.126471
14515,9.846243,-0.569173,0.515549,0.140526,-0.038301,0.132370
14516,9.850974,-0.547582,0.517910,0.155231,-0.039394,0.129042
14517,9.895046,-0.534200,0.533364,0.168329,-0.043568,0.131955
14518,9.887139,-0.532242,0.560573,0.176704,-0.044123,0.132583
14519,9.898441,-0.515192,0.585430,0.188446,-0.045127,0.132797
14520,9.856903,-0.470686,0.604144,0.190356,-0.047237,0.128953
14521,9.849255,-0.467880,0.630828,0.192687,-0.049653,0.128286
14522,9.828943,-0.455920,0.611207,0.194892,-0.047096,0.126691
14523,9.822154,-0.490523,0.656296,0.195461,-0.046038,0.120169
14524,9.854712,-0.504867,0.643093,0.202067,-0.043154,0.114903
14525,9.835139,-0.529465,0.642586,0.210341,-0.039933,0.111132
14526,9.848371,-0.557455,0.632760,0.222585,-0.036116,0.100508
14527,9.808843,-0.556960,0.617279,0.233582,-0.032953,0.091542
14528,9.820865,-0.507261,0.571036,0.246246,-0.029459,0.084060
14529,9.787795,-0.509601,0.579292,0.253718,-0.028357,0.081675
14530,9.773503,-0.459124,0.566324,0.248089,-0.021857,0.079752
14531,9.766170,-0.450623,0.595757,0.237279,-0.017711,0.082955
14532,9.785230,-0.442939,0.592401,0.218748,-0.014537,0.086867
14533,9.759153,-0.461071,0.571706,0.196868,-0.010867,0.091218
14534,9.797957,-0.477550,0.585015,0.185519,-0.010067,0.094088
14535,9.798162,-0.497437,0.531478,0.170018,-0.010838,0.098841
14536,9.797122,-0.494659,0.584776,0.152337,-0.006727,0.097955
14537,9.823045,-0.504446,0.551895,0.147272,-0.005416,0.100235
14538,9.803431,-0.565190,0.574557,0.138023,-0.004305,0.093212
14539,9.828213,-0.550661,0.648612,0.137960,-0.001760,0.085376
14540,9.879978,-0.548143,0.636581,0.139145,0.001385,0.075858
14541,9.866287,-0.535072,0.644164,0.130346,0.001047,0.068629
14542,9.871269,-0.419978,0.662611,0.116087,0.002305,0.060575
14543,9.864777,-0.458729,0.659838,0.098248,0.005395,0.054761
14544,9.870730,-0.429466,0.664564,0.083328,0.009445,0.048750
14545,9.825082,-0.458568,0.649145,0.063529,0.018482,0.042248
14546,9.838010,-0.481355,0.644808,0.053217,0.022635,0.034135
14547,9.811842,-0.495114,0.627074,0.043382,0.022805,0.033601
14548,9.824835,-0.554468,0.642762,0.033743,0.024170,0.023468
14549,9.818215,-0.552529,0.622388,0.033639,0.031653,0.014637
14550,9.811653,-0.587349,0.622163,0.035114,0.030911,0.011147
14551,9.857375,-0.612464,0.609414,0.037768,0.035720,0.004940
14552,9.811139,-0.550534,0.609687,0.036052,0.039102,-0.000961
14553,9.824766,-0.581858,0.554148,0.034754,0.042246,-0.003697
14554,9.810669,-0.549504,0.618119,0.025361,0.040966,-0.004453
14555,9.829955,-0.534376,0.619559,0.017520,0.048738,-0.009184
14556,9.817137,-0.563935,0.597551,0.004150,0.047017,-0.003088
14557,9.823123,-0.567027,0.625750,-0.005957,0.052265,-0.006254
14558,9.855627,-0.571352,0.621258,-0.009496,0.051666,-0.010806
14559,9.816318,-0.598862,0.632361,-0.019741,0.052075,-0.014524
14560,9.841850,-0.586583,0.657476,-0.027209,0.048595,-0.018993
14561,9.855764,-0.616435,0.602582,-0.028709,0.051855,-0.023319
14562,9.861813,-0.617630,0.630804,-0.028889,0.050754,-0.028292
