// Start Time: Unknown
// Update Rate: 100.0Hz
// Filter Profile: human (46.1)
// Firmware Version: 4.3.5
PacketCounter,Acc_X,Acc_Y,Acc_Z,Gyr_X,Gyr_Y,Gyr_Z
35781,9.760960,1.749401,1.023174,-0.021534,0.198910,-0.019549
35782,9.750199,1.929151,1.070136,-0.038718,0.222826,-0.036047
35783,9.750960,2.092563,1.170558,-0.106029,0.241173,-0.041330
35784,9.647800,2.255278,1.264440,-0.250601,0.253252,-0.050223
35785,9.549653,2.305452,1.252421,-0.443692,0.241062,-0.062085
35786,9.615978,2.320448,1.274587,-0.607083,0.208454,-0.069884
35787,9.694287,2.201288,1.189434,-0.740458,0.197608,-0.081261
35788,9.713615,2.050727,1.167624,-0.824032,0.235456,-0.111857
35789,9.711734,1.900909,1.176175,-0.821141,0.284584,-0.147295
35790,9.721639,1.807605,1.178599,-0.740860,0.314478,-0.175337
35791,9.703101,1.920651,1.314653,-0.700520,0.354962,-0.194012
35792,9.656475,1.997931,1.387315,-0.737681,0.379328,-0.202285
35793,9.647198,2.006493,1.438552,-0.779602,0.367591,-0.197309
35794,9.790064,2.027785,1.522696,-0.816570,0.380003,-0.207922
35795,9.797026,2.065590,1.576110,-0.872310,0.435384,-0.231666
35796,9.703135,2.079222,1.598464,-0.938976,0.484241,-0.267328
35797,9.663621,2.083313,1.643934,-0.996177,0.488449,-0.285767
35798,9.710909,2.058504,1.732604,-1.072507,0.479292,-0.276244
35799,9.717479,1.993411,1.825788,-1.200906,0.454965,-0.247154
35800,9.656730,1.728911,1.703925,-1.347732,0.416516,-0.204788
35801,9.674966,1.380806,1.616431,-1.419894,0.390171,-0.175424
35802,9.760737,1.020511,1.686927,-1.342342,0.433683,-0.171374
35803,9.722536,0.854432,1.815775,-1.164797,0.502926,-0.197441
35804,9.611240,0.871538,2.006581,-0.957500,0.582584,-0.215197
35805,9.512634,0.937213,2.301106,-0.848861,0.638675,-0.204508
35806,9.502238,0.942857,2.639376,-0.842746,0.642359,-0.160951
35807,9.526726,0.881465,2.849095,-0.855261,0.619333,-0.079026
35808,9.401235,0.787933,2.813514,-0.851669,0.569015,0.008006
35809,9.373698,0.618237,2.712516,-0.833511,0.515456,0.081450
35810,9.444304,0.465915,2.652965,-0.799840,0.478409,0.159534
35811,9.528325,0.266460,2.535632,-0.745851,0.459033,0.238245
35812,9.560154,0.070732,2.441435,-0.709783,0.455705,0.310158
35813,9.598956,-0.157746,2.390422,-0.649148,0.449450,0.372516
35814,9.547032,-0.331201,2.295611,-0.529101,0.457552,0.418934
35815,9.476143,-0.427050,2.160585,-0.378681,0.470645,0.444850
35816,9.451540,-0.426027,2.186876,-0.189789,0.498467,0.458869
35817,9.420354,-0.297940,2.232189,-0.010227,0.525478,0.454397
35818,9.440955,-0.094265,2.414118,0.101038,0.565634,0.465394
35819,9.364948,0.081444,2.642997,0.126767,0.601843,0.471954
35820,9.357071,0.170288,2.889390,0.083364,0.626265,0.497034
35821,9.324045,0.247481,3.133921,-0.032860,0.595621,0.561788
35822,9.261460,0.179484,3.157915,-0.195143,0.506639,0.659153
35823,9.251430,0.020871,3.066076,-0.333430,0.393157,0.764975
35824,9.319173,-0.250847,2.905954,-0.388036,0.316546,0.844214
35825,9.445039,-0.507464,2.870379,-0.376302,0.309399,0.891988
35826,9.445914,-0.635660,2.797437,-0.306521,0.357424,0.890413
35827,9.387801,-0.720630,2.730892,-0.188077,0.406548,0.868106
35828,9.296871,-0.635740,2.713320,-0.050633,0.426739,0.853839
35829,9.260849,-0.506805,2.853959,0.039945,0.408653,0.858161
35830,9.315406,-0.430969,2.942191,0.053379,0.367837,0.874589
35831,9.285460,-0.328175,2.874921,0.032331,0.325074,0.901445
35832,9.269284,-0.329491,2.840307,0.016384,0.293926,0.905155
35833,9.261284,-0.377565,2.798193,0.066981,0.290108,0.887898
35834,9.280904,-0.386766,2.912556,0.162612,0.301323,0.851567
35835,9.307915,-0.352648,3.134614,0.232420,0.343223,0.826246
35836,9.207660,-0.278285,3.350686,0.261502,0.369055,0.805986
35837,9.169305,-0.235472,3.494231,0.237227,0.348261,0.809586
35838,9.140676,-0.212136,3.582913,0.194756,0.293969,0.828904
35839,9.150715,-0.178550,3.572164,0.137026,0.219849,0.848257
35840,9.204346,-0.262099,3.497439,0.089318,0.161692,0.852994
35841,9.233240,-0.375970,3.437994,0.059086,0.150441,0.835853
35842,9.213007,-0.491122,3.371699,0.056671,0.152252,0.801789
35843,9.204723,-0.584753,3.384746,0.086218,0.177203,0.757643
35844,9.092711,-0.631083,3.415593,0.119020,0.195203,0.720681
35845,9.030048,-0.693933,3.450703,0.167459,0.177126,0.683481
35846,9.025513,-0.719090,3.420749,0.207329,0.142157,0.666137
35847,9.054940,-0.785829,3.338282,0.218143,0.102223,0.659533
35848,9.110315,-0.877600,3.252939,0.221784,0.045407,0.674218
35849,9.243389,-1.018115,3.144629,0.247598,-0.016612,0.700837
35850,9.299427,-1.090251,3.053317,0.292391,-0.041378,0.702376
35851,9.258349,-1.133539,2.951408,0.399319,-0.012829,0.643683
35852,9.223311,-1.103558,2.985525,0.548357,0.059363,0.554679
35853,9.154405,-0.918670,3.106143,0.704457,0.113651,0.461745
35854,9.082053,-0.710420,3.427605,0.746573,0.165187,0.404488
35855,9.022776,-0.585963,3.645869,0.681553,0.168753,0.385074
35856,8.891541,-0.509287,3.845512,0.532838,0.107577,0.412570
35857,8.858933,-0.554828,3.871678,0.377782,-0.005371,0.450789
35858,8.932855,-0.674312,3.679322,0.275087,-0.086522,0.472156
35859,9.094948,-0.853536,3.542816,0.233945,-0.111998,0.468189
35860,9.165543,-1.012662,3.517662,0.202301,-0.079001,0.468161
35861,9.103666,-1.216451,3.524637,0.180576,-0.036077,0.437209
35862,9.053370,-1.267587,3.493638,0.223271,0.007749,0.379311
35863,9.044464,-1.216197,3.550794,0.338489,0.053574,0.288953
35864,9.100754,-1.013809,3.724606,0.435772,0.095222,0.225324
35865,9.094890,-0.851800,3.964382,0.420305,0.126802,0.197116
35866,9.076699,-0.808888,4.075155,0.301785,0.094645,0.216659
35867,9.079920,-0.847384,4.182625,0.165562,0.034600,0.247493
35868,9.046264,-1.006230,4.005336,0.087103,-0.018271,0.253165
35869,9.134205,-1.099443,3.870495,0.123261,-0.001967,0.204262
35870,9.213744,-1.064557,3.839513,0.217139,0.077377,0.140890
35871,9.222345,-0.995884,3.952977,0.254055,0.132715,0.107008
35872,9.219561,-1.023527,4.091203,0.204157,0.124752,0.121021
35873,9.288407,-1.058856,4.089002,0.107622,0.074058,0.143528
35874,9.279279,-1.113335,3.797089,0.075319,0.024406,0.126784
35875,9.494345,-1.107520,3.838599,0.189252,0.090447,0.038948
35876,9.515511,-0.902806,4.082737,0.337106,0.234035,-0.082185
35877,9.331311,-0.545807,4.255104,0.372153,0.342747,-0.179311
35878,9.170082,-0.305575,4.362434,0.316285,0.377861,-0.242663
35879,9.180338,-0.248178,4.547897,0.230989,0.323112,-0.239909
35880,9.205502,-0.194667,4.653705,0.170153,0.219957,-0.236423
35881,9.161105,-0.017565,4.364414,0.138768,0.146371,-0.261096
35882,9.246311,0.107069,4.170336,0.149697,0.168236,-0.338787
35883,9.481260,0.014598,4.310755,0.225162,0.257567,-0.398770
35884,9.635905,-0.061179,4.744801,0.293670,0.341631,-0.420762
35885,9.564849,-0.075179,5.047077,0.226087,0.431871,-0.425059
35886,9.418170,-0.266226,5.170626,0.076535,0.452384,-0.394850
35887,9.349180,-0.594831,5.260303,-0.036451,0.412981,-0.334201
35888,9.409904,-0.889874,5.220370,-0.058743,0.375848,-0.288231
35889,9.528545,-1.064624,5.289865,-0.005534,0.420932,-0.272863
35890,9.494200,-1.161305,5.259252,0.035909,0.506451,-0.260178
35891,9.465613,-1.234513,5.312430,0.013900,0.578903,-0.226737
35892,9.442995,-1.363376,5.323183,-0.048501,0.617129,-0.184656
35893,9.447692,-1.500212,5.318242,-0.088321,0.654652,-0.136078
35894,9.444814,-1.616956,5.341438,-0.059719,0.716856,-0.088296
35895,9.372384,-1.734692,5.330981,-0.011706,0.797501,-0.050299
35896,9.302590,-1.804491,5.404299,0.001227,0.882114,-0.019026
35897,9.285554,-1.878046,5.550235,-0.005440,0.960722,0.021921
35898,9.198174,-1.980576,5.657767,-0.038938,0.977871,0.076317
35899,9.241575,-2.091303,5.828903,-0.021952,0.993980,0.135369
35900,9.298059,-2.183404,5.856740,0.016161,1.029685,0.187950
35901,9.288408,-2.229577,5.847087,0.022913,1.112249,0.246643
35902,9.133700,-2.299110,5.880516,0.061873,1.226505,0.291115
35903,9.036332,-2.297351,6.044127,0.123723,1.311946,0.350965
35904,8.746546,-2.216268,6.303637,0.141380,1.387677,0.404133
35905,8.536327,-2.215827,6.520150,0.080556,1.481281,0.442802
35906,8.439706,-2.278833,6.680091,-0.027682,1.526227,0.501645
35907,8.483604,-2.382689,6.927053,-0.042683,1.562364,0.579365
35908,8.588852,-2.401205,7.208331,-0.048148,1.624537,0.651979
35909,8.539800,-2.302255,7.168535,-0.141203,1.724541,0.713032
35910,8.409710,-2.336830,7.050961,-0.321908,1.834018,0.811104
35911,8.327237,-2.592623,7.021208,-0.528613,1.925968,0.936528
35912,8.341369,-2.903623,7.210734,-0.602194,1.994680,1.055373
35913,8.318967,-3.102938,7.363349,-0.582774,2.056928,1.140673
35914,8.198979,-3.176965,7.501583,-0.596764,2.175458,1.188270
35915,7.866767,-3.284541,7.588509,-0.725863,2.308209,1.285290
35916,7.429098,-3.439014,7.669054,-0.822516,2.362391,1.389853
35917,7.248726,-3.615093,7.729073,-0.919159,2.358179,1.489585
35918,7.202228,-3.721026,7.692743,-1.028911,2.333373,1.566305
35919,7.026105,-3.752558,7.527948,-1.101821,2.358251,1.583656
35920,6.927506,-3.793185,7.599439,-1.097660,2.429324,1.579401
35921,6.818381,-3.744943,7.760309,-1.107038,2.460307,1.639193
35922,6.582894,-3.792442,7.799277,-1.279194,2.548435,1.694109
35923,6.222677,-4.020509,8.124663,-1.414477,2.583906,1.740131
35924,5.853243,-4.193581,8.038166,-1.524858,2.543979,1.803052
35925,5.590138,-4.220809,7.715820,-1.637915,2.523534,1.846804
35926,5.388759,-4.490608,7.616761,-1.751515,2.547025,1.902361
35927,5.019987,-4.711048,7.613341,-1.755369,2.545657,1.930049
35928,4.513972,-4.782798,7.544238,-1.697840,2.508889,1.929851
35929,4.210232,-4.651516,7.443115,-1.666158,2.443008,1.925494
35930,3.997793,-4.555044,7.393664,-1.724956,2.413384,1.923313
35931,3.586578,-4.685080,7.489929,-1.820078,2.377698,1.923152
35932,3.282313,-4.867807,7.387102,-1.954210,2.315648,1.884741
35933,3.104793,-5.036315,7.263176,-2.039670,2.254813,1.867526
35934,2.754022,-5.201041,7.039893,-2.059125,2.188430,1.903117
35935,2.356530,-5.204410,6.743934,-1.989127,2.138459,1.918422
35936,2.034278,-5.268507,6.819880,-1.960487,2.099834,1.868986
35937,1.794732,-5.367518,6.744091,-1.921086,2.036527,1.825033
35938,1.440724,-5.418662,6.791199,-1.883060,2.019549,1.781814
35939,1.102999,-5.592652,6.776602,-1.908520,1.930128,1.742674
35940,0.817257,-5.634228,6.495575,-1.920496,1.798557,1.718056
35941,0.615759,-5.801661,6.258420,-1.957096,1.658429,1.706821
35942,0.583588,-5.995226,5.953918,-1.941116,1.578863,1.674040
35943,0.459765,-6.287711,5.641624,-1.805340,1.524808,1.641970
35944,0.178178,-6.378815,5.395307,-1.524473,1.511014,1.584359
35945,-0.189772,-6.251410,5.476909,-1.287641,1.453781,1.498046
35946,-0.421637,-6.059469,5.591120,-1.159843,1.382130,1.433243
35947,-0.592290,-5.922617,5.667842,-1.093023,1.290517,1.389418
35948,-0.600221,-5.945462,5.408788,-1.145562,1.206279,1.335236
35949,-0.690372,-6.088808,5.172903,-1.105405,1.147292,1.303445
35950,-0.966594,-6.257276,5.005195,-1.010949,1.089947,1.245612
35951,-1.252080,-6.360909,4.906570,-0.885930,1.013582,1.163194
35952,-1.513036,-6.260299,4.819556,-0.695587,0.940651,1.062303
35953,-1.535657,-6.104162,4.821826,-0.572538,0.866686,0.955003
35954,-1.484151,-6.073078,4.863596,-0.538492,0.814744,0.870560
35955,-1.710119,-5.969076,4.736255,-0.490199,0.820320,0.811497
35956,-2.072337,-5.809760,4.847305,-0.420680,0.758332,0.739573
35957,-2.076399,-5.636631,4.969300,-0.401309,0.650709,0.663258
35958,-2.069167,-5.675160,5.015325,-0.443995,0.574359,0.588900
35959,-2.041685,-5.922104,4.775946,-0.500720,0.537933,0.522200
35960,-2.121963,-6.139366,4.573638,-0.396067,0.513132,0.459329
35961,-2.280712,-6.187004,4.563597,-0.228358,0.480218,0.390208
35962,-2.481399,-6.145000,4.593702,-0.073942,0.430438,0.311206
35963,-2.404924,-6.021996,4.671332,0.026529,0.350695,0.227556
35964,-2.297681,-5.978779,4.642096,0.105956,0.292969,0.136221
35965,-2.275492,-5.914847,4.555840,0.181885,0.237494,0.051458
35966,-2.369067,-5.741175,4.493005,0.263796,0.177752,-0.034585
35967,-2.440413,-5.510035,4.515859,0.294085,0.069114,-0.123268
35968,-2.373286,-5.386533,4.359990,0.270595,-0.058080,-0.222093
35969,-2.225719,-5.452415,4.077242,0.271617,-0.163535,-0.322379
35970,-2.180313,-5.484881,3.923781,0.343725,-0.247830,-0.419517
35971,-2.185925,-5.539708,3.949667,0.422651,-0.325540,-0.493772
35972,-2.278807,-5.610951,4.201335,0.463166,-0.383465,-0.565540
35973,-2.297840,-5.724455,4.360852,0.494336,-0.472970,-0.625073
35974,-1.890928,-5.822799,4.670165,0.507457,-0.558635,-0.680614
35975,-1.289506,-5.734394,5.010961,0.451169,-0.597228,-0.705798
35976,-1.378562,-5.813249,5.088783,0.261872,-0.688937,-0.707004
35977,-1.687983,-6.017571,4.699281,0.093534,-0.896222,-0.713219
35978,-1.924707,-6.385425,4.072496,0.220122,-1.079976,-0.737173
35979,-1.996976,-6.824691,3.684429,0.624582,-1.164145,-0.802327
35980,-1.845230,-7.058236,3.604594,1.111047,-1.194571,-0.932680
35981,-1.391730,-6.722173,3.897725,1.535413,-1.186662,-1.050846
35982,-1.149388,-6.079701,4.596276,1.755916,-1.217411,-1.101244
35983,-0.950273,-5.711699,5.159815,1.790345,-1.311444,-1.184051
35984,-0.610233,-5.471417,5.557246,1.740154,-1.440991,-1.275407
35985,-0.305342,-5.509358,5.815004,1.658490,-1.559055,-1.341366
35986,-0.197900,-5.789603,5.927430,1.670073,-1.574787,-1.383193
35987,-0.220284,-5.917720,6.098168,1.768746,-1.605717,-1.407825
35988,-0.051807,-5.984577,6.353411,1.877163,-1.703689,-1.428155
35989,0.227099,-6.002775,6.684953,1.975266,-1.790069,-1.461548
35990,0.394188,-5.959842,6.963466,2.019781,-1.859711,-1.471572
35991,0.565437,-5.921581,7.230372,2.065199,-1.917843,-1.466513
35992,0.842816,-5.823585,7.398367,2.070811,-1.954702,-1.462768
35993,0.971851,-5.540358,7.436409,2.063683,-1.973275,-1.479110
35994,1.226403,-5.241120,7.385503,2.097219,-2.066897,-1.514621
35995,1.681582,-5.100095,7.460294,2.151595,-2.123311,-1.553850
35996,2.171819,-5.049451,7.785506,2.235420,-2.080608,-1.572147
35997,2.296126,-5.066577,8.310331,2.314099,-2.065947,-1.587235
35998,2.492391,-5.009659,8.812268,2.298106,-2.089066,-1.597198
35999,2.680482,-4.958982,9.186124,2.235927,-2.113895,-1.590086
36000,2.880097,-4.720253,9.178203,2.190927,-2.132655,-1.564123
36001,2.921770,-4.362137,8.813409,2.101565,-2.095013,-1.527723
36002,2.847582,-4.030579,8.245529,2.029195,-2.111752,-1.495267
36003,3.155175,-3.672688,7.854928,2.071240,-2.176778,-1.507548
36004,3.881289,-3.360911,7.743439,2.207169,-2.228095,-1.555508
36005,4.512491,-2.889953,7.922049,2.370769,-2.225189,-1.628282
36006,5.409692,-2.507702,8.421721,2.418936,-2.177836,-1.674157
36007,5.836824,-2.261981,9.235776,2.234939,-2.053818,-1.629490
36008,5.357087,-2.260746,9.915464,1.718168,-1.894215,-1.511891
36009,4.680534,-2.561576,9.649129,1.142557,-1.890528,-1.429736
36010,4.696224,-2.995976,8.748910,0.908553,-1.985638,-1.362878
36011,5.256483,-3.184537,7.918596,0.982419,-2.070476,-1.326267
36012,5.810664,-2.948010,7.446575,1.201725,-2.060785,-1.342001
36013,6.069056,-2.459203,7.498821,1.404103,-1.978075,-1.400346
36014,6.241582,-2.019489,8.068588,1.488969,-1.920379,-1.458653
36015,6.748049,-1.736514,8.632844,1.385934,-1.914541,-1.407625
36016,7.394190,-1.559691,8.884741,1.062315,-1.878866,-1.313330
36017,7.755076,-1.584787,8.745728,0.734575,-1.792227,-1.195406
36018,7.649400,-1.848408,8.338633,0.572053,-1.677139,-1.075049
36019,7.336328,-1.920745,7.896736,0.549113,-1.591529,-1.025129
36020,7.061426,-1.837852,7.749484,0.589439,-1.572517,-1.003606
36021,7.128268,-1.595589,7.847059,0.571549,-1.547441,-1.020308
36022,7.140938,-1.341436,8.025943,0.504110,-1.501137,-1.023378
36023,7.231463,-1.247130,8.220835,0.385503,-1.464085,-0.949759
36024,7.430471,-1.215460,8.287190,0.202323,-1.396690,-0.836871
36025,7.714236,-1.360142,8.112999,0.061923,-1.341537,-0.691789
36026,8.079621,-1.581200,7.881799,-0.035280,-1.283387,-0.560636
36027,8.362521,-1.793102,7.576927,-0.021699,-1.190642,-0.468961
36028,8.306577,-1.797498,7.297682,0.101877,-1.041773,-0.406605
36029,8.044472,-1.684234,7.334764,0.212097,-0.921885,-0.363173
36030,7.641732,-1.463517,7.635383,0.230854,-0.834509,-0.340230
36031,7.426067,-1.207617,7.896855,0.149803,-0.838958,-0.305398
36032,7.431487,-1.179430,7.855300,-0.020708,-0.881408,-0.229046
36033,7.639762,-1.411641,7.476175,-0.193325,-0.874759,-0.138253
36034,7.903053,-1.593920,7.007908,-0.237273,-0.816809,-0.060469
36035,7.916927,-1.644806,6.628913,-0.141846,-0.767624,0.020676
36036,7.886558,-1.649608,6.207834,-0.029744,-0.709470,0.063453
36037,7.777707,-1.525528,5.992598,0.103937,-0.610431,0.066273
36038,7.658041,-1.273980,6.146501,0.206911,-0.549774,0.027832
36039,7.766763,-0.970662,6.263963,0.216336,-0.549711,-0.007974
36040,8.048459,-0.750806,6.488715,0.176034,-0.583773,0.018252
36041,8.458732,-0.602212,6.607868,0.061760,-0.597146,0.115614
36042,8.660559,-0.639817,6.416620,-0.183552,-0.557143,0.249201
36043,8.581526,-0.844207,6.077207,-0.374484,-0.516355,0.355131
36044,8.473231,-1.009816,5.724089,-0.387984,-0.501092,0.368613
36045,8.260891,-0.934594,5.465777,-0.290849,-0.443039,0.299383
36046,8.026125,-0.594622,5.442007,-0.137027,-0.395066,0.198401
36047,8.105597,-0.292516,5.840232,-0.014696,-0.426730,0.163627
36048,8.425348,-0.122387,6.182532,-0.079492,-0.471969,0.233059
36049,8.658748,-0.177115,6.223032,-0.334480,-0.446710,0.335790
36050,8.592207,-0.571296,5.822529,-0.582211,-0.414934,0.409021
36051,8.361534,-0.912428,5.275975,-0.672769,-0.424608,0.421480
36052,8.273828,-1.224233,4.960913,-0.557082,-0.441500,0.396649
36053,8.312817,-1.268063,5.003889,-0.251814,-0.450946,0.359040
36054,8.263774,-1.023382,5.302838,-0.007043,-0.436509,0.304314
36055,8.397671,-0.683132,5.761509,0.086473,-0.432833,0.264194
36056,8.543197,-0.462553,5.974209,0.022535,-0.442092,0.277117
36057,8.678850,-0.431348,5.836965,-0.162565,-0.447281,0.305303
36058,8.787117,-0.686472,5.381094,-0.304483,-0.465090,0.348518
36059,8.953375,-0.940930,5.043400,-0.349867,-0.482801,0.402150
36060,9.025367,-1.327032,4.893282,-0.296766,-0.464046,0.480713
36061,8.997886,-1.643235,4.964162,-0.204960,-0.440243,0.536191
36062,8.960697,-1.867351,5.231923,-0.083905,-0.428614,0.550186
36063,8.845767,-2.020047,5.345438,0.005467,-0.403908,0.523988
36064,8.549641,-2.016449,5.319478,0.068701,-0.359157,0.465518
36065,8.303527,-1.812982,5.244320,0.161147,-0.330816,0.413652
36066,8.095811,-1.505025,5.148961,0.258817,-0.310983,0.363193
36067,8.097907,-1.089907,5.232401,0.316966,-0.283110,0.315074
36068,8.333864,-0.764824,5.289261,0.308838,-0.267607,0.293977
36069,8.651116,-0.578629,5.305311,0.159245,-0.251152,0.322907
36070,8.838389,-0.696597,5.269104,-0.046473,-0.205023,0.375138
36071,8.759731,-0.969659,5.052262,-0.211051,-0.170777,0.380315
36072,8.597244,-1.093854,4.795863,-0.249945,-0.166083,0.350166
36073,8.475830,-1.103223,4.690820,-0.180931,-0.174336,0.296278
36074,8.529350,-1.018566,4.622363,-0.088622,-0.193804,0.242211
36075,8.690835,-0.897946,4.729781,-0.073889,-0.213373,0.205197
36076,8.826253,-0.832679,4.733985,-0.137659,-0.200217,0.191432
36077,8.893976,-0.918414,4.661650,-0.213578,-0.188669,0.198027
36078,8.830083,-1.117933,4.568486,-0.240230,-0.174572,0.198126
36079,8.772650,-1.277885,4.650608,-0.217546,-0.170145,0.182000
36080,8.696960,-1.392645,4.622789,-0.183556,-0.162465,0.158451
36081,8.593440,-1.423553,4.631542,-0.141551,-0.148498,0.135497
36082,8.563195,-1.432548,4.658262,-0.092347,-0.146008,0.115079
36083,8.533416,-1.445541,4.584709,-0.041365,-0.165588,0.101343
36084,8.624859,-1.493973,4.519093,-0.010324,-0.171214,0.107291
36085,8.757554,-1.543710,4.488704,0.014785,-0.174967,0.110998
36086,8.801239,-1.585544,4.411586,0.049397,-0.158879,0.100494
36087,8.791210,-1.463668,4.408104,0.129887,-0.135794,0.076010
36088,8.749983,-1.346920,4.527294,0.211343,-0.119744,0.043783
36089,8.727066,-1.122242,4.716716,0.231139,-0.105126,0.011802
36090,8.712270,-0.976064,4.841960,0.165384,-0.084061,-0.009310
36091,8.656131,-0.823921,4.728126,0.047599,-0.102155,-0.017103
36092,8.741380,-0.945581,4.549954,-0.066736,-0.108142,-0.020643
36093,8.878976,-1.135711,4.542578,-0.091075,-0.088061,-0.013778
36094,9.014204,-1.342662,4.639235,-0.093469,-0.054822,-0.009027
36095,8.977204,-1.481313,4.741403,-0.119405,-0.018036,-0.006323
36096,8.865305,-1.588195,4.849923,-0.154157,0.004359,-0.006328
36097,8.807677,-1.620894,4.761968,-0.196457,0.017742,-0.012794
36098,8.779244,-1.607443,4.675811,-0.212892,0.016397,-0.032880
36099,8.848247,-1.628035,4.590877,-0.193751,0.018739,-0.043844
36100,8.953479,-1.595146,4.585676,-0.162031,0.029673,-0.052283
36101,8.994648,-1.700643,4.580994,-0.151900,0.034321,-0.068512
36102,8.934619,-1.750465,4.496236,-0.181584,0.027128,-0.074046
36103,8.924111,-1.787596,4.318565,-0.191133,-0.003853,-0.081923
36104,8.941250,-1.799132,4.143518,-0.126074,-0.013233,-0.115489
36105,8.851866,-1.753775,4.118970,0.055007,0.027595,-0.192029
36106,8.541865,-1.486955,4.255638,0.257058,0.047276,-0.271517
36107,8.331253,-1.100672,4.331515,0.348950,0.051897,-0.339817
36108,8.382361,-0.756862,4.446099,0.352131,0.025989,-0.380866
36109,8.486159,-0.527455,4.403108,0.269644,-0.023420,-0.387335
36110,8.658615,-0.390415,4.254217,0.150698,-0.057399,-0.380129
36111,8.761886,-0.429695,4.027333,0.031070,-0.088651,-0.386074
36112,8.906366,-0.495506,3.834079,-0.016678,-0.125749,-0.407289
36113,8.996137,-0.526627,3.670901,-0.017036,-0.163989,-0.441048
36114,9.021481,-0.491993,3.583988,-0.008144,-0.188241,-0.497358
36115,8.983504,-0.442649,3.554986,-0.019570,-0.204531,-0.552802
36116,8.858534,-0.363138,3.475326,-0.036771,-0.252573,-0.604557
36117,8.874348,-0.333911,3.428693,-0.031613,-0.307218,-0.680785
36118,8.879593,-0.178365,3.338372,-0.048452,-0.354178,-0.746424
36119,8.762505,-0.023354,3.116115,-0.094386,-0.423772,-0.806143
36120,8.816764,-0.024654,3.115717,-0.105061,-0.499192,-0.868889
36121,9.008410,-0.080366,3.294719,-0.057843,-0.520593,-0.949217
36122,9.120776,-0.113111,3.630288,0.026372,-0.463577,-0.953789
36123,8.803888,-0.198989,4.137104,0.005059,-0.397642,-0.990126
36124,8.559055,-0.219780,4.307721,-0.078343,-0.392282,-1.013988
36125,8.420432,-0.087686,4.311044,-0.130286,-0.456136,-1.017252
36126,8.636531,-0.022112,4.033696,-0.202802,-0.528404,-1.014039
36127,8.999252,-0.043961,3.783020,-0.251839,-0.572611,-1.013105
36128,9.322819,-0.198478,3.651541,-0.251221,-0.585488,-1.011452
36129,9.472637,-0.354290,3.534363,-0.224423,-0.575141,-1.020392
36130,9.399212,-0.494913,3.425990,-0.180697,-0.567762,-1.035107
36131,9.323048,-0.608526,3.340020,-0.114595,-0.589308,-1.043067
36132,9.167698,-0.653850,3.261685,-0.020936,-0.605764,-1.048033
36133,9.110063,-0.688480,3.199366,0.078599,-0.610174,-1.050605
36134,9.125218,-0.585323,3.217187,0.192991,-0.604292,-1.041383
36135,9.168215,-0.398370,3.309778,0.245447,-0.604283,-1.018390
36136,9.370040,-0.266336,3.376641,0.227263,-0.608457,-0.988059
36137,9.458234,-0.178133,3.403257,0.176056,-0.605686,-0.950863
36138,9.512249,-0.070027,3.473360,0.147829,-0.592564,-0.924655
36139,9.531948,-0.022360,3.493119,0.137609,-0.589228,-0.906090
36140,9.532250,0.076536,3.607307,0.120983,-0.570688,-0.893593
36141,9.466837,0.111387,3.744395,0.068021,-0.537339,-0.851640
36142,9.407425,0.032039,3.791863,-0.019954,-0.527164,-0.782528
36143,9.377277,-0.092049,3.623669,-0.090681,-0.529473,-0.719852
36144,9.428389,-0.212563,3.364966,-0.075937,-0.519958,-0.659880
36145,9.557438,-0.286037,3.234631,0.008694,-0.501255,-0.597267
36146,9.594326,-0.303478,3.144783,0.121081,-0.461579,-0.533480
36147,9.636676,-0.267386,3.130259,0.218443,-0.424451,-0.464492
36148,9.566578,-0.308150,3.162364,0.290700,-0.404544,-0.392179
36149,9.571713,-0.340099,3.151915,0.327571,-0.413252,-0.315538
36150,9.564487,-0.411390,3.068169,0.380888,-0.430837,-0.239485
36151,9.444490,-0.301653,2.818068,0.423336,-0.450772,-0.173645
36152,9.308446,-0.129974,2.511355,0.464389,-0.492343,-0.140533
36153,9.252978,0.009324,2.206581,0.522543,-0.552175,-0.153822
36154,9.374103,0.341877,1.867269,0.583150,-0.579932,-0.179094
36155,9.518366,0.645711,1.698079,0.630297,-0.547559,-0.177148
36156,9.583634,0.940024,1.648066,0.654359,-0.490475,-0.152634
36157,9.596836,1.119348,1.878355,0.630508,-0.420674,-0.097455
36158,9.514893,1.177973,2.195601,0.506381,-0.363907,-0.045422
36159,9.437288,1.224282,2.445383,0.326971,-0.348665,0.002941
36160,9.330242,1.288686,2.546165,0.163987,-0.376675,0.063183
36161,9.292221,1.376284,2.547483,-0.007520,-0.392748,0.097993
36162,9.262736,1.423068,2.456253,-0.180818,-0.392416,0.122823
36163,9.204512,1.376499,2.326867,-0.316920,-0.400587,0.147783
36164,9.188666,1.349160,2.071711,-0.399199,-0.455443,0.178134
36165,9.337671,1.265885,1.867602,-0.444993,-0.499179,0.199210
36166,9.509192,1.192837,1.706140,-0.450160,-0.534376,0.191659
36167,9.750575,1.240550,1.528415,-0.378290,-0.559560,0.161413
36168,9.914765,1.308719,1.470437,-0.228716,-0.512782,0.148483
36169,9.903612,1.403748,1.613141,-0.063738,-0.425894,0.119179
36170,9.876348,1.480352,1.836882,0.105650,-0.364652,0.098567
36171,9.904457,1.651955,2.078237,0.262575,-0.336446,0.092724
36172,9.942514,1.767330,2.201077,0.370016,-0.313886,0.146699
36173,9.805637,1.690841,2.392699,0.390189,-0.356631,0.211140
36174,9.821172,1.545922,2.285231,0.266852,-0.468810,0.237482
36175,9.923339,1.398335,1.945225,0.161573,-0.565755,0.225311
36176,9.971403,1.331105,1.495244,0.161526,-0.603530,0.172903
36177,10.025344,1.486545,1.196130,0.221995,-0.530590,0.091479
36178,10.014180,1.752555,1.072253,0.329401,-0.355403,-0.021070
36179,10.000254,2.066522,1.378407,0.409033,-0.145014,-0.096044
36180,9.874215,2.315123,1.985776,0.330264,0.001742,-0.154732
36181,9.784716,2.530107,2.384970,0.088298,0.042577,-0.164946
36182,9.648718,2.491235,2.743678,-0.269282,-0.078519,-0.070262
36183,9.495342,2.093012,2.494842,-0.688229,-0.269301,0.009877
36184,9.618139,1.568615,1.882476,-0.946524,-0.395460,0.071604
36185,9.677745,1.042143,1.405004,-0.957445,-0.463616,0.142946
36186,9.619057,0.655322,1.106893,-0.854218,-0.490522,0.176270
36187,9.640161,0.373168,0.862633,-0.661448,-0.452497,0.147535
36188,9.747391,0.174941,0.682607,-0.369414,-0.333485,0.076457
36189,9.750938,0.216740,0.532726,0.054956,-0.164775,-0.029983
36190,9.709701,0.401884,0.760505,0.478191,-0.020572,-0.108978
36191,9.769857,0.754938,1.123894,0.717080,0.074893,-0.166278
36192,9.765891,1.051151,1.474504,0.713694,0.112175,-0.166784
36193,9.757878,1.284943,1.654535,0.500335,0.045092,-0.098745
36194,9.685333,1.376363,1.622385,0.199655,-0.083936,0.012048
36195,9.697530,1.305472,1.319112,-0.034912,-0.168696,0.067494
36196,9.782196,1.147756,1.037947,-0.114146,-0.195876,0.078775
36197,9.821680,0.940736,0.937389,-0.070200,-0.163028,0.082787
36198,9.715704,0.829106,0.869477,0.024959,-0.115476,0.047694
36199,9.736957,0.858816,0.879448,0.161627,-0.072845,0.002783
36200,9.821889,1.019187,1.046196,0.285871,-0.044714,-0.006198
36201,9.799496,1.176952,1.150619,0.295785,-0.021655,-0.016172
36202,9.807389,1.288184,1.208315,0.215943,-0.018145,-0.004448
36203,9.733316,1.368643,1.152196,0.133543,-0.059741,0.016536
36204,9.766914,1.323922,1.121484,0.063656,-0.064365,0.014807
36205,9.740434,1.284024,1.023446,0.042240,-0.044401,0.017382
36206,9.724820,1.216145,1.175668,0.060575,-0.026393,0.008752
36207,9.732183,1.223667,1.245548,0.066373,-0.012068,0.004686
36208,9.716816,1.196910,1.272786,0.047431,-0.008190,0.012782
36209,9.767772,1.180294,1.243060,0.024343,-0.018276,0.023536
36210,9.774535,1.194222,1.115106,0.021311,-0.023971,0.036501
36211,9.776669,1.202317,0.938167,0.008402,-0.033300,0.037453
36212,9.764115,1.284180,0.779616,-0.001596,-0.028412,0.028816
36213,9.742818,1.348097,0.724009,-0.028372,-0.008039,0.012007
36214,9.717403,1.399693,0.820812,-0.047744,0.018253,-0.010914
36215,9.670695,1.380953,1.028026,-0.076650,0.032457,-0.027118
36216,9.770291,1.270284,1.230637,-0.129612,0.017754,-0.014256
36217,9.782033,1.151300,1.317476,-0.214707,-0.013365,0.019764
36218,9.768306,1.002224,1.135964,-0.266777,-0.035868,0.045961
36219,9.745791,0.902120,0.973176,-0.222232,-0.042479,0.051814
36220,9.768572,0.871260,0.897654,-0.102371,-0.023419,0.035039
36221,9.754292,0.942701,0.916810,0.026530,0.014335,-0.002940
36222,9.706100,1.090590,1.008428,0.129079,0.041232,-0.024439
36223,9.746793,1.216539,1.167679,0.161911,0.040963,-0.032995
36224,9.846876,1.277685,1.276938,0.108296,0.021916,-0.019630
36225,9.850726,1.225244,1.208340,-0.013944,-0.000067,-0.008131
36226,9.833157,1.108582,1.047986,-0.084898,-0.028702,-0.000740
36227,9.853101,0.951516,0.910471,-0.065195,-0.042242,0.005765
36228,9.883579,0.904587,0.859257,-0.020742,-0.034755,-0.006420
36229,9.826794,0.885705,0.766310,0.030514,-0.003051,-0.016656
36230,9.740258,0.973889,0.840389,0.093287,0.010148,-0.029549
36231,9.735684,1.032502,0.909585,0.131571,0.015014,-0.037244
36232,9.724417,1.143897,1.023694,0.119925,0.017724,-0.037289
36233,9.664389,1.213171,1.072520,0.079382,0.008263,-0.030485
36234,9.701405,1.176714,1.097108,0.024274,-0.002202,-0.020734
36235,9.752829,1.134265,1.021472,-0.023863,-0.017875,-0.005086
36236,9.725504,1.095373,0.928052,-0.043473,-0.018317,0.000668
36237,9.764795,0.999152,0.858431,-0.025073,-0.017573,-0.011991
36238,9.767117,1.002906,0.881823,0.013893,0.000336,-0.016725
36239,9.763604,1.030843,0.904444,0.039518,0.010048,-0.016457
36240,9.759120,1.087404,0.973889,0.052266,0.010451,-0.015229
36241,9.748958,1.167524,1.041180,0.048172,0.005237,-0.011957
36242,9.790308,1.203580,1.033731,0.044084,0.008739,-0.008084
36243,9.784434,1.228459,1.032116,0.017775,0.003405,-0.010121
36244,9.766346,1.200271,1.037343,-0.002708,0.008867,-0.007663
36245,9.756637,1.191370,0.941471,-0.016313,0.005675,-0.012771
36246,9.750667,1.216488,0.940496,-0.002139,0.009714,-0.018774
36247,9.755039,1.223368,0.990129,0.011078,0.017731,-0.020984
36248,9.727618,1.246312,1.016929,0.003442,0.016837,-0.024970
36249,9.691456,1.190053,1.027452,-0.025124,0.003316,-0.019377
36250,9.739480,1.173965,0.975450,-0.033370,-0.005398,-0.017146
36251,9.758164,1.176170,0.924347,-0.019835,0.001302,-0.020615
36252,9.705858,1.162499,0.882684,-0.008972,0.015127,-0.027447
36253,9.694561,1.143467,0.961653,0.009522,0.021130,-0.030896
36254,9.745996,1.162142,1.005930,0.003952,0.014007,-0.024700
36255,9.696064,1.150363,0.989021,-0.033987,0.014698,-0.013401
36256,9.705036,1.101157,0.969800,-0.054755,0.002276,-0.006603
36257,9.712917,1.020336,0.878848,-0.056678,-0.007217,-0.000228
36258,9.737653,0.997014,0.829205,-0.040476,-0.007637,-0.000332
36259,9.753165,1.023839,0.800233,-0.004488,-0.000401,-0.004056
36260,9.734613,1.124313,0.842486,0.061858,0.027904,-0.012658
36261,9.752134,1.215332,0.957365,0.073030,0.033477,-0.025623
36262,9.670397,1.279900,1.035185,0.041829,0.027080,-0.023396
36263,9.695944,1.289751,1.057817,-0.015784,0.002824,-0.012514
36264,9.705136,1.240593,1.036907,-0.058714,-0.020226,-0.007369
36265,9.766348,1.146983,0.940223,-0.071019,-0.027214,0.003010
36266,9.689850,1.094006,0.828056,-0.063928,-0.019916,-0.001804
36267,9.748624,1.058456,0.825042,-0.030840,-0.009183,-0.019566
36268,9.783701,1.077812,0.943399,0.026124,0.014156,-0.019382
36269,9.756341,1.100163,0.969651,0.027652,0.012534,-0.013742
36270,9.736542,1.169459,0.940198,-0.017502,-0.009973,-0.000346
36271,9.777986,1.144846,0.814035,-0.026407,-0.023018,-0.000501
36272,9.774594,1.171263,0.835228,0.003084,-0.004711,-0.009258
36273,9.736551,1.171213,0.937916,0.018355,0.013058,-0.020588
36274,9.728195,1.253983,1.029734,0.008282,-0.001442,-0.023358
36275,9.763222,1.213990,1.030077,-0.006176,-0.005952,-0.011814
36276,9.753513,1.164167,1.060497,-0.036205,-0.002195,-0.006348
36277,9.280017,0.632338,1.525230,-0.017805,-0.079429,-0.071367
36278,9.013413,0.764220,1.170036,0.131424,-0.471914,-0.375059
36279,10.489348,1.748791,0.207012,0.273838,-0.507544,-0.160441
36280,10.535932,1.807136,0.430625,0.180486,-0.122842,0.141054
36281,9.564508,1.193306,0.972396,-0.169634,0.201238,-0.013881
36282,9.515158,0.998547,0.844060,-0.191433,0.152375,-0.125611
