// Start Time: Unknown
// Update Rate: 100.0Hz
// Filter Profile: human (46.1)
// Firmware Version: 4.3.5
PacketCounter,Acc_X,Acc_Y,Acc_Z,Gyr_X,Gyr_Y,Gyr_Z
62151,9.749735,0.971060,1.578111,0.010388,0.018463,0.006368
62152,9.679480,0.959118,1.597956,0.009035,0.018251,0.007190
62153,9.695794,0.910992,1.567580,0.006068,0.015923,0.002773
62154,9.691421,0.873206,1.529546,0.018718,0.018844,0.010443
62155,9.688019,0.888576,1.561394,0.022715,0.013768,0.008156
62156,9.684633,0.904129,1.593001,0.030800,0.015163,0.008936
62157,9.681815,0.940946,1.574297,0.035896,0.014371,0.011005
62158,9.697937,1.058080,1.613368,0.039150,0.015394,0.007304
62159,9.663220,1.078858,1.658406,0.022424,0.011989,0.007803
62160,9.704447,1.057789,1.674843,0.013581,0.013775,0.002839
62161,9.714835,1.062944,1.655192,-0.002230,0.021377,0.004209
62162,9.666920,0.949866,1.633061,-0.011652,0.022696,0.007010
62163,9.725161,0.901998,1.568436,-0.003842,0.019255,-0.001029
62164,9.720719,0.864568,1.530910,0.012057,0.023196,0.002949
62165,9.675680,0.901585,1.548324,0.021022,0.029740,-0.000918
62166,9.661838,0.933981,1.552805,0.023268,0.038018,-0.003628
62167,9.671211,0.918902,1.585252,0.016534,0.036828,-0.005235
62168,9.749972,0.861243,1.529747,0.005158,0.034553,0.003383
62169,9.765436,0.791268,1.551544,0.008834,0.033842,0.017696
62170,9.765134,0.789010,1.554591,0.018669,0.030781,0.032918
62171,9.785347,0.940736,1.634166,0.032761,0.018565,0.040697
62172,9.769595,1.038621,1.737188,0.023037,0.015199,0.040372
62173,9.746510,1.083241,1.710744,0.017456,0.015088,0.028935
62174,9.739013,1.059650,1.703568,0.017099,0.028494,0.021965
62175,9.655260,1.078973,1.725614,0.020458,0.035058,0.012373
62176,9.662061,1.100137,1.738213,0.024377,0.042226,0.000724
62177,9.647943,1.132889,1.743807,0.018638,0.051735,-0.011445
62178,9.626219,1.144846,1.741037,0.011171,0.056646,-0.014492
62179,9.646528,1.157425,1.704138,-0.006480,0.060225,-0.024474
62180,9.665779,1.149324,1.718177,-0.016096,0.065323,-0.027949
62181,9.669076,1.210717,1.714350,-0.038270,0.073202,-0.039329
62182,9.674476,1.235933,1.731691,-0.056337,0.084447,-0.056111
62183,9.683249,1.299874,1.789756,-0.076331,0.091935,-0.072785
62184,9.703352,1.391628,1.777700,-0.087415,0.106063,-0.087587
62185,9.744997,1.468845,1.915309,-0.111502,0.115765,-0.099065
62186,9.795883,1.424022,1.943004,-0.136491,0.117367,-0.108673
62187,9.846169,1.250793,1.880849,-0.165271,0.113790,-0.094907
62188,9.850490,1.224661,1.832983,-0.182744,0.106943,-0.083827
62189,9.874963,1.112897,1.772715,-0.204389,0.108732,-0.082432
62190,9.780565,0.913532,1.682970,-0.225382,0.098860,-0.073781
62191,9.701651,0.830891,1.630852,-0.214229,0.089934,-0.070577
62192,9.686274,0.738998,1.551667,-0.197648,0.093386,-0.065190
62193,9.679885,0.682901,1.572159,-0.177642,0.099926,-0.051674
62194,9.666858,0.679313,1.604438,-0.155578,0.110006,-0.049625
62195,9.635955,0.722857,1.669854,-0.131354,0.119941,-0.047120
62196,9.675289,0.852853,1.741487,-0.126004,0.137827,-0.045004
62197,9.666000,1.056801,1.811117,-0.117280,0.162334,-0.052354
62198,9.628360,1.325284,1.886944,-0.135877,0.180996,-0.075846
62199,9.689769,1.433028,1.943297,-0.156080,0.194737,-0.101714
62200,9.718382,1.472794,1.993482,-0.183395,0.216787,-0.124192
62201,9.764046,1.541142,2.035623,-0.220320,0.237080,-0.141097
62202,9.748080,1.506926,2.102406,-0.258330,0.244592,-0.159451
62203,9.733668,1.495430,2.121033,-0.292183,0.259286,-0.159521
62204,9.712387,1.462627,2.130718,-0.323083,0.262893,-0.172445
62205,9.595678,1.429206,2.087589,-0.345980,0.265145,-0.181540
62206,9.686111,1.390226,2.099536,-0.370289,0.267047,-0.189876
62207,9.697145,1.293180,2.165513,-0.384866,0.279825,-0.191578
62208,9.615906,1.156739,2.195593,-0.376840,0.279500,-0.193001
62209,9.690495,1.016884,2.194646,-0.371767,0.284340,-0.187181
62210,9.664879,0.791895,2.195266,-0.349898,0.296667,-0.163346
62211,9.605435,0.669403,2.121693,-0.312209,0.284734,-0.138522
62212,9.600931,0.601530,2.126161,-0.290739,0.274236,-0.106833
62213,9.658796,0.534847,2.196672,-0.270625,0.273662,-0.071081
62214,9.549203,0.452990,2.164189,-0.258216,0.272138,-0.032712
62215,9.450867,0.283135,2.283906,-0.251530,0.260475,0.002167
62216,9.385306,0.204772,2.366951,-0.237922,0.263074,0.033698
62217,9.336975,0.152143,2.441776,-0.207626,0.286369,0.059899
62218,9.314449,0.073297,2.494865,-0.173714,0.294772,0.097635
62219,9.221319,-0.091674,2.474123,-0.127209,0.295135,0.143643
62220,9.255762,-0.232903,2.390358,-0.057634,0.289011,0.193923
62221,9.283327,-0.329818,2.380511,0.000970,0.293369,0.245137
62222,9.341066,-0.394713,2.342904,0.049445,0.287736,0.291806
62223,9.335312,-0.496056,2.344288,0.083990,0.282504,0.352595
62224,9.342454,-0.599282,2.385317,0.119908,0.274571,0.409812
62225,9.361149,-0.700419,2.406324,0.139682,0.265491,0.474442
62226,9.321428,-0.821686,2.536957,0.173584,0.263868,0.538666
62227,9.252001,-0.914142,2.570709,0.202508,0.267067,0.598222
62228,9.251742,-0.925469,2.620446,0.227645,0.274187,0.661318
62229,9.296753,-1.012952,2.615881,0.254243,0.270698,0.727372
62230,9.327289,-1.182738,2.546901,0.280479,0.261225,0.793467
62231,9.364145,-1.184392,2.418552,0.332081,0.242993,0.856634
62232,9.493391,-1.162381,2.391005,0.366275,0.222968,0.912781
62233,9.589277,-1.183148,2.450293,0.399859,0.212802,0.965306
62234,9.563532,-1.126412,2.542714,0.412938,0.224245,1.007549
62235,9.483530,-1.000215,2.646750,0.422706,0.214677,1.035496
62236,9.473519,-0.977085,2.675440,0.405322,0.205462,1.064238
62237,9.416219,-0.932798,2.582701,0.394346,0.194971,1.085286
62238,9.385358,-0.829222,2.520176,0.379148,0.182328,1.102468
62239,9.355291,-0.853586,2.361524,0.337115,0.163222,1.121300
62240,9.413078,-0.840218,2.333275,0.298408,0.143091,1.143301
62241,9.431052,-0.898169,2.349800,0.243453,0.119692,1.172934
62242,9.467200,-1.079964,2.351909,0.198122,0.091212,1.184555
62243,9.493285,-1.124177,2.373954,0.176571,0.072329,1.195622
62244,9.429761,-1.155916,2.391373,0.144005,0.053011,1.179707
62245,9.370421,-1.202855,2.436053,0.124561,0.027462,1.169022
62246,9.386590,-1.248567,2.410984,0.111605,0.010428,1.148726
62247,9.391986,-1.242909,2.415009,0.126390,0.007839,1.136981
62248,9.392884,-1.219857,2.508220,0.143425,-0.001154,1.127254
62249,9.368706,-1.271013,2.538602,0.152862,-0.028112,1.124176
62250,9.390000,-1.224917,2.457815,0.174729,-0.073226,1.097050
62251,9.409218,-1.142062,2.373022,0.191581,-0.107883,1.058109
62252,9.431468,-0.967522,2.354778,0.200016,-0.131177,0.996698
62253,9.420287,-0.756600,2.552818,0.170541,-0.126960,0.924987
62254,9.366959,-0.806717,2.660325,0.140865,-0.126751,0.846270
62255,9.452768,-0.589747,2.769433,0.141308,-0.130230,0.801478
62256,9.370169,-0.688181,2.725979,0.094335,-0.136352,0.778405
62257,9.322401,-0.987865,2.723168,0.072659,-0.171665,0.745780
62258,9.415659,-1.147671,2.649908,0.113318,-0.198123,0.693225
62259,9.419004,-1.102888,2.551855,0.160205,-0.201885,0.631306
62260,9.337972,-0.884038,2.490313,0.195896,-0.198115,0.544995
62261,9.276478,-0.721114,2.650110,0.188190,-0.174327,0.474020
62262,9.138191,-0.626533,2.811953,0.166637,-0.148972,0.410725
62263,9.064111,-0.784212,2.830656,0.121558,-0.150746,0.367555
62264,9.079292,-1.003015,2.791196,0.109861,-0.166222,0.340337
62265,9.168556,-1.076024,2.749294,0.130027,-0.160193,0.313946
62266,9.282714,-1.108764,2.787840,0.125327,-0.134661,0.282168
62267,9.298822,-1.147659,2.727272,0.115676,-0.135607,0.250162
62268,9.330391,-1.202098,2.616479,0.106196,-0.151029,0.227220
62269,9.510306,-1.380583,2.667872,0.100320,-0.149490,0.201514
62270,9.557431,-1.462438,2.657685,0.117795,-0.133781,0.180087
62271,9.543625,-1.453733,2.816441,0.114857,-0.115010,0.146517
62272,9.560545,-1.495552,2.849237,0.110415,-0.086943,0.113572
62273,9.518275,-1.486267,2.872825,0.096589,-0.070968,0.088244
62274,9.532206,-1.472475,2.877615,0.089645,-0.053951,0.061550
62275,9.484787,-1.355065,2.900608,0.085244,-0.042964,0.034903
62276,9.515605,-1.090252,2.978973,0.061769,-0.033231,-0.017261
62277,9.665055,-0.937295,3.051326,-0.002109,-0.010386,-0.063604
62278,9.682725,-0.981297,3.062033,-0.075249,0.000695,-0.098523
62279,9.802451,-1.064657,3.264037,-0.135079,0.026578,-0.131050
62280,9.881366,-1.463920,3.378193,-0.159466,0.057093,-0.136111
62281,9.814835,-1.786699,3.421861,-0.144871,0.069289,-0.137207
62282,9.850211,-1.914772,3.391550,-0.088528,0.093688,-0.133381
62283,9.803913,-1.853410,3.429959,-0.039290,0.129045,-0.140062
62284,9.849957,-1.703713,3.240081,-0.006846,0.148305,-0.158813
62285,9.798723,-1.341581,3.286760,0.031106,0.172930,-0.204104
62286,9.926040,-1.148968,3.490588,0.027385,0.197856,-0.258771
62287,9.968438,-1.185967,3.514328,0.026097,0.233272,-0.308824
62288,9.911430,-1.209299,3.470781,0.046026,0.261446,-0.350540
62289,10.128479,-1.121367,3.480594,0.071554,0.305357,-0.368991
62290,10.181600,-0.777694,3.597727,0.095495,0.372555,-0.405286
62291,10.214132,-0.381264,3.588335,0.107714,0.400820,-0.464660
62292,10.316884,-0.039201,3.664768,0.044009,0.430933,-0.533634
62293,10.362449,0.097736,3.789260,-0.023811,0.449401,-0.610211
62294,10.241514,0.033789,3.907027,-0.080384,0.464093,-0.688319
62295,10.200448,-0.122097,4.050865,-0.130387,0.481313,-0.743271
62296,10.197567,-0.237633,4.198478,-0.182579,0.544003,-0.769542
62297,10.064889,-0.383510,4.436579,-0.219237,0.611904,-0.783608
62298,10.113042,-0.527122,4.698011,-0.246840,0.660505,-0.769475
62299,10.201122,-0.725212,4.838015,-0.293133,0.713665,-0.731852
62300,10.200160,-1.016372,4.778773,-0.345902,0.771414,-0.685919
62301,10.226219,-1.521474,4.626764,-0.361938,0.819077,-0.631296
62302,10.311294,-1.930026,4.690602,-0.316387,0.863493,-0.573910
62303,10.408393,-2.253458,4.649679,-0.236010,0.904185,-0.516780
62304,10.398164,-2.331043,4.714890,-0.146013,0.963033,-0.457549
62305,10.460291,-2.397650,4.856481,-0.095171,1.020557,-0.392502
62306,10.501330,-2.453201,4.995030,-0.050594,1.083733,-0.336641
62307,10.520607,-2.498412,5.130937,-0.009107,1.157270,-0.264889
62308,10.432297,-2.481418,5.190280,0.019597,1.215640,-0.192687
62309,10.251199,-2.452814,5.239785,0.010113,1.264371,-0.119154
62310,10.166360,-2.521269,5.306475,-0.035579,1.302718,-0.028294
62311,10.124830,-2.615698,5.211508,-0.085917,1.351413,0.067768
62312,9.962438,-2.691356,5.106330,-0.145598,1.411189,0.162507
62313,9.781722,-2.780670,5.017755,-0.199866,1.458396,0.249973
62314,9.680395,-2.813788,4.914826,-0.234544,1.473536,0.338341
62315,9.627009,-2.734546,5.070696,-0.279046,1.511310,0.417530
62316,9.556111,-2.687137,5.174567,-0.349393,1.560261,0.493162
62317,9.432602,-2.853856,5.149806,-0.399257,1.585465,0.570819
62318,9.276272,-2.963479,5.093431,-0.415731,1.600116,0.645539
62319,9.047298,-2.933497,4.960675,-0.428256,1.605017,0.716750
62320,8.926487,-3.065557,4.895482,-0.461504,1.599148,0.787616
62321,8.726067,-3.034247,5.032790,-0.487810,1.576992,0.849550
62322,8.759872,-2.979822,5.210947,-0.536324,1.596480,0.900083
62323,8.614452,-3.043237,5.247670,-0.568785,1.614473,0.977033
62324,8.398034,-3.049326,5.321106,-0.610459,1.649527,1.041090
62325,8.066200,-2.999045,5.497167,-0.667144,1.690825,1.086366
62326,8.010837,-3.035873,5.503921,-0.739946,1.678660,1.152233
62327,7.832003,-3.141102,5.480918,-0.832838,1.679302,1.214557
62328,7.525270,-3.498334,5.444898,-0.901139,1.677150,1.240941
62329,7.400514,-3.588388,5.511992,-0.915850,1.673084,1.253657
62330,7.276060,-3.599985,5.749578,-0.975678,1.669007,1.279219
62331,7.015064,-3.835158,5.751868,-1.000766,1.648621,1.316178
62332,6.864112,-3.915456,6.117032,-1.051647,1.663566,1.343572
62333,6.624284,-3.977127,6.305406,-1.093346,1.658411,1.402445
62334,6.598739,-4.119395,6.257135,-1.114884,1.665757,1.478036
62335,6.324990,-4.325926,6.188674,-1.158806,1.694496,1.544124
62336,6.117079,-4.500115,6.291598,-1.204710,1.692648,1.587548
62337,6.060834,-4.653283,6.535948,-1.274757,1.701111,1.603737
62338,5.996242,-5.011121,6.507481,-1.322506,1.721460,1.630330
62339,5.694140,-5.147406,6.766136,-1.352023,1.745674,1.669908
62340,5.258588,-5.085896,7.162568,-1.388250,1.746143,1.689731
62341,5.301819,-5.242126,6.917247,-1.390118,1.772331,1.720286
62342,4.955207,-5.351558,6.802547,-1.456725,1.810909,1.751526
62343,4.694796,-5.519763,6.842100,-1.472879,1.801841,1.798874
62344,4.571938,-5.762292,6.550145,-1.484819,1.777339,1.832055
62345,4.486654,-5.760230,6.712629,-1.562013,1.743401,1.855988
62346,4.325042,-5.892120,6.849412,-1.583575,1.748413,1.862541
62347,3.979248,-5.994408,6.816682,-1.574264,1.771766,1.844446
62348,3.630218,-6.232704,6.762732,-1.632969,1.795067,1.849186
62349,3.118868,-6.467370,6.816383,-1.667936,1.790390,1.862871
62350,2.973974,-6.699086,6.656468,-1.646699,1.752829,1.867495
62351,3.034337,-6.765791,6.620905,-1.670314,1.748364,1.871592
62352,2.833068,-6.826292,6.693820,-1.693673,1.738822,1.870355
62353,2.549565,-6.884289,6.462503,-1.661996,1.699650,1.854026
62354,2.479920,-7.038732,6.278405,-1.668914,1.673938,1.841528
62355,2.310421,-7.309270,6.202322,-1.633892,1.663113,1.835940
62356,2.304038,-7.431549,6.052955,-1.547291,1.651596,1.837642
62357,1.935804,-7.329694,5.904511,-1.499542,1.634526,1.825243
62358,1.748793,-7.272114,5.925530,-1.465152,1.597406,1.804497
62359,1.386788,-7.190872,5.790713,-1.431319,1.575799,1.773973
62360,0.982643,-7.170369,5.701559,-1.409410,1.529527,1.748166
62361,0.841971,-7.093033,5.546915,-1.376758,1.472900,1.725149
62362,0.775024,-7.172444,5.396630,-1.349489,1.460461,1.700614
62363,0.602524,-7.254872,5.235055,-1.278253,1.426255,1.671672
62364,0.474388,-7.248878,5.010359,-1.214462,1.382048,1.639248
62365,0.335843,-7.112430,4.797553,-1.176635,1.346631,1.602917
62366,-0.090135,-7.018314,4.686071,-1.098159,1.293786,1.551611
62367,-0.371541,-6.817991,4.533989,-1.020302,1.247196,1.494985
62368,-0.627491,-6.681275,4.516007,-1.001268,1.203466,1.443418
62369,-0.687867,-6.711670,4.416412,-0.946382,1.159436,1.391489
62370,-0.942551,-6.794139,4.278370,-0.869804,1.123586,1.331036
62371,-1.087809,-6.713059,3.982099,-0.776007,1.081494,1.267299
62372,-1.269970,-6.548704,3.882185,-0.676414,1.017543,1.182681
62373,-1.368974,-6.370695,3.691867,-0.604119,0.969118,1.097506
62374,-1.573793,-6.218492,3.677563,-0.532756,0.910405,1.001891
62375,-1.583611,-6.188314,3.633117,-0.485909,0.838707,0.905282
62376,-1.708252,-6.072119,3.654993,-0.478967,0.761618,0.824927
62377,-1.927482,-6.062386,3.677731,-0.489834,0.662979,0.739084
62378,-2.024491,-6.042773,3.512595,-0.411963,0.592804,0.643909
62379,-2.261738,-6.062713,3.344019,-0.351460,0.540506,0.541630
62380,-2.371308,-6.106694,3.310718,-0.276666,0.470010,0.446485
62381,-2.366968,-6.135292,3.242224,-0.169288,0.394436,0.348986
62382,-2.361417,-6.005812,3.199976,-0.067440,0.322803,0.248683
62383,-2.263105,-5.878123,3.221838,0.030078,0.244548,0.151488
62384,-2.226504,-5.637332,3.265269,0.102939,0.158456,0.055390
62385,-2.145667,-5.334550,3.411889,0.128782,0.059404,-0.050884
62386,-2.104189,-5.116736,3.436951,0.114198,-0.035369,-0.154562
62387,-2.051109,-4.961574,3.318334,0.089035,-0.155222,-0.273242
62388,-2.019050,-4.996435,3.059711,0.102309,-0.275432,-0.418136
62389,-2.183693,-5.127290,2.964098,0.140918,-0.417594,-0.572477
62390,-2.035526,-5.239123,3.044158,0.204390,-0.512172,-0.740136
62391,-2.038051,-5.324727,3.139845,0.263689,-0.555122,-0.882865
62392,-1.975702,-5.300697,3.164654,0.305367,-0.610196,-0.998376
62393,-1.513564,-5.334491,3.316091,0.340500,-0.661911,-1.105622
62394,-1.145306,-5.289931,3.503159,0.320835,-0.742197,-1.218154
62395,-0.995915,-5.236015,3.674972,0.327732,-0.812391,-1.379611
62396,-1.005969,-5.418801,3.781868,0.405379,-0.882313,-1.563538
62397,-0.675207,-5.677462,3.935428,0.498278,-0.932189,-1.727303
62398,-0.559383,-6.175461,4.203084,0.625745,-0.942500,-1.836873
62399,-0.708593,-6.709256,4.290699,0.843990,-0.956991,-1.887416
62400,-0.707930,-6.942157,4.478047,1.009687,-1.005354,-1.905297
62401,-0.385311,-7.054523,4.597700,1.154126,-1.090565,-1.927195
62402,0.055984,-6.984061,4.706553,1.301216,-1.164099,-1.995625
62403,0.757524,-6.858157,4.904165,1.426956,-1.224810,-2.074178
62404,1.205103,-6.879657,5.099935,1.512659,-1.266472,-2.166696
62405,1.257427,-7.042906,5.389075,1.658914,-1.270128,-2.242049
62406,1.150624,-7.113363,5.619695,1.849536,-1.284024,-2.260955
62407,1.045107,-6.986494,5.761237,2.000100,-1.341684,-2.253679
62408,1.255536,-7.084768,5.818225,2.133367,-1.405243,-2.270741
62409,1.468365,-7.119184,5.674641,2.260157,-1.506739,-2.319173
62410,2.088409,-6.814742,5.692967,2.377840,-1.684291,-2.424603
62411,3.276486,-6.423135,5.614661,2.490701,-1.818818,-2.559555
62412,3.368428,-6.178079,5.571961,2.569214,-1.877515,-2.683571
62413,3.268885,-5.894904,5.539065,2.701470,-1.956531,-2.779071
62414,2.802904,-5.537209,5.473097,2.774666,-1.970422,-2.815308
62415,2.005183,-5.291716,5.606549,2.797951,-1.989665,-2.757744
62416,2.126637,-4.820537,5.825793,2.796133,-2.042444,-2.664790
62417,3.307955,-4.306019,6.298662,2.729600,-2.088450,-2.626179
62418,5.056185,-3.931794,6.803088,2.588235,-2.118011,-2.670028
62419,6.156484,-4.033886,7.110566,2.461441,-2.157026,-2.765373
62420,7.780857,-4.104137,7.192156,2.380699,-2.274236,-2.920868
62421,9.085182,-4.221877,6.837552,2.335186,-2.319880,-3.065122
62422,8.421798,-4.953376,6.236419,2.342606,-2.313313,-3.153309
62423,7.547784,-5.106607,6.271686,2.449347,-2.400550,-3.152835
62424,7.458832,-4.153345,6.598316,2.504054,-2.496803,-3.109238
62425,7.765151,-3.222494,6.919509,2.429400,-2.531539,-3.057745
62426,8.128888,-2.415516,7.302677,2.287639,-2.559320,-2.999608
62427,8.686932,-1.939753,7.760476,2.037812,-2.592906,-2.932876
62428,9.390667,-1.851337,8.000938,1.760558,-2.583359,-2.850556
62429,9.541376,-2.268323,8.287609,1.461170,-2.467159,-2.724155
62430,8.729404,-2.887490,8.395036,1.222986,-2.313280,-2.569478
62431,8.649082,-3.135242,8.276842,1.083760,-2.233171,-2.408330
62432,9.027984,-3.335073,8.205259,0.908235,-2.169128,-2.234234
62433,9.601896,-3.598510,8.035372,0.875392,-2.069672,-2.051532
62434,10.019295,-3.477418,8.008109,0.935122,-1.941195,-1.852484
62435,9.897361,-3.281931,7.872420,0.927897,-1.830387,-1.650259
62436,9.638090,-3.320159,7.520521,0.956085,-1.763218,-1.447496
62437,9.465993,-3.484112,7.333882,0.941503,-1.679863,-1.225283
62438,8.936249,-3.438862,7.338403,0.933632,-1.566992,-1.019207
62439,8.405046,-3.122933,7.283853,0.915655,-1.457096,-0.848184
62440,8.277604,-3.007620,6.872253,0.819948,-1.412707,-0.666574
62441,8.762793,-3.003024,6.427505,0.740777,-1.361438,-0.445249
62442,9.022951,-3.163814,5.796665,0.748043,-1.261425,-0.232633
62443,9.274001,-3.279154,5.565103,0.809640,-1.171367,-0.041147
62444,9.484459,-3.079582,5.566719,0.919324,-1.089257,0.140489
62445,9.363472,-2.573838,5.583038,0.969779,-0.957411,0.274600
62446,9.221254,-2.446396,5.265600,0.960292,-0.811735,0.360765
62447,9.138085,-2.175484,4.910365,0.983992,-0.728059,0.483653
62448,8.997217,-2.103016,4.692830,0.917786,-0.692484,0.610898
62449,9.260752,-2.039313,4.355576,0.953829,-0.679444,0.716588
62450,9.300825,-1.493875,4.447882,0.994620,-0.655993,0.786711
62451,9.386126,-1.134849,4.374732,0.894172,-0.638755,0.835826
62452,9.596475,-1.380253,3.906347,0.747466,-0.599660,0.904082
62453,9.853424,-1.615379,3.572145,0.707532,-0.565573,0.965550
62454,9.887613,-1.523788,3.631813,0.651666,-0.522232,1.021506
62455,9.611598,-1.091792,3.580593,0.691837,-0.502714,1.026273
62456,9.371365,-0.459487,4.158927,0.661978,-0.497785,0.993119
62457,9.442412,-0.128190,4.305413,0.580273,-0.500535,0.983589
62458,9.521307,0.061579,4.324556,0.498987,-0.477269,0.983217
62459,9.731499,-0.065663,4.308537,0.371854,-0.470275,1.020529
62460,10.027163,-0.459911,4.038509,0.338453,-0.463319,1.094421
62461,10.164976,-0.833028,3.809147,0.335770,-0.435320,1.160215
62462,10.082121,-1.091689,3.738893,0.341488,-0.426902,1.206067
62463,9.935044,-1.251491,3.564825,0.341478,-0.444269,1.203484
62464,9.794469,-1.249834,3.347973,0.363807,-0.471358,1.191078
62465,9.702780,-0.904345,3.356573,0.354737,-0.471049,1.143719
62466,9.542855,-0.498953,3.653327,0.313151,-0.445284,1.077078
62467,9.620390,-0.228486,3.845382,0.277352,-0.426348,1.016116
62468,9.830304,-0.276015,3.971101,0.246559,-0.391657,0.990820
62469,9.911235,-0.403180,4.086611,0.281177,-0.345807,0.995875
62470,9.999308,-0.509767,4.216447,0.304813,-0.278034,0.996944
62471,9.885589,-0.678359,4.253649,0.352296,-0.227008,1.018757
62472,9.800276,-0.656028,4.223746,0.398987,-0.244491,1.055743
62473,9.655891,-0.905641,3.928668,0.375021,-0.281360,1.062315
62474,9.599433,-0.958218,3.543741,0.425258,-0.309376,0.995574
62475,9.562175,-0.611013,3.188877,0.430121,-0.282754,0.896082
62476,9.444304,-0.239270,3.138550,0.369698,-0.257011,0.773998
62477,9.562132,0.187356,3.236883,0.234468,-0.194859,0.666353
62478,9.555267,0.309528,3.476709,0.074012,-0.143287,0.583196
62479,9.550689,-0.007744,3.693776,-0.072892,-0.107481,0.511689
62480,9.634848,-0.171848,3.695276,-0.081099,-0.071105,0.477245
62481,9.501332,-0.193383,3.831199,-0.115514,-0.033045,0.454036
62482,9.388261,-0.434868,3.881113,-0.159605,-0.013712,0.440326
62483,9.328282,-0.752536,3.732251,-0.170366,-0.025773,0.438336
62484,9.269523,-1.037151,3.425019,-0.128388,-0.065603,0.423838
62485,9.251906,-0.964507,3.238088,-0.097767,-0.114052,0.381610
62486,9.349426,-0.936785,3.141100,-0.103331,-0.115956,0.333824
62487,9.415151,-0.907401,3.174391,-0.144651,-0.096929,0.288295
62488,9.368286,-1.083942,3.142219,-0.202570,-0.072082,0.257920
62489,9.220772,-1.274792,3.160216,-0.223591,-0.047024,0.226078
62490,9.144578,-1.437554,3.077176,-0.232742,-0.049783,0.201019
62491,9.116924,-1.540709,3.148958,-0.240828,-0.041165,0.184514
62492,9.176646,-1.693606,3.200901,-0.253980,-0.015593,0.168836
62493,9.177656,-1.771810,3.172114,-0.230309,-0.013578,0.168987
62494,9.274370,-1.791467,3.149815,-0.203821,-0.017056,0.162360
62495,9.299253,-1.821875,3.197354,-0.174646,-0.011990,0.150080
62496,9.296711,-1.853765,3.225255,-0.144628,-0.006909,0.131993
62497,9.316716,-1.715171,3.195282,-0.119910,-0.002635,0.114375
62498,9.327143,-1.661488,3.165384,-0.113791,-0.009887,0.089229
62499,9.484430,-1.663355,3.036458,-0.077942,-0.011476,0.082238
62500,9.622133,-1.510210,2.880651,-0.031796,-0.003744,0.062636
62501,9.723421,-1.310136,2.970624,0.011999,-0.006137,0.042531
62502,9.883593,-1.489051,3.045512,0.019938,-0.005273,0.013805
62503,9.968646,-1.469088,3.016630,0.104926,-0.004563,-0.030483
62504,9.902534,-1.260431,3.103848,0.171950,-0.001458,-0.086873
62505,9.886061,-0.914881,3.247622,0.184676,-0.004681,-0.133608
62506,9.953428,-0.471045,3.260967,0.158862,-0.011625,-0.198966
62507,10.061090,0.068965,3.142582,0.092321,-0.009899,-0.270524
62508,10.089838,0.439870,3.040057,-0.003367,-0.045983,-0.367491
62509,10.097961,0.671303,2.870699,-0.087705,-0.086274,-0.487262
62510,10.156064,0.690051,2.846407,-0.152445,-0.128528,-0.609674
62511,10.056632,0.524889,2.866514,-0.168189,-0.155992,-0.732695
62512,9.966302,0.436961,3.007909,-0.178971,-0.157825,-0.851252
62513,9.809210,0.322252,3.191759,-0.182393,-0.144810,-0.955768
62514,9.596098,0.251675,3.300853,-0.197854,-0.126711,-1.048949
62515,9.449447,0.254168,3.365312,-0.259823,-0.124079,-1.120391
62516,9.390766,0.246880,3.403359,-0.359232,-0.134063,-1.196704
62517,9.452937,0.103905,3.317398,-0.452627,-0.142117,-1.264175
62518,9.584365,-0.174717,3.123850,-0.519474,-0.149138,-1.324510
62519,9.609095,-0.530898,2.931129,-0.541224,-0.135063,-1.386285
62520,9.640539,-1.029707,2.817788,-0.484413,-0.122590,-1.447261
62521,9.686547,-1.284176,2.773188,-0.327659,-0.112465,-1.486936
62522,9.705573,-1.346407,2.685795,-0.178370,-0.077874,-1.512078
62523,9.482389,-1.263021,2.555464,-0.021031,-0.052239,-1.542990
62524,9.334367,-0.884698,2.538438,0.148190,-0.074511,-1.618604
62525,9.215377,-0.250881,2.632039,0.209944,-0.102702,-1.695529
62526,9.247491,0.297444,2.832914,0.200144,-0.137843,-1.763677
62527,9.326199,0.790504,2.975289,0.158517,-0.171145,-1.757086
62528,9.436199,0.479290,2.495475,0.041227,-0.245163,-1.686033
62529,9.839237,-0.336827,1.955698,-0.001623,-0.313364,-1.552617
62530,10.143418,-1.139858,1.627038,0.075240,-0.300842,-1.425443
62531,10.162440,-1.373655,1.719085,0.170415,-0.265201,-1.334542
62532,10.104867,-1.387423,1.795507,0.196974,-0.248665,-1.279786
62533,10.065939,-1.215820,1.858747,0.207982,-0.242962,-1.246379
62534,9.980382,-0.786948,1.909574,0.183558,-0.238248,-1.222412
62535,9.819339,-0.311745,2.013987,0.076221,-0.233209,-1.193556
62536,9.812746,-0.196100,2.070087,-0.089467,-0.246881,-1.140245
62537,9.771509,-0.259478,2.097855,-0.233027,-0.264596,-1.060497
62538,9.670825,-0.262861,2.186738,-0.362161,-0.279861,-0.971711
62539,9.579860,-0.436778,2.186940,-0.516850,-0.270391,-0.881701
62540,9.551781,-0.623139,2.075590,-0.615461,-0.278419,-0.784358
62541,9.550662,-0.900053,2.016316,-0.675551,-0.271397,-0.692434
62542,9.493671,-1.094744,2.028282,-0.669741,-0.256923,-0.602124
62543,9.469686,-1.109521,2.020092,-0.631438,-0.243148,-0.521642
62544,9.409001,-1.091657,2.001861,-0.564988,-0.227388,-0.446124
62545,9.276534,-0.940256,2.010741,-0.451347,-0.219315,-0.371157
62546,9.280406,-0.720940,2.099864,-0.371923,-0.214040,-0.305897
62547,9.193706,-0.614361,2.105383,-0.284799,-0.213204,-0.228203
62548,9.145096,-0.433014,2.159644,-0.188856,-0.215675,-0.163862
62549,9.136823,-0.274641,2.174190,-0.117154,-0.239668,-0.101701
62550,9.218832,-0.170158,2.197428,-0.054202,-0.261501,-0.048378
62551,9.320966,-0.021367,2.097224,0.007619,-0.285103,-0.009446
62552,9.402289,0.134264,1.984787,0.096860,-0.300452,0.020648
62553,9.431900,0.360167,1.918819,0.231756,-0.317679,0.053758
62554,9.489407,0.659707,1.916482,0.328948,-0.335926,0.072630
62555,9.521549,0.985717,1.989560,0.383828,-0.347839,0.091171
62556,9.527109,1.337024,2.079541,0.389207,-0.337035,0.088835
62557,9.578170,1.692497,2.136176,0.359726,-0.331545,0.077063
62558,9.630352,1.892921,2.178687,0.282550,-0.321170,0.059068
62559,9.666589,1.926325,2.110562,0.200284,-0.319540,0.047566
62560,9.681073,1.984192,1.923379,0.156420,-0.316664,0.033082
62561,9.680587,2.017108,1.808349,0.111871,-0.325907,0.023360
62562,9.746298,1.855922,1.880362,0.064934,-0.322103,0.012953
62563,9.735709,1.828799,1.861204,0.049081,-0.301891,-0.003359
62564,9.701168,1.889487,1.910942,0.027264,-0.287713,-0.017471
62565,9.755668,1.939645,2.008382,-0.013103,-0.267650,-0.025872
62566,9.775299,1.950250,2.022062,-0.056884,-0.257601,-0.030923
62567,9.751519,1.801294,2.058515,-0.109203,-0.247139,-0.023088
62568,9.747185,1.619200,1.956490,-0.160112,-0.246483,-0.013006
62569,9.800539,1.330306,1.885087,-0.176227,-0.257042,-0.009200
62570,9.806339,1.250292,1.786322,-0.153327,-0.242059,-0.010656
62571,9.815914,1.232201,1.736597,-0.144631,-0.204416,-0.013966
62572,9.793096,1.178253,1.664005,-0.138655,-0.174114,-0.010008
62573,9.663447,1.107579,1.562988,-0.134929,-0.148043,-0.003833
62574,9.680688,1.093451,1.640509,-0.138547,-0.127940,0.011075
62575,9.660958,1.078222,1.673547,-0.142097,-0.093402,0.020429
62576,9.592678,1.133857,1.760355,-0.145014,-0.075746,0.030593
62577,9.662738,1.105026,1.841122,-0.141094,-0.052591,0.034113
62578,9.663596,0.981532,1.862442,-0.127822,-0.037195,0.046328
62579,9.643178,0.924859,1.863981,-0.072552,-0.023366,0.051605
62580,9.750941,0.916269,1.804048,-0.016785,-0.008613,0.060526
62581,9.699121,0.961492,1.706507,0.024433,0.007756,0.069936
62582,9.662889,1.053191,1.686833,0.058041,0.013434,0.070281
62583,9.685886,1.137528,1.582645,0.082999,0.019862,0.074523
62584,9.692228,1.173994,1.541901,0.100430,0.027778,0.072848
62585,9.676869,1.199303,1.543510,0.102885,0.026390,0.070909
62586,9.672487,1.153082,1.446560,0.104268,0.023916,0.073085
62587,9.652435,1.175991,1.387806,0.112003,0.016337,0.073567
62588,9.675401,1.317944,1.410671,0.106557,0.020335,0.065113
62589,9.718343,1.373406,1.505580,0.086698,0.020776,0.063096
62590,9.735242,1.396431,1.493945,0.068311,0.018451,0.057560
62591,9.736497,1.450339,1.482232,0.053679,0.015375,0.054986
62592,9.730833,1.404096,1.525524,0.037268,0.018599,0.049629
62593,9.687549,1.377994,1.611401,0.026072,0.018271,0.043720
62594,9.698715,1.380111,1.591686,0.028016,0.018640,0.035159
62595,9.661326,1.358018,1.597087,0.019110,0.020340,0.035729
62596,9.666146,1.318589,1.620018,0.016964,0.020453,0.035274
62597,9.645163,1.324180,1.613021,0.026074,0.020503,0.035034
62598,9.661005,1.368546,1.691734,0.022224,0.026535,0.026090
62599,9.639519,1.336666,1.647548,0.010767,0.037123,0.013919
62600,9.618707,1.324680,1.553121,-0.009602,0.037136,0.013937
62601,9.663944,1.133321,1.531607,-0.020649,0.038967,0.014042
62602,9.678106,1.003120,1.509683,0.007717,0.035657,0.026603
62603,9.683394,1.022864,1.521507,0.031823,0.034848,0.029568
62604,9.620105,1.124485,1.574743,0.053317,0.033248,0.028438
62605,9.604518,1.231487,1.653725,0.064308,0.034016,0.025351
62606,9.631897,1.263120,1.622250,0.059976,0.026852,0.024392
62607,9.659267,1.216585,1.513671,0.054765,0.020393,0.027875
62608,9.659161,1.136543,1.438451,0.057953,0.019065,0.032908
62609,9.644725,1.145314,1.349944,0.070035,0.015999,0.037394
62610,9.698294,1.208485,1.423675,0.067217,0.018572,0.041699
62611,9.698753,1.243886,1.462582,0.054951,0.012344,0.051568
62612,9.726175,1.331185,1.556397,0.051077,0.006097,0.054260
62613,9.732313,1.348970,1.565307,0.027371,0.013119,0.048914
62614,9.700637,1.348396,1.578451,0.012049,0.010107,0.039355
62615,9.647686,1.318350,1.544340,0.008096,0.003985,0.027334
62616,9.642331,1.294167,1.535882,0.010776,-0.000758,0.017013
62617,9.677687,1.194587,1.557991,0.010654,0.002241,0.019715
62618,9.708728,1.130789,1.558621,0.024535,0.000266,0.027050
62619,9.731182,1.138948,1.516094,0.026125,-0.000399,0.029569
62620,9.724975,1.134024,1.596590,0.034773,0.003835,0.034430
62621,9.735554,1.156286,1.664234,0.040793,-0.002723,0.038166
62622,9.740573,1.156234,1.723041,0.051697,-0.001633,0.040785
62623,9.772273,1.170039,1.798921,0.067083,-0.004196,0.035927
62624,9.758284,1.178989,1.708006,0.079531,-0.006307,0.029350
62625,9.723302,1.197660,1.607313,0.100334,-0.018506,0.018582
62626,9.757496,1.153705,1.413944,0.108926,-0.016848,0.011722
62627,9.645484,1.288827,1.272048,0.115870,-0.016773,0.011040
62628,9.669158,1.318285,1.174856,0.085828,-0.032292,0.007609
62629,9.652923,1.291033,1.183347,0.050707,-0.039403,0.007706
62630,9.657775,1.254724,1.200570,0.022767,-0.044624,0.007442
62631,9.631067,1.261101,1.267563,-0.008289,-0.053755,0.008159
62632,9.594158,1.241396,1.266202,-0.029456,-0.063252,0.009913
62633,9.573038,1.229866,1.303079,-0.044755,-0.061059,0.009089
62634,9.576301,1.154529,1.421968,-0.053859,-0.061051,0.009326
62635,9.573964,1.056504,1.532663,-0.047890,-0.057229,0.015762
62636,9.589348,1.004624,1.579357,-0.028939,-0.055007,0.013532
62637,9.670124,1.004078,1.588158,-0.011796,-0.046095,0.014167
62638,9.698609,1.034936,1.550142,0.002887,-0.035798,0.016722
62639,9.689751,1.086817,1.554834,0.017424,-0.027653,0.013261
62640,9.749973,1.114653,1.505379,0.020104,-0.027271,0.011653
62641,9.754888,1.077709,1.523885,0.031155,-0.031837,0.014545
62642,9.772839,1.143484,1.545589,0.034491,-0.026154,0.013880
62643,9.803717,1.101516,1.632594,0.042531,-0.025007,0.009049
62644,9.782309,1.091499,1.672329,0.063260,-0.019066,0.006615
62645,9.789218,1.133453,1.626895,0.076874,-0.015399,-0.001126
62646,9.746549,1.113447,1.569635,0.086390,-0.007072,-0.012469
62647,9.758913,1.159011,1.444391,0.099417,-0.001330,-0.021161
62648,9.764451,1.164265,1.363105,0.096692,0.013523,-0.028594
62649,9.768895,1.172513,1.422593,0.101662,0.010301,-0.038134
62650,9.768896,1.217182,1.460199,0.092996,0.013851,-0.037260
62651,9.747770,1.270429,1.489202,0.075129,0.012664,-0.039125
62652,9.708861,1.216961,1.455852,0.050606,0.000122,-0.039615
62653,9.685949,1.171956,1.460537,0.031048,0.002631,-0.041319
62654,9.652367,1.100446,1.398020,0.031197,0.004809,-0.035316
62655,9.587369,1.071960,1.385790,0.037456,0.010018,-0.034295
62656,9.614915,1.147540,1.389470,0.040821,0.013084,-0.031969
62657,9.671894,1.102948,1.408781,0.034883,0.014426,-0.029699
62658,9.746770,1.143272,1.401279,0.031772,0.018335,-0.023039
62659,9.757127,1.150967,1.381676,0.026332,0.022797,-0.025854
62660,9.738714,1.068457,1.410599,0.016599,0.017527,-0.026521
62661,9.728110,1.084425,1.381705,0.020956,0.012039,-0.019574
62662,9.732989,1.069112,1.353382,0.021967,0.013482,-0.018009
62663,9.689323,1.029931,1.350487,0.026865,0.008507,-0.013125
62664,9.646517,1.069943,1.422215,0.049878,0.013875,-0.006100
62665,9.664416,1.196597,1.432963,0.055012,0.012835,-0.009625
62666,9.685561,1.229508,1.479943,0.050625,0.016134,-0.007862
62667,9.665804,1.275763,1.369064,0.035974,0.013669,-0.004700
62668,9.680905,1.245879,1.371296,0.023219,0.021898,-0.007480
62669,9.659811,1.295356,1.401291,0.008213,0.015466,-0.010621
62670,9.659072,1.256849,1.365491,-0.007205,0.015493,-0.017441
62671,9.667564,1.187194,1.411485,-0.008259,0.016640,-0.022028
62672,9.687322,1.162333,1.473547,-0.000047,0.017349,-0.017835
62673,9.709708,1.191555,1.381071,-0.003762,0.013373,-0.009072
62674,9.729672,1.165628,1.442588,0.008837,0.010777,-0.006636
62675,9.709541,1.232561,1.420568,0.002828,0.012568,0.001317
62676,9.709648,1.272258,1.459209,-0.008177,0.014520,0.001402
62677,9.703849,1.249696,1.452527,-0.027448,0.008359,-0.002662
62678,9.687941,1.240667,1.415594,-0.028830,0.010768,-0.004880
62679,9.680933,1.160507,1.423074,-0.032232,0.010282,-0.010228
62680,9.675070,1.139038,1.415988,-0.025265,0.002542,-0.016571
62681,9.690294,1.109631,1.417316,-0.007897,0.002781,-0.018304
62682,9.733041,1.112370,1.384509,0.001377,0.012341,-0.012585
62683,9.706307,1.139703,1.405791,0.005553,0.007268,-0.014648
62684,9.739458,1.235459,1.417170,0.004587,0.003223,-0.013192
62685,9.691886,1.310962,1.466634,-0.007920,0.010607,-0.012655
62686,9.718047,1.286140,1.447248,-0.030664,0.004381,-0.016382
62687,9.716450,1.189445,1.424972,-0.041929,0.007143,-0.019626
62688,9.704714,1.106349,1.372877,-0.045240,0.011449,-0.021996
62689,9.697728,1.027079,1.380266,-0.034849,0.009434,-0.014318
62690,9.702989,1.050599,1.389687,-0.022336,0.012051,-0.017916
62691,9.744852,1.034929,1.408631,-0.008348,0.007067,-0.013259
62692,9.761292,1.103172,1.433834,-0.004452,0.010657,-0.012992
62693,9.713376,1.138918,1.446476,0.001113,0.013173,-0.015898
62694,9.692966,1.207234,1.424597,0.001023,0.008374,-0.018880
62695,9.687164,1.226546,1.454778,-0.004047,0.008959,-0.021057
62696,9.659191,1.196177,1.490470,-0.013091,0.016375,-0.020864
62697,9.653095,1.095696,1.408828,-0.006546,0.008186,-0.010432
62698,9.722436,1.072385,1.355956,0.001364,0.012341,-0.012571
62699,9.696507,1.117716,1.326222,0.007649,0.014972,-0.008518
62700,9.743951,1.123743,1.353559,-0.011816,0.012229,-0.004241
62701,9.706202,1.144760,1.396439,-0.010222,0.011589,-0.001718
62702,9.716194,1.170927,1.465126,-0.018133,0.007432,0.000418
62703,9.705045,1.165754,1.487439,-0.023790,0.010102,-0.002716
62704,9.667256,1.146924,1.492695,-0.023667,0.007072,-0.005393
62705,9.704622,1.166421,1.489675,-0.007721,0.012360,-0.012340
62706,9.661190,1.166287,1.524216,0.006304,0.009560,-0.016387
62707,9.703914,1.169795,1.491647,0.010067,0.010952,-0.022117
62708,9.650313,1.144386,1.458333,0.014672,0.009428,-0.023568
62709,9.688458,1.184293,1.403444,0.021413,0.007773,-0.024558
62710,9.719169,1.165088,1.443375,0.017763,0.013334,-0.024558
62711,9.714203,1.163583,1.384743,0.006172,0.007346,-0.022390
62712,9.714826,1.184059,1.333888,0.002744,0.004693,-0.019030
62713,9.709034,1.203080,1.363623,-0.003952,0.003749,-0.015022
62714,9.729863,1.235983,1.410054,-0.006582,-0.004456,-0.019078
62715,9.728831,1.179249,1.423844,-0.007587,-0.000673,-0.011969
62716,9.749780,1.172092,1.432739,-0.000303,-0.001816,-0.015021
