// Start Time: Unknown
// Update Rate: 100.0Hz
// Filter Profile: human (46.1)
// Firmware Version: 4.3.5
PacketCounter,SampleTimeFine,Acc_X,Acc_Y,Acc_Z,Gyr_X,Gyr_Y,Gyr_Z,Roll,Pitch,Yaw
52225,,9.111479,-2.877047,2.555440,0.015788,0.011320,-0.013589,-48.404375,-67.103328,15.206126
52226,,9.101132,-2.896206,2.564006,0.016053,0.007739,-0.013901,-48.401421,-67.105597,15.500358
52227,,9.110103,-2.905688,2.545179,0.018798,0.003349,-0.015737,-48.373072,-67.111064,15.481276
52228,,9.131536,-2.861998,2.531421,0.014672,0.002079,-0.019936,-48.344227,-67.119056,15.458984
52229,,9.131318,-2.907366,2.558885,0.014740,0.004276,-0.020396,-48.313031,-67.126156,15.434292
52230,,9.111585,-2.899174,2.547301,0.016741,0.000465,-0.020230,-48.284811,-67.134644,15.414053
52231,,9.141053,-2.914318,2.540262,0.011779,0.002082,-0.017182,-48.260409,-67.141198,15.394896
52232,,9.131099,-2.933276,2.547776,0.010242,-0.003464,-0.017509,-48.242767,-67.149953,15.382027
52233,,9.114280,-2.908825,2.587527,0.012045,-0.001498,-0.017493,-48.221539,-67.158000,15.366480
52234,,9.154267,-2.903293,2.572900,0.010308,-0.001268,-0.017969,-48.201706,-67.165829,15.351192
52235,,9.146051,-2.890237,2.592995,0.010960,0.000468,-0.014723,-48.181595,-67.171938,15.336184
52236,,9.124411,-2.914918,2.568509,0.005009,0.001734,-0.014152,-48.165289,-67.176767,15.321416
52237,,9.167062,-2.893247,2.605864,0.006337,0.000696,-0.012445,-48.149648,-67.181813,15.308385
52238,,9.175998,-2.903450,2.586438,-0.000628,0.006121,-0.009564,-48.136503,-67.182630,15.293506
52239,,9.148229,-2.900972,2.633802,-0.001440,0.004503,-0.007104,-48.126304,-67.183939,15.281546
52240,,9.167366,-2.890972,2.607321,-0.002793,0.010048,-0.004025,-48.115197,-67.180375,15.267574
52241,,9.117913,-2.867742,2.603493,-0.007347,0.012470,-0.002208,-48.104759,-67.176547,15.251682
52242,,9.117590,-2.867874,2.604479,-0.010167,0.014664,0.000085,-48.096314,-67.169058,15.236116
52243,,9.117136,-2.868286,2.605613,-0.009516,0.016399,0.003331,-48.088188,-67.161362,15.221383
52244,,9.116679,-2.868760,2.606689,-0.012310,0.014085,0.000838,-48.081356,-67.153359,15.206379
52245,,9.165602,-2.891907,2.612481,-0.001331,0.013404,-0.003237,-48.065617,-67.149608,15.188472
52246,,9.177571,-2.838517,2.619081,-0.005319,0.016520,-0.008358,-48.043303,-67.144138,15.161138
52247,,9.178502,-2.853131,2.659817,-0.008969,0.018250,-0.014249,-48.017046,-67.143216,15.127067
52248,,9.158222,-2.846148,2.648776,-0.010434,0.014898,-0.015036,-47.990707,-67.141101,15.092603
52249,,9.175798,-2.867499,2.610092,-0.009756,0.012126,-0.016576,-47.968972,-67.143505,15.062951
52250,,9.146944,-2.848995,2.618583,-0.011021,0.015363,-0.018744,-47.937335,-67.142683,15.022558
52251,,9.145327,-2.879898,2.607016,-0.012582,0.014320,-0.014285,-47.917083,-67.143254,14.992756
52252,,9.117952,-2.829773,2.628299,-0.020482,0.021592,-0.014345,-47.887973,-67.137588,14.949467
52253,,9.087068,-2.844212,2.624422,-0.023846,0.018581,-0.009905,-47.873888,-67.134650,14.919354
52254,,9.093953,-2.887216,2.593061,-0.021707,0.019165,-0.010657,-47.849457,-67.128517,14.880626
52255,,9.094845,-2.902241,2.633416,-0.017555,0.015936,-0.011241,-47.833225,-67.127156,14.852093
52256,,9.094747,-2.901538,2.634527,-0.018417,0.019985,-0.014637,-47.803302,-67.121343,14.809375
52257,,9.125427,-2.885475,2.640866,-0.013111,0.016993,-0.018450,-47.776898,-67.122630,14.772564
52258,,9.105237,-2.878290,2.629787,-0.013455,0.018381,-0.017679,-47.742976,-67.117819,14.728941
52259,,9.131643,-2.910695,2.571614,-0.013458,0.018382,-0.017679,-47.716093,-67.118218,14.691398
52260,,9.152010,-2.915253,2.584984,-0.014577,0.013644,-0.019242,-47.687632,-67.115534,14.652421
52261,,9.124069,-2.912561,2.632741,-0.012944,0.015721,-0.013514,-47.666935,-67.115181,14.621911
52262,,9.161877,-2.940132,2.606390,-0.021048,0.016399,-0.012203,-47.648071,-67.107988,14.589369
52263,,9.150374,-2.944882,2.575160,-0.017576,0.015942,-0.011245,-47.631904,-67.106578,14.560898
52264,,9.139758,-2.965429,2.583363,-0.017681,0.018247,-0.005995,-47.618359,-67.094857,14.535014
52265,,9.110422,-2.948343,2.591858,-0.018152,0.015237,-0.004310,-47.609586,-67.090779,14.514207
52266,,9.118966,-2.959610,2.572933,-0.012941,0.014551,-0.002871,-47.603823,-67.079437,14.499049
52267,,9.103566,-2.920854,2.665574,-0.011549,0.015709,-0.001620,-47.593260,-67.074033,14.480399
52268,,9.039902,-2.919939,2.577685,-0.014037,0.016511,-0.000101,-47.591902,-67.059736,14.471638
52269,,9.072737,-2.888842,2.635793,-0.021051,0.015230,-0.001565,-47.587397,-67.054513,14.453683
52270,,9.090059,-2.911548,2.596975,-0.018909,0.015815,-0.002313,-47.587792,-67.039435,14.440595
52271,,9.110891,-2.933333,2.649490,-0.018911,0.015816,-0.002313,-47.580802,-67.034291,14.421265
52272,,9.097610,-2.970941,2.605387,-0.013417,0.011545,-0.001188,-47.585361,-67.019822,14.418863
52273,,9.119246,-2.944772,2.631052,-0.006359,0.008328,-0.004517,-47.576727,-67.018492,14.405584
52274,,9.148903,-2.913802,2.597587,-0.002134,0.007297,-0.005555,-47.577144,-67.006262,14.403820
52275,,9.190881,-2.893054,2.635686,-0.003810,0.009726,-0.006491,-47.563894,-67.005213,14.387121
52276,,9.129407,-2.922871,2.626008,-0.009539,0.011900,-0.001455,-47.566630,-66.993299,14.383306
52277,,9.131697,-2.906541,2.678656,-0.009256,0.008316,-0.001771,-47.562224,-66.990818,14.372831
52278,,9.087849,-2.959072,2.629174,-0.010291,0.012472,0.000545,-47.568775,-66.973445,14.374536
52279,,9.081145,-2.931828,2.701807,-0.001664,0.009125,0.003405,-47.564017,-66.968414,14.368430
52280,,9.100075,-2.922217,2.675979,-0.002060,0.016195,-0.001668,-47.558051,-66.952642,14.360354
52281,,9.102196,-2.905723,2.729296,-0.002122,0.013996,-0.001213,-47.544535,-66.947713,14.344454
52282,,9.109090,-2.948902,2.698133,-0.000669,0.017352,-0.000415,-47.535674,-66.930191,14.333004
52283,,9.100481,-2.889805,2.693035,0.000895,0.018409,-0.004868,-47.512762,-66.925075,14.308767
52284,,9.118754,-2.927208,2.694521,0.001361,0.021423,-0.006551,-47.489498,-66.909796,14.278847
52285,,9.107938,-2.947477,2.703574,-0.002117,0.021883,-0.007514,-47.462427,-66.904413,14.248172
52286,,9.116465,-2.957946,2.685717,-0.003450,0.022928,-0.009224,-47.439820,-66.888965,14.223815
52287,,9.096833,-2.966847,2.714571,-0.004437,0.022587,-0.011705,-47.409670,-66.885094,14.188370
52288,,9.145820,-2.988805,2.721619,0.002572,0.023870,-0.010230,-47.381773,-66.866762,14.158216
52289,,9.155172,-3.014606,2.743540,0.005759,0.026998,-0.008949,-47.343970,-66.859995,14.120790
52290,,9.122356,-2.997291,2.662495,0.011435,0.029327,-0.009182,-47.303629,-66.843792,14.081411
52291,,9.153222,-2.996954,2.710200,0.015137,0.029784,-0.003736,-47.262463,-66.833766,14.046153
52292,,9.182254,-2.965755,2.679460,0.013625,0.030929,0.000260,-47.233722,-66.807240,14.023996
52293,,9.130565,-2.974582,2.665086,0.011595,0.034746,0.000091,-47.193329,-66.793628,13.987374
52294,,9.120546,-2.963586,2.688392,0.006426,0.036450,0.008825,-47.172700,-66.762724,13.971312
52295,,9.106519,-3.001669,2.647037,0.010877,0.036337,0.012275,-47.142394,-66.743349,13.945238
52296,,9.085691,-2.949065,2.611773,0.004615,0.041187,0.013133,-47.121237,-66.710641,13.923531
52297,,9.105079,-2.971724,2.667457,0.009063,0.041075,0.016585,-47.091360,-66.687603,13.896783
52298,,9.061687,-2.993375,2.633710,0.010327,0.037834,0.018753,-47.074424,-66.655265,13.878581
52299,,9.061740,-2.962429,2.650137,0.016066,0.035661,0.013733,-47.043249,-66.635538,13.854749
52300,,9.079854,-2.953624,2.626877,0.015594,0.032649,0.015416,-47.031659,-66.604906,13.852319
52301,,9.089080,-2.933648,2.623138,0.018025,0.029647,0.014362,-47.005898,-66.587229,13.835620
52302,,9.086457,-2.966294,2.613672,0.018210,0.029546,0.008655,-46.995534,-66.558905,13.842205
52303,,9.074952,-2.987506,2.623877,0.019883,0.027118,0.009599,-46.967077,-66.544178,13.823784
52304,,9.105330,-2.988203,2.671540,0.026896,0.021694,0.006756,-46.957869,-66.522435,13.835529
52305,,9.084500,-2.982014,2.661780,0.028411,0.020548,0.002764,-46.924872,-66.513141,13.817531
52306,,9.085460,-2.949301,2.676992,0.031194,0.016157,0.000944,-46.913941,-66.488416,13.818987
52307,,9.083523,-2.980603,2.666691,0.033275,0.014542,0.000663,-46.882116,-66.482192,13.805281
52308,,9.124917,-2.959282,2.706617,0.034381,0.012581,-0.002101,-46.866044,-66.476561,13.816033
52309,,9.085907,-2.914389,2.696275,0.030499,0.012227,-0.001850,-46.835827,-66.472471,13.802402
52310,,9.102315,-2.967786,2.645882,0.025312,0.006200,-0.007643,-46.829140,-66.468386,13.816798
52311,,9.144653,-3.149281,2.588519,0.023986,-0.015104,-0.021879,-46.810984,-66.483409,13.812315
52312,,9.163750,-3.419087,2.479159,0.053822,-0.042578,-0.047697,-46.797777,-66.518067,13.833529
52313,,9.359074,-3.693415,2.512664,0.125395,-0.105679,-0.094540,-46.742965,-66.599047,13.852463
52314,,9.529417,-3.754646,2.686108,0.217124,-0.144045,-0.148517,-46.659436,-66.709606,13.898869
52315,,9.131695,-3.492768,2.782053,0.302558,-0.159681,-0.199712,-46.458498,-66.855659,13.869271
52316,,8.603529,-3.449644,2.704462,0.368611,-0.202983,-0.241580,-46.273516,-67.019080,13.901214
52317,,8.407230,-3.506462,2.715702,0.460627,-0.256308,-0.271100,-46.006692,-67.232817,13.898549
52318,,8.438307,-3.492209,2.821740,0.565416,-0.292641,-0.292930,-45.743870,-67.450559,13.959225
52319,,8.510292,-3.324569,3.071592,0.659917,-0.318582,-0.283716,-45.407281,-67.694364,14.004646
52320,,8.547054,-3.156735,3.185335,0.744151,-0.324333,-0.276938,-45.083528,-67.918144,14.117782
52321,,8.594576,-3.057686,3.348274,0.806887,-0.314630,-0.266345,-44.669903,-68.153614,14.170825
52322,,8.629300,-3.072785,3.487808,0.885179,-0.308045,-0.263853,-44.249972,-68.359541,14.267692
52323,,8.770999,-3.242934,3.780854,0.993905,-0.304900,-0.270257,-43.707097,-68.592908,14.296859
52324,,8.901479,-3.166750,4.141303,1.101425,-0.297791,-0.282456,-43.118627,-68.798664,14.353235
52325,,9.084851,-2.842638,4.499017,1.143085,-0.262336,-0.305344,-42.397011,-69.028023,14.282456
52326,,9.232052,-2.456088,4.929279,1.096485,-0.204317,-0.345767,-41.620090,-69.197117,14.124840
52327,,9.387316,-2.416782,5.225248,1.004577,-0.131728,-0.395982,-40.726187,-69.403405,13.785292
52328,,9.577065,-2.501266,5.473811,0.903132,-0.049024,-0.428664,-39.756679,-69.534582,13.327364
52329,,9.688358,-2.681918,5.636942,0.823611,0.047783,-0.446332,-38.707911,-69.675321,12.712772
52330,,9.678801,-2.712525,5.710712,0.741276,0.135907,-0.440796,-37.587017,-69.713963,12.000861
52331,,9.798261,-2.713261,5.864250,0.649102,0.223437,-0.420649,-36.487876,-69.757301,11.226631
52332,,9.896009,-2.735682,6.094725,0.566559,0.311479,-0.384676,-35.341915,-69.669325,10.359946
52333,,10.095556,-2.862614,6.463281,0.511906,0.405926,-0.353006,-34.246449,-69.594160,9.505288
52334,,10.199128,-2.961516,6.710020,0.473823,0.496737,-0.322076,-33.078188,-69.376668,8.568014
52335,,10.567833,-2.965883,7.104367,0.433419,0.582669,-0.289408,-31.988330,-69.184862,7.669375
52336,,10.979052,-2.976884,7.379076,0.385204,0.695268,-0.253898,-30.814693,-68.842469,6.679639
52337,,11.073431,-2.892260,7.662678,0.305154,0.846053,-0.207999,-29.753076,-68.484671,5.728776
52338,,10.967632,-2.882627,7.737921,0.193729,0.998658,-0.148241,-28.680429,-67.932906,4.762381
52339,,10.888945,-2.943914,7.754727,0.071635,1.141850,-0.079723,-27.790870,-67.379096,3.846353
52340,,10.861198,-3.112497,7.720110,-0.019441,1.276128,0.002511,-26.925909,-66.630112,2.962777
52341,,10.909680,-3.225304,7.798984,-0.075171,1.397074,0.081477,-26.251314,-65.894660,2.180321
52342,,11.056956,-3.358103,7.863281,-0.108386,1.503533,0.163500,-25.591954,-64.974654,1.465644
52343,,11.259558,-3.455206,7.985833,-0.129649,1.616625,0.234719,-25.090929,-64.081506,0.830113
52344,,11.421776,-3.591883,7.919562,-0.166625,1.737816,0.309754,-24.589661,-62.998378,0.241289
52345,,11.383555,-3.849556,7.938165,-0.173439,1.866204,0.388519,-24.231472,-61.934570,-0.272845
52346,,11.300981,-4.100780,7.898646,-0.142913,1.970751,0.459143,-23.849228,-60.696271,-0.664967
52347,,11.241154,-4.228056,7.859132,-0.067943,2.058443,0.531047,-23.549159,-59.496333,-1.053870
52348,,11.218569,-4.209572,7.813187,0.034984,2.134811,0.607108,-23.192229,-58.148896,-1.297932
52349,,11.185409,-4.037086,7.712327,0.122395,2.202473,0.674528,-22.905071,-56.839232,-1.552847
52350,,11.281223,-3.825487,7.612005,0.173402,2.264260,0.728908,-22.580759,-55.389205,-1.711533
52351,,11.323585,-3.606887,7.621998,0.178674,2.337757,0.776445,-22.336038,-53.984683,-1.883372
52352,,11.166532,-3.590091,7.528462,0.148782,2.417660,0.815942,-22.114276,-52.402621,-2.007247
52353,,11.075946,-3.824781,7.537700,0.161758,2.461746,0.842744,-21.918335,-50.917396,-2.136148
52354,,11.027289,-4.170736,7.499704,0.235702,2.500268,0.859038,-21.695595,-49.275609,-2.242680
52355,,10.816000,-4.227024,7.433211,0.346430,2.525788,0.874866,-21.422034,-47.748891,-2.340000
52356,,10.692813,-3.948096,7.308051,0.439198,2.532206,0.883599,-21.122971,-46.094063,-2.407549
52357,,10.587301,-3.610869,7.164539,0.485746,2.559146,0.891978,-20.795793,-44.545375,-2.473217
52358,,10.380622,-3.356536,7.173903,0.473695,2.586616,0.896283,-20.499378,-42.872989,-2.516802
52359,,10.175472,-3.158287,7.289038,0.443360,2.605792,0.900480,-20.211951,-41.297125,-2.563397
52360,,9.888809,-3.232860,7.343538,0.380494,2.634467,0.902608,-19.982037,-39.613366,-2.592532
52361,,9.701128,-3.599976,7.456070,0.365617,2.644729,0.906469,-19.749905,-38.015096,-2.625208
52362,,9.667137,-4.033820,7.448884,0.428895,2.629720,0.894039,-19.504056,-36.350830,-2.640752
52363,,9.630754,-4.127135,7.319053,0.542080,2.625928,0.889422,-19.179512,-34.765775,-2.661011
52364,,9.395117,-3.783014,7.361151,0.630729,2.626835,0.887828,-18.834317,-33.120115,-2.656658
52365,,9.132461,-3.336865,7.213173,0.644138,2.639116,0.894493,-18.464981,-31.526876,-2.653098
52366,,8.805312,-3.130662,7.153176,0.620224,2.641399,0.893584,-18.140571,-29.888920,-2.625444
52367,,8.494678,-3.056492,7.135702,0.545762,2.640777,0.892198,-17.836747,-28.295311,-2.602727
52368,,8.291659,-3.154939,7.307688,0.500923,2.637848,0.888428,-17.587827,-26.676623,-2.560763
52369,,7.969493,-3.434238,7.583147,0.515010,2.633857,0.877456,-17.304206,-25.089583,-2.529552
52370,,7.687945,-3.714714,7.633116,0.585455,2.609934,0.867055,-17.010104,-23.504947,-2.480232
52371,,7.530484,-3.557781,7.531844,0.681829,2.577197,0.858217,-16.635786,-21.952569,-2.432323
52372,,7.320811,-3.065194,7.457072,0.727467,2.564310,0.848795,-16.267117,-20.410171,-2.366691
52373,,6.978488,-2.662753,7.334563,0.696209,2.569911,0.850378,-15.887900,-18.863757,-2.301679
52374,,6.580191,-2.436385,7.233291,0.601015,2.566174,0.838166,-15.592959,-17.336184,-2.225190
52375,,6.291516,-2.285402,7.216805,0.483683,2.550569,0.836856,-15.335477,-15.803264,-2.148739
52376,,5.920285,-2.296606,7.078623,0.368554,2.540765,0.847698,-15.174941,-14.300982,-2.052431
52377,,5.629829,-2.358018,6.964156,0.283799,2.508652,0.861432,-15.034946,-12.788078,-1.946744
52378,,5.309591,-2.400832,6.644319,0.213907,2.486705,0.882125,-14.964914,-11.321698,-1.818749
52379,,5.006305,-2.339623,6.468549,0.165252,2.446927,0.905123,-14.894374,-9.836851,-1.675633
52380,,4.663718,-2.158040,6.167524,0.111008,2.415685,0.935244,-14.884054,-8.411724,-1.507117
52381,,4.301337,-1.814916,5.668020,0.013371,2.364295,0.960656,-14.899189,-6.964563,-1.320849
52382,,3.938627,-1.445221,5.249739,-0.131161,2.299648,0.981854,-15.023696,-5.604701,-1.113716
52383,,3.467796,-1.033863,4.904446,-0.331639,2.235209,0.978341,-15.229470,-4.225570,-0.905203
52384,,3.050585,-0.819490,4.695244,-0.545493,2.147802,0.965741,-15.580261,-2.956882,-0.697211
52385,,2.584985,-0.865500,4.382006,-0.766067,2.056783,0.951636,-16.025372,-1.677954,-0.492462
52386,,2.167966,-0.914671,4.325414,-0.914028,1.957253,0.931532,-16.575814,-0.520573,-0.295103
52387,,1.782413,-1.063896,4.091992,-1.023115,1.824625,0.899527,-17.159756,0.625954,-0.104294
52388,,1.543690,-1.053623,3.862500,-1.074568,1.682131,0.856074,-17.793212,1.621885,0.073071
52389,,1.122002,-1.080940,3.574935,-1.117528,1.551974,0.812926,-18.425246,2.608349,0.240513
52390,,0.728817,-1.291050,3.526051,-1.137228,1.396534,0.745796,-19.089128,3.432384,0.386317
52391,,0.482602,-1.634262,3.576729,-1.094811,1.236648,0.683092,-19.705293,4.227217,0.521575
52392,,0.164082,-2.164667,3.896096,-0.955921,1.093755,0.603606,-20.264012,4.864667,0.630536
52393,,-0.081432,-2.756082,4.187528,-0.724924,0.926231,0.521054,-20.668668,5.462764,0.726242
52394,,-0.059964,-2.881409,4.455752,-0.442544,0.754137,0.439739,-20.935456,5.888781,0.805895
52395,,-0.178373,-2.454774,4.557656,-0.214190,0.607542,0.366203,-21.048378,6.285443,0.878721
52396,,-0.235731,-1.902681,4.806422,-0.091032,0.467615,0.304629,-21.115775,6.533042,0.942307
52397,,-0.326048,-1.572651,5.262425,-0.068993,0.389521,0.265513,-21.145913,6.792538,1.005416
52398,,-0.580804,-1.802567,5.768325,-0.093420,0.324116,0.237215,-21.213351,6.951926,1.062233
52399,,-0.745533,-2.093336,6.081193,-0.082153,0.228576,0.209316,-21.250264,7.113892,1.128346
52400,,-0.748791,-2.258378,6.416140,-0.051680,0.155932,0.190640,-21.290427,7.176635,1.195221
52401,,-0.817158,-2.491091,6.795340,-0.012226,0.094690,0.167399,-21.286394,7.258445,1.266725
52402,,-0.936973,-2.696094,7.059037,0.063586,0.038679,0.148782,-21.258752,7.252445,1.335854
52403,,-0.917889,-2.842813,7.222679,0.154267,-0.018789,0.131691,-21.158698,7.266115,1.411971
52404,,-0.930778,-2.917100,7.520841,0.253004,-0.046512,0.118588,-21.021499,7.210643,1.482848
52405,,-1.061687,-3.052017,8.057469,0.346523,-0.066697,0.103673,-20.812022,7.192534,1.553794
52406,,-1.035606,-3.002413,8.418254,0.414028,-0.096134,0.089257,-20.582586,7.106358,1.619088
52407,,-0.859315,-2.831084,8.769250,0.430702,-0.109585,0.080031,-20.325560,7.059900,1.685737
52408,,-0.734360,-2.665373,8.892838,0.393068,-0.097076,0.080422,-20.107463,6.972812,1.746388
52409,,-0.727675,-2.429534,9.117853,0.319697,-0.094632,0.067396,-19.915428,6.931395,1.802855
52410,,-0.757785,-2.109532,9.368022,0.188200,-0.084324,0.062794,-19.814031,6.848655,1.851594
52411,,-0.759526,-1.650364,9.465907,-0.028174,-0.076343,0.060482,-19.822326,6.815542,1.900580
52412,,-0.577520,-1.251814,9.456677,-0.337783,-0.056102,0.059426,-20.019486,6.748694,1.942627
52413,,-0.568553,-1.238053,9.488898,-0.684487,0.012460,0.045429,-20.406906,6.760662,1.965984
52414,,-0.683990,-1.243265,9.637381,-1.054852,0.039175,0.030455,-21.014044,6.740525,1.974091
52415,,-0.658761,-0.981506,9.728590,-1.511800,0.049979,0.027241,-21.877593,6.769166,1.979503
52416,,-0.488953,-0.457477,9.623091,-2.106282,0.084148,0.023521,-23.083377,6.772660,1.974172
52417,,-0.420442,-0.214811,9.431036,-2.831470,0.159316,0.051084,-24.704726,6.864289,1.965373
52418,,-0.292266,-0.176676,9.028335,-3.641668,0.239222,0.078889,-26.784544,6.961949,1.948544
52419,,-0.235920,-0.078506,8.595400,-4.531087,0.325498,0.108936,-29.382494,7.152270,1.917321
52420,,-0.154561,-0.011996,8.063781,-5.479820,0.437137,0.151288,-32.512418,7.366838,1.866278
52421,,-0.197647,-0.375217,7.257025,-6.453590,0.573518,0.180383,-36.221010,7.692970,1.767379
52422,,-0.316140,-1.233456,6.678811,-7.387800,0.709289,0.204774,-40.451724,8.040503,1.611689
52423,,-0.260515,-2.342006,5.745234,-8.232674,0.847740,0.235087,-45.199926,8.485109,1.380554
52424,,-0.284097,-3.510151,4.498554,-8.934804,1.012608,0.264859,-50.340283,8.944673,1.056857
52425,,-0.290624,-4.165813,3.413718,-9.486051,1.171423,0.287877,-55.843863,9.476844,0.616820
52426,,-0.298732,-4.443100,1.955729,-9.896734,1.355230,0.310572,-61.582303,9.990914,0.046291
52427,,-0.467335,-4.155358,0.698364,-10.426352,1.499805,0.327276,-67.679531,10.526352,-0.657207
52428,,-0.406869,-4.431195,-1.213792,-10.804624,1.642009,0.346459,-73.998328,10.983586,-1.485858
52429,,-0.616423,-4.805906,-2.737757,-11.283082,1.769550,0.362263,-80.647084,11.407248,-2.443289
52430,,-0.699966,-5.630519,-4.182534,-11.536543,1.895448,0.381610,-87.450662,11.700865,-3.513679
52431,,-0.973021,-6.697682,-5.964484,-11.634271,1.981275,0.371603,-94.351593,11.895597,-4.671834
52432,,-1.322287,-7.826726,-7.736417,-11.340529,2.029254,0.345198,-101.084236,11.901237,-5.869595
52433,,-1.842198,-9.271700,-8.653612,-10.883568,1.995299,0.280900,-107.557791,11.775202,-7.037351
52434,,-2.145883,-11.051778,-9.605299,-10.062695,1.897756,0.237536,-113.540034,11.488276,-8.121861
52435,,-2.418787,-12.197122,-9.874009,-9.053353,1.778573,0.203016,-118.917706,11.143916,-9.102317
52436,,-2.388173,-12.443536,-9.324122,-7.857004,1.617968,0.176507,-123.586559,10.717422,-9.961234
52437,,-1.924279,-11.262092,-8.442739,-6.748960,1.489356,0.193810,-127.591588,10.313353,-10.729035
52438,,-1.403523,-9.519196,-8.331766,-5.764132,1.467708,0.179519,-131.025780,9.828719,-11.454814
52439,,-1.213088,-8.033706,-8.285607,-5.149609,1.486343,0.096456,-134.085731,9.296128,-12.125501
52440,,-1.297350,-7.976122,-8.644758,-4.706474,1.478734,-0.011806,-136.879850,8.655980,-12.720931
52441,,-1.396220,-8.678238,-8.764824,-4.204799,1.423263,-0.092548,-139.360582,8.016385,-13.228157
52442,,-1.564964,-9.059707,-9.086755,-3.510859,1.315135,-0.110749,-141.433885,7.364738,-13.662362
52443,,-1.471027,-8.580138,-9.374733,-2.804409,1.180554,-0.105085,-143.083866,6.796151,-14.028763
52444,,-1.531888,-7.822191,-9.434141,-2.216181,1.028112,-0.094855,-144.389533,6.259601,-14.333840
52445,,-1.374489,-7.070242,-9.406027,-1.806663,0.844050,-0.072963,-145.448236,5.843112,-14.576263
52446,,-1.169781,-6.597858,-9.454524,-1.508350,0.700083,-0.057463,-146.331814,5.464637,-14.773224
52447,,-1.291956,-6.651476,-9.752011,-1.218782,0.578095,-0.041444,-147.042989,5.178179,-14.933409
52448,,-1.392806,-6.751751,-9.927363,-0.951753,0.421556,-0.027350,-147.597978,4.939928,-15.049344
52449,,-1.203904,-6.759820,-10.014515,-0.634741,0.288698,-0.008166,-147.966634,4.800937,-15.131350
52450,,-1.052377,-6.434205,-9.897133,-0.372864,0.190513,0.000484,-148.183705,4.683493,-15.187646
52451,,-0.928294,-6.169061,-9.888652,-0.180148,0.126179,0.019746,-148.288622,4.631462,-15.232967
52452,,-0.845353,-6.162512,-9.891161,-0.030459,0.089652,0.002977,-148.306728,4.564807,-15.259567
52453,,-0.890894,-6.233317,-9.782056,0.166830,0.034382,-0.000343,-148.209781,4.551446,-15.267270
52454,,-0.732852,-5.763716,-9.404121,0.307502,-0.001976,0.013236,-148.032255,4.533455,-15.271111
52455,,-0.656855,-5.275916,-9.273020,0.345810,-0.009287,0.022064,-147.832578,4.548172,-15.276465
52456,,-0.523230,-5.051951,-9.022661,0.277213,-0.019810,0.032008,-147.673094,4.545284,-15.283916
52457,,-0.550294,-5.210212,-9.120868,0.189304,-0.002543,0.034749,-147.563742,4.560673,-15.297409
52458,,-0.765113,-5.829264,-9.226785,0.193910,-0.008861,0.024502,-147.452726,4.550699,-15.304571
52459,,-0.984916,-6.334828,-9.422902,0.356187,-0.047617,0.022901,-147.246191,4.584246,-15.298268
52460,,-1.053262,-6.324759,-9.310925,0.596499,-0.106299,0.019355,-146.901675,4.620449,-15.272317
52461,,-0.905845,-5.893579,-9.079010,0.779214,-0.163284,0.022409,-146.449736,4.709153,-15.228839
52462,,-0.719248,-5.453114,-8.745201,0.834857,-0.199807,0.041310,-145.966760,4.797443,-15.182493
52463,,-0.610927,-5.244325,-8.555747,0.823417,-0.207956,0.043580,-145.488857,4.913412,-15.133118
52464,,-0.706352,-5.478185,-8.366462,0.811383,-0.212623,0.044399,-145.019383,5.008493,-15.082210
52465,,-0.774815,-5.640351,-8.421743,0.865136,-0.230614,0.040107,-144.516416,5.133089,-15.021713
52466,,-0.796051,-5.920060,-8.427628,0.974677,-0.252608,0.024284,-143.951310,5.239676,-14.945874
52467,,-0.816224,-6.384428,-8.614678,1.197676,-0.281107,-0.000933,-143.253982,5.372366,-14.846561
52468,,-0.914396,-6.992621,-8.985964,1.592326,-0.329118,-0.040894,-142.329101,5.489863,-14.710936
52469,,-1.144242,-8.024711,-9.679385,2.261287,-0.383529,-0.112934,-141.013066,5.625390,-14.519991
52470,,-1.534006,-9.359329,-10.091971,3.236770,-0.485554,-0.211206,-139.131349,5.742960,-14.244745
52471,,-1.817005,-10.370326,-10.204325,4.505089,-0.672194,-0.281433,-136.509245,5.923154,-13.861458
52472,,-1.790419,-10.502636,-10.056434,5.868260,-0.880942,-0.318626,-133.094465,6.131899,-13.369004
52473,,-1.734875,-10.007801,-9.933656,7.159181,-1.043294,-0.356311,-128.926132,6.372726,-12.776985
52474,,-1.959046,-9.577155,-9.493540,8.166003,-1.195805,-0.394724,-124.169206,6.582074,-12.084344
52475,,-2.089849,-9.511336,-9.329786,9.068745,-1.393165,-0.441296,-118.875534,6.785865,-11.262409
52476,,-2.071283,-9.961392,-9.707029,10.011468,-1.578133,-0.516782,-113.029714,6.899085,-10.310376
52477,,-2.261579,-10.638250,-8.921113,10.901210,-1.795535,-0.559969,-106.650508,6.947631,-9.222036
52478,,-1.677377,-11.034877,-8.971127,12.115782,-2.069053,-0.568833,-99.569831,6.883769,-7.983122
52479,,-1.370601,-11.042678,-8.812328,13.417335,-2.163702,-0.584536,-91.729077,6.672775,-6.703955
52480,,-0.956941,-10.155144,-8.005005,14.563071,-2.390085,-0.567368,-83.251473,6.273371,-5.341977
52481,,-0.028800,-9.008125,-7.024099,15.649861,-2.368228,-0.531066,-74.148750,5.708454,-4.060945
52482,,0.154224,-7.635250,-6.059727,16.552321,-2.192645,-0.471193,-64.595513,4.999042,-2.977839
52483,,-0.029134,-6.301253,-4.690423,17.260907,-2.049690,-0.419847,-54.631651,4.195898,-2.080930
52484,,0.072092,-5.089403,-3.868860,17.822868,-1.920621,-0.349175,-44.415479,3.315673,-1.375270
52485,,0.351273,-3.907774,-2.866512,18.128261,-1.823751,-0.258464,-33.999272,2.409887,-0.826911
52486,,1.083949,-1.551811,-2.106762,18.102674,-1.776386,-0.162520,-23.662029,1.459917,-0.420572
52487,,1.598511,1.970697,-1.181118,17.472217,-1.646123,-0.050811,-13.644374,0.553704,-0.145611
52488,,1.401429,5.536998,1.769560,16.294921,-1.493234,0.016247,-4.356012,-0.304977,-0.005103
52489,,1.388879,9.501432,2.986427,14.185406,-1.397078,0.002441,3.773405,-1.109362,0.000117
52490,,1.353189,12.205758,7.494129,11.632555,-1.006147,0.060786,10.402179,-1.703111,-0.038371
52491,,1.114515,12.850948,9.450322,8.730139,-0.743035,0.049171,15.408184,-2.128698,-0.107291
52492,,1.929228,11.721406,10.011262,5.907979,-0.490227,0.044936,18.773588,-2.423482,-0.167161
52493,,2.105833,10.215337,9.591791,3.601449,-0.178352,0.102456,20.837906,-2.543797,-0.148349
52494,,1.044102,8.338987,8.510801,1.910360,0.000323,0.141004,21.917337,-2.593478,-0.075006
52495,,0.032751,6.345712,7.972115,0.958495,0.002561,0.090558,22.466037,-2.615938,-0.028355
52496,,-0.126485,4.023014,7.981319,0.634189,-0.091123,0.004958,22.823685,-2.685400,-0.047960
52497,,0.379013,2.177227,8.347174,0.800281,-0.212901,-0.036334,23.287148,-2.793688,-0.117030
52498,,0.738116,1.675129,8.513150,1.178298,-0.292036,-0.031216,23.959746,-2.959265,-0.202758
52499,,0.669175,2.779998,8.867358,1.438671,-0.367161,-0.004633,24.790552,-3.153946,-0.294295
52500,,0.715904,4.701663,9.161290,1.325855,-0.389719,0.028548,25.546376,-3.382316,-0.376856
52501,,0.902659,6.272531,9.230774,0.783983,-0.337042,0.074704,26.000083,-3.578945,-0.424643
52502,,0.947741,6.198794,9.194338,0.094767,-0.192606,0.109608,26.047010,-3.724866,-0.418934
52503,,0.654073,4.927656,8.957978,-0.378121,-0.097675,0.108105,25.830067,-3.806406,-0.389947
52504,,0.616472,3.480206,9.039648,-0.461522,-0.092920,0.106370,25.558135,-3.899833,-0.360369
52505,,0.799547,2.831819,9.217711,-0.260122,-0.132794,0.114675,25.409019,-4.000933,-0.336007
52506,,0.905351,3.109491,9.452882,0.015831,-0.185994,0.132400,25.409846,-4.148474,-0.315443
52507,,1.017342,4.112658,9.661889,0.169384,-0.224079,0.142662,25.507282,-4.303690,-0.299063
52508,,1.071213,5.151158,9.924266,0.115239,-0.209076,0.152470,25.563704,-4.468075,-0.274059
52509,,1.078224,5.532090,10.100419,-0.067199,-0.145801,0.148015,25.523761,-4.584180,-0.235735
52510,,0.944069,5.296454,10.117168,-0.238363,-0.093245,0.116950,25.377458,-4.679757,-0.200341
52511,,0.995892,4.941874,10.035924,-0.323860,-0.071041,0.093142,25.191119,-4.743539,-0.171654
52512,,1.039991,4.904834,10.058921,-0.362329,-0.051928,0.073416,24.975261,-4.806605,-0.148355
52513,,0.992848,4.970143,9.935319,-0.401286,-0.035195,0.048513,24.745686,-4.840798,-0.133817
52514,,0.959442,4.904852,9.785869,-0.459422,-0.021614,0.024159,24.476179,-4.875906,-0.128636
52515,,0.956460,4.525254,9.648569,-0.470648,0.002379,0.001769,24.208141,-4.879320,-0.129379
52516,,0.904593,4.049363,9.627261,-0.402299,-0.002365,-0.018593,23.973361,-4.894055,-0.141970
52517,,0.950876,3.898345,9.728190,-0.276576,-0.009461,-0.026828,23.818028,-4.897048,-0.160486
52518,,0.951498,4.127279,9.805859,-0.191113,-0.006582,-0.021232,23.704222,-4.913190,-0.175450
52519,,0.943479,4.408789,9.760254,-0.172626,-0.003760,-0.013270,23.607722,-4.916395,-0.185504
52520,,1.087590,4.502880,9.598429,-0.223375,0.025685,-0.009277,23.474378,-4.918121,-0.186767
52521,,1.022545,4.459879,9.465391,-0.285576,0.057134,-0.006797,23.311672,-4.890830,-0.179494
52522,,1.064836,4.260161,9.452150,-0.332222,0.064328,-0.008987,23.115746,-4.872166,-0.171960
52523,,1.059586,4.019844,9.397575,-0.344960,0.070524,-0.009595,22.918901,-4.837148,-0.163344
52524,,1.043965,3.727988,9.285848,-0.311801,0.074322,-0.020376,22.735288,-4.810546,-0.159872
52525,,1.020442,3.524374,9.233576,-0.217239,0.069140,-0.035968,22.612837,-4.770392,-0.165773
52526,,0.939747,3.544972,9.176173,-0.117569,0.055537,-0.056045,22.542283,-4.745800,-0.185582
52527,,0.932301,3.750397,9.160116,-0.066157,0.037912,-0.059084,22.507972,-4.717123,-0.210748
52528,,0.918610,3.983109,9.184620,-0.092942,0.034988,-0.072947,22.452584,-4.699594,-0.244140
52529,,0.911008,4.026784,9.213273,-0.171798,0.035229,-0.075693,22.358492,-4.668770,-0.278786
52530,,0.912742,3.768606,9.200141,-0.252476,0.041258,-0.073155,22.211954,-4.647818,-0.311061
52531,,0.873532,3.436828,9.195550,-0.263617,0.046072,-0.074509,22.064986,-4.611665,-0.342875
52532,,0.907154,3.096817,9.090513,-0.207381,0.031746,-0.079890,21.944682,-4.594308,-0.380973
52533,,0.938024,3.026393,9.078830,-0.106219,0.015640,-0.075010,21.888419,-4.574354,-0.419728
52534,,0.924067,3.217537,9.101755,-0.037867,0.004108,-0.077849,21.865071,-4.572117,-0.462724
52535,,0.942771,3.465613,9.153795,-0.019285,-0.000553,-0.067315,21.858551,-4.562461,-0.500865
52536,,0.874199,3.605074,9.171575,-0.068966,0.009005,-0.060781,21.816356,-4.561198,-0.533730
52537,,0.903391,3.648889,9.205946,-0.143317,0.007330,-0.054971,21.738099,-4.550035,-0.563621
52538,,0.925764,3.517494,9.230231,-0.212014,0.016567,-0.052741,21.613564,-4.546394,-0.590644
52539,,0.838726,3.308025,9.340493,-0.246737,0.017535,-0.048782,21.475608,-4.531224,-0.615122
52540,,0.871756,3.132428,9.303907,-0.236921,0.010194,-0.049228,21.336605,-4.531692,-0.641686
52541,,0.884385,3.166445,9.164884,-0.202869,0.001896,-0.045118,21.223880,-4.525754,-0.667540
52542,,0.823605,3.266240,9.147605,-0.191117,-0.004296,-0.045926,21.110856,-4.534621,-0.695389
52543,,0.850334,3.375778,9.139369,-0.214541,-0.012071,-0.047917,20.991788,-4.535687,-0.725657
52544,,0.884427,3.360721,9.063104,-0.261041,-0.004568,-0.043411,20.838525,-4.545162,-0.752230
52545,,0.778158,3.152509,9.106625,-0.290617,0.002274,-0.039085,20.675257,-4.540499,-0.774830
52546,,0.740570,2.843655,9.133838,-0.265409,-0.011532,-0.039126,20.519355,-4.554548,-0.800522
52547,,0.812612,2.677680,9.008755,-0.187618,-0.029389,-0.035328,20.415446,-4.567755,-0.827492
52548,,0.867912,2.844771,8.886715,-0.120753,-0.049940,-0.028103,20.342031,-4.604520,-0.854903
52549,,0.864870,3.133111,8.742243,-0.112851,-0.061661,-0.018853,20.280781,-4.638426,-0.879402
52550,,0.897248,3.353867,8.671862,-0.181161,-0.063204,-0.017188,20.172376,-4.684450,-0.903491
52551,,0.856081,3.297567,8.635440,-0.278982,-0.060922,0.000460,20.015089,-4.721861,-0.917295
52552,,0.782634,3.066972,8.720959,-0.336470,-0.069113,0.002545,19.817259,-4.774942,-0.931699
52553,,0.815582,2.793577,8.618582,-0.337993,-0.090863,0.008705,19.626269,-4.830192,-0.946613
52554,,0.869500,2.738184,8.479441,-0.309556,-0.116911,0.013169,19.444098,-4.911023,-0.964156
52555,,0.889079,2.837013,8.389475,-0.295743,-0.138427,0.020110,19.277564,-4.994251,-0.981608
52556,,0.915538,2.976222,8.193593,-0.337323,-0.157434,0.027262,19.079447,-5.099670,-0.998700
52557,,0.997976,2.963331,8.034773,-0.417875,-0.166100,0.041549,18.842353,-5.202012,-1.009087
52558,,1.066829,2.853655,7.925723,-0.514705,-0.185829,0.043693,18.542586,-5.325968,-1.021655
52559,,1.086997,2.525366,7.729485,-0.557642,-0.202792,0.060454,18.225005,-5.451783,-1.027350
52560,,0.947146,2.203035,7.643070,-0.534809,-0.232035,0.072177,17.913167,-5.606185,-1.031341
52561,,1.029147,1.910635,7.515557,-0.460138,-0.287813,0.085345,17.651472,-5.782802,-1.037019
52562,,1.101042,2.020478,7.508121,-0.381214,-0.328469,0.110739,17.426775,-5.996574,-1.035185
52563,,1.138487,2.510922,7.465799,-0.377917,-0.364959,0.144643,17.210005,-6.225551,-1.020046
52564,,1.284396,2.792672,7.242921,-0.498795,-0.386145,0.182876,16.914457,-6.483088,-0.986466
52565,,1.557796,2.646562,6.922448,-0.683126,-0.389329,0.228236,16.517543,-6.739051,-0.926759
52566,,1.689385,2.138963,6.869580,-0.809363,-0.391671,0.282280,16.037587,-7.015421,-0.835591
52567,,1.924557,1.507382,6.633415,-0.846657,-0.405237,0.338986,15.538522,-7.296433,-0.712608
52568,,2.051939,1.046658,6.592599,-0.777184,-0.423543,0.420856,15.066048,-7.610456,-0.544386
52569,,2.098144,0.975666,6.734116,-0.653922,-0.438028,0.510675,14.663135,-7.932869,-0.325585
52570,,2.156315,1.428276,6.931841,-0.575066,-0.466780,0.597771,14.289956,-8.294630,-0.059732
52571,,2.467003,1.827351,6.854822,-0.661620,-0.470646,0.698778,13.864343,-8.658385,0.265004
52572,,2.546119,1.561771,6.679047,-0.803555,-0.417926,0.806947,13.336738,-9.017939,0.661325
52573,,2.292361,1.017116,6.889965,-0.865039,-0.418421,0.889047,12.771114,-9.371386,1.107645
52574,,2.487381,0.468849,6.964005,-0.770344,-0.476475,0.944027,12.244161,-9.774036,1.581892
52575,,2.948317,0.123397,7.222507,-0.582570,-0.540635,0.973146,11.827290,-10.198142,2.068580
52576,,3.455945,0.115736,7.202043,-0.389744,-0.585110,1.013521,11.503810,-10.663855,2.576925
52577,,3.748535,0.965139,7.451238,-0.290655,-0.618943,1.026293,11.241314,-11.132390,3.091396
52578,,3.803025,1.651329,7.180036,-0.449496,-0.613843,1.047646,10.869664,-11.614071,3.622796
52579,,3.358675,1.610493,6.986442,-0.721651,-0.615982,1.087803,10.342865,-12.080639,4.181046
52580,,2.944385,0.956654,7.351297,-0.930022,-0.693361,1.111436,9.678965,-12.605442,4.751602
52581,,3.168111,0.107743,7.616159,-0.969082,-0.827116,1.141079,8.995178,-13.184130,5.333315
52582,,3.651100,-0.548981,7.753833,-0.812490,-0.943031,1.177558,8.379089,-13.843552,5.934741
52583,,4.168383,-0.535013,7.811772,-0.546163,-1.023909,1.210984,7.915102,-14.527648,6.556293
52584,,4.596041,-0.224517,7.657541,-0.356129,-1.064584,1.249343,7.532159,-15.252837,7.205924
52585,,4.933362,0.160761,7.268980,-0.319819,-1.107098,1.291509,7.167991,-15.981678,7.882617
52586,,5.164985,0.398883,6.932266,-0.424530,-1.126782,1.316123,6.714461,-16.740235,8.582645
52587,,5.286319,0.545765,6.656327,-0.638890,-1.161037,1.320122,6.141409,-17.491058,9.290156
52588,,5.547943,0.642535,6.607636,-0.908153,-1.230839,1.312600,5.388224,-18.296916,10.003776
52589,,6.057719,0.592529,6.793077,-1.197151,-1.297323,1.303635,4.473509,-19.106822,10.721077
52590,,6.664409,0.064877,6.928582,-1.479313,-1.359833,1.310566,3.364447,-19.966428,11.461811
52591,,7.217532,-0.638627,6.745032,-1.706432,-1.408381,1.352375,2.114799,-20.814679,12.245663
52592,,7.072883,-0.885706,6.652930,-1.819990,-1.445115,1.406451,0.750822,-21.696449,13.091087
52593,,6.221243,-1.026662,6.854258,-1.854301,-1.521698,1.429919,-0.643223,-22.574336,13.974209
52594,,5.052629,-1.455384,7.445832,-1.761198,-1.659424,1.405863,-2.022391,-23.542275,14.878013
52595,,4.257738,-2.249916,7.925216,-1.511853,-1.900023,1.320844,-3.247476,-24.600265,15.760606
52596,,4.868275,-2.955691,8.445571,-1.078394,-2.189595,1.167244,-4.238973,-25.844476,16.595344
52597,,6.173970,-2.849093,8.962639,-0.606849,-2.372991,0.980816,-4.918978,-27.160237,17.342563
52598,,7.225454,-1.877096,9.331714,-0.299639,-2.444384,0.797305,-5.422057,-28.549655,18.008978
52599,,7.871030,-0.452821,9.564991,-0.359623,-2.400451,0.638550,-5.906581,-29.887551,18.581762
52600,,7.418932,0.889681,9.248606,-0.716395,-2.244248,0.552744,-6.610728,-31.167779,19.120676
52601,,5.493041,1.712069,9.917618,-1.186266,-2.082677,0.507746,-7.559111,-32.321458,19.633476
52602,,3.984745,0.796836,10.278555,-1.635463,-2.149212,0.420144,-8.787224,-33.542382,20.136803
52603,,4.698781,-1.479200,10.453829,-1.780128,-2.334595,0.306595,-10.073004,-34.838544,20.611766
52604,,6.279962,-3.124741,10.648931,-1.572702,-2.446402,0.201376,-11.263346,-36.228138,21.081885
52605,,7.397817,-3.245106,10.689206,-1.241662,-2.487577,0.102980,-12.235690,-37.616948,21.517987
52606,,8.015765,-2.431802,10.568544,-1.038673,-2.449148,-0.021047,-13.090066,-39.020402,21.909630
52607,,8.254150,-1.747709,10.167412,-1.061960,-2.372429,-0.167949,-13.883612,-40.370079,22.201074
52608,,8.322880,-1.478140,9.322577,-1.224270,-2.257544,-0.295244,-14.746858,-41.695886,22.423892
52609,,7.370211,-1.345515,9.265641,-1.371266,-2.097482,-0.348604,-15.643619,-42.913407,22.590493
52610,,6.091152,-1.560598,9.484786,-1.500723,-2.075221,-0.391659,-16.638422,-44.147696,22.766061
52611,,5.973669,-2.504549,9.804847,-1.498539,-2.153656,-0.417947,-17.630789,-45.402838,22.957450
52612,,6.595413,-3.445374,10.075267,-1.341444,-2.222242,-0.452477,-18.580205,-46.720584,23.190779
52613,,7.391333,-3.694309,10.042153,-1.082095,-2.242074,-0.501835,-19.358909,-48.034297,23.407860
52614,,7.821658,-3.271521,9.754814,-0.859006,-2.210388,-0.580455,-20.007971,-49.362587,23.600330
52615,,7.988624,-2.684961,9.361960,-0.739665,-2.142329,-0.689425,-20.497222,-50.656293,23.687103
52616,,8.164771,-2.220074,8.952766,-0.743381,-2.069580,-0.809645,-20.933720,-51.950810,23.686235
52617,,8.447923,-1.918323,8.563421,-0.858310,-1.974301,-0.928638,-21.310589,-53.203127,23.542835
52618,,8.845197,-1.631423,8.148175,-1.080103,-1.865438,-1.021861,-21.749197,-54.431707,23.307488
52619,,9.201160,-1.400014,7.713882,-1.389149,-1.744200,-1.089399,-22.254480,-55.597503,22.953977
52620,,9.440623,-1.415249,7.231218,-1.755339,-1.602549,-1.135386,-22.917100,-56.713509,22.531175
52621,,9.546627,-1.709822,6.682781,-2.105612,-1.472459,-1.163459,-23.692612,-57.757418,22.019911
52622,,9.580672,-2.137230,6.111723,-2.386449,-1.368183,-1.175879,-24.610051,-58.766169,21.483088
52623,,9.557730,-2.678881,5.609621,-2.548277,-1.253397,-1.198250,-25.538935,-59.712902,20.866096
52624,,9.460872,-3.149207,5.246939,-2.617128,-1.186467,-1.199273,-26.507484,-60.642633,20.247267
52625,,9.590924,-3.501596,5.065819,-2.567873,-1.143673,-1.220453,-27.390518,-61.548923,19.576425
52626,,9.792275,-3.511353,5.089415,-2.466352,-1.104970,-1.236667,-28.208387,-62.456237,18.895800
52627,,9.856798,-3.297934,5.075886,-2.381159,-1.053492,-1.229623,-28.931346,-63.328492,18.176399
52628,,9.556769,-3.126903,4.974105,-2.349706,-1.004820,-1.192456,-29.671394,-64.181064,17.494374
52629,,9.141477,-2.998768,5.026275,-2.332657,-0.990065,-1.138745,-30.420961,-65.003958,16.845637
52630,,9.012237,-3.051479,5.179659,-2.303685,-1.017145,-1.085974,-31.258636,-65.838454,16.309772
52631,,9.282102,-3.020715,5.351023,-2.265822,-1.025724,-1.032630,-32.119260,-66.654445,15.832702
52632,,9.565025,-2.981313,5.509337,-2.229921,-0.997471,-0.982457,-33.037618,-67.452742,15.437581
52633,,9.820470,-2.863405,5.381980,-2.221612,-0.949339,-0.922895,-33.971083,-68.203219,15.072055
52634,,10.065773,-2.806522,5.211177,-2.224093,-0.867736,-0.881675,-34.936087,-68.910899,14.735499
52635,,10.311906,-2.759800,5.032541,-2.220035,-0.761826,-0.860376,-35.821285,-69.557161,14.322821
52636,,10.482420,-2.726846,4.604480,-2.244229,-0.638541,-0.850414,-36.660932,-70.150766,13.843960
52637,,10.554594,-2.679472,4.278284,-2.271119,-0.513656,-0.833230,-37.396773,-70.678103,13.244789
52638,,10.600598,-2.639911,4.034194,-2.311844,-0.417389,-0.805413,-38.125815,-71.159209,12.611541
52639,,10.594913,-2.609319,3.915829,-2.363302,-0.330880,-0.777768,-38.803002,-71.589657,11.898196
52640,,10.533548,-2.751258,3.891984,-2.405635,-0.264629,-0.735467,-39.515265,-71.981982,11.194321
52641,,10.457354,-2.883065,4.036873,-2.418186,-0.210769,-0.680383,-40.221153,-72.329299,10.481279
52642,,10.377952,-2.966256,4.203324,-2.409675,-0.169577,-0.617609,-40.986900,-72.641001,9.834151
52643,,10.341233,-2.974146,4.372616,-2.395769,-0.125315,-0.542458,-41.770659,-72.904983,9.218495
52644,,10.232427,-2.644212,4.633208,-2.357369,-0.046354,-0.486448,-42.538677,-73.117923,8.607288
52645,,9.964387,-2.071155,5.071489,-2.444650,0.031999,-0.438252,-43.299879,-73.280051,7.940204
52646,,9.938238,-2.053508,5.166713,-2.578858,0.084729,-0.366155,-44.190095,-73.394676,7.325801
52647,,10.000865,-3.195357,4.663636,-2.654152,0.171853,-0.314794,-45.058647,-73.455750,6.646261
52648,,9.859078,-3.612355,4.312583,-2.448262,0.169007,-0.273524,-45.884927,-73.502416,6.044295
52649,,9.588162,-4.555289,3.743558,-2.228375,0.170585,-0.234946,-46.620427,-73.536425,5.480732
52650,,9.405803,-4.467980,3.499508,-1.864777,0.138039,-0.207686,-47.245035,-73.570104,5.017388
52651,,9.492404,-4.845484,3.129732,-1.507802,0.079449,-0.150013,-47.810303,-73.607023,4.706951
52652,,9.610372,-4.780001,2.707973,-1.042429,0.057045,-0.117911,-48.200969,-73.634064,4.490862
52653,,9.402720,-4.720741,2.468491,-0.678908,0.086885,-0.105702,-48.338683,-73.650328,4.229868
52654,,9.278541,-4.466010,2.290913,-0.328829,0.091488,-0.110244,-48.284140,-73.659682,3.975587
52655,,9.095531,-4.092089,2.237794,-0.038066,0.097808,-0.105730,-48.038249,-73.671637,3.697495
52656,,9.046383,-3.656453,2.186215,0.149726,0.077093,-0.098630,-47.748365,-73.679777,3.483388
52657,,9.091676,-3.289077,2.035954,0.263079,0.073041,-0.094263,-47.380079,-73.695634,3.257569
52658,,9.183866,-3.067276,2.091365,0.329101,0.062814,-0.077044,-47.037830,-73.698712,3.095793
52659,,9.241830,-2.804610,2.173919,0.353144,0.054033,-0.063404,-46.685609,-73.708325,2.940482
52660,,9.348031,-2.648466,2.169288,0.328530,0.058250,-0.048360,-46.389228,-73.700216,2.826055
52661,,9.389066,-2.545476,2.203294,0.260766,0.066544,-0.033116,-46.112995,-73.691862,2.694751
52662,,9.390534,-2.582444,2.089392,0.202096,0.069474,-0.012870,-45.921766,-73.664039,2.614360
52663,,9.288052,-2.469530,2.074876,0.155603,0.077184,-0.004845,-45.729939,-73.639536,2.508185
52664,,9.242730,-2.537485,2.028857,0.097371,0.073134,-0.006392,-45.603352,-73.607240,2.432551
52665,,9.239079,-2.632294,1.896742,0.065502,0.066469,-0.006790,-45.476161,-73.587672,2.339898
52666,,9.297964,-2.743176,1.799123,0.076018,0.056583,-0.010994,-45.379669,-73.563641,2.282765
52667,,9.279426,-2.764562,1.776313,0.097344,0.039487,-0.015099,-45.260612,-73.558217,2.217585
52668,,9.289431,-2.664239,1.757258,0.123104,0.023363,-0.014802,-45.179346,-73.548926,2.204269
52669,,9.309844,-2.466745,1.711750,0.115075,0.010682,-0.017650,-45.086359,-73.556111,2.176848
52670,,9.366662,-2.324691,1.727621,0.087951,0.000457,-0.013111,-45.060081,-73.555359,2.199718
52671,,9.343710,-2.295607,1.680741,0.045406,-0.006753,-0.011629,-45.039189,-73.567137,2.205835
52672,,9.416625,-2.316673,1.694517,0.017165,-0.023061,-0.002173,-45.101375,-73.571587,2.278555
52673,,9.396373,-2.311361,1.680296,-0.004063,-0.030764,0.002428,-45.161261,-73.587349,2.339321
52674,,9.404719,-2.384711,1.731799,-0.006631,-0.038391,0.011676,-45.277943,-73.592442,2.454539
52675,,9.389816,-2.431643,1.734321,0.014627,-0.053739,0.013045,-45.373743,-73.613063,2.563884
52676,,9.398199,-2.409577,1.726055,0.054851,-0.068054,0.017888,-45.505798,-73.627482,2.731735
52677,,9.321342,-2.320606,1.795593,0.099062,-0.089021,0.018820,-45.610860,-73.659759,2.901114
52678,,9.317396,-2.261174,1.824609,0.136606,-0.104488,0.019738,-45.750723,-73.687843,3.125808
52679,,9.303438,-2.194606,1.874032,0.168397,-0.117523,0.024605,-45.865201,-73.728907,3.346313
52680,,9.313342,-2.154087,1.970963,0.193256,-0.127765,0.025185,-46.014182,-73.763766,3.614240
52681,,9.383160,-2.107071,2.066205,0.211155,-0.133463,0.026916,-46.131683,-73.809916,3.863304
52682,,9.445164,-2.091173,2.110779,0.215031,-0.133300,0.032414,-46.287066,-73.843611,4.150855
52683,,9.527931,-2.080678,2.167185,0.216407,-0.127147,0.037717,-46.409234,-73.882439,4.407802
52684,,9.570856,-2.098966,2.129362,0.210715,-0.119661,0.045635,-46.566111,-73.904839,4.694356
52685,,9.614485,-2.100791,2.199829,0.207724,-0.113186,0.057714,-46.701925,-73.929477,4.960243
52686,,9.626387,-2.099950,2.226456,0.206050,-0.104728,0.059705,-46.858899,-73.939704,5.244179
52687,,9.636391,-2.060652,2.324936,0.211087,-0.094952,0.071065,-46.985332,-73.951237,5.502257
52688,,9.645479,-2.030623,2.370651,0.198304,-0.077608,0.068097,-47.117503,-73.946919,5.755899
52689,,9.617880,-2.041231,2.414060,0.181932,-0.060293,0.069884,-47.208620,-73.945135,5.959832
52690,,9.575209,-2.042779,2.335557,0.179364,-0.046615,0.067561,-47.303540,-73.928649,6.163615
52691,,9.530883,-2.004789,2.329020,0.177546,-0.033309,0.063193,-47.348409,-73.919032,6.316814
52692,,9.578982,-2.003443,2.295112,0.171891,-0.024999,0.059649,-47.403186,-73.897313,6.474555
52693,,9.616999,-1.994730,2.282752,0.158926,-0.018109,0.054503,-47.424488,-73.885393,6.592134
52694,,9.607985,-1.925221,2.227765,0.135165,0.000787,0.042899,-47.438190,-73.860691,6.685394
52695,,9.550273,-1.858291,2.208123,0.109626,0.010009,0.033239,-47.418003,-73.846825,6.730384
52696,,9.532841,-1.913972,2.166253,0.081471,0.020180,0.019413,-47.401055,-73.824600,6.759870
52697,,9.516354,-1.959322,2.178356,0.058023,0.024704,0.010856,-47.359096,-73.814469,6.751401
52698,,9.503882,-1.971322,2.095498,0.040144,0.028609,0.003729,-47.331339,-73.795667,6.745099
52699,,9.422778,-1.970965,2.089616,0.017901,0.040915,-0.004449,-47.268493,-73.785667,6.690928
52700,,9.417585,-2.063109,2.011202,0.004853,0.044577,-0.008115,-47.221145,-73.765724,6.643251
52701,,9.375824,-1.948787,1.984082,-0.018247,0.050016,-0.017864,-47.148105,-73.757777,6.556874
52702,,9.422601,-2.058060,1.907676,-0.053090,0.046815,-0.020298,-47.113961,-73.742162,6.488416
52703,,9.407796,-2.142870,1.849130,-0.075670,0.050192,-0.019478,-47.071578,-73.734774,6.399682
52704,,9.440414,-2.185028,1.825845,-0.077196,0.041480,-0.018699,-47.060997,-73.720676,6.341374
52705,,9.422225,-2.199826,1.853185,-0.085345,0.040842,-0.023996,-47.031663,-73.718803,6.260443
52706,,9.454451,-2.251491,1.775084,-0.095108,0.035555,-0.023430,-47.033659,-73.709100,6.204514
52707,,9.443875,-2.346835,1.804517,-0.086312,0.026378,-0.023463,-47.026386,-73.712634,6.145977
52708,,9.516502,-2.368588,1.818932,-0.072676,0.016950,-0.020022,-47.047136,-73.708850,6.122918
52709,,9.444738,-2.335932,1.858752,-0.053693,0.021235,-0.018176,-47.035620,-73.712168,6.079422
