// Start Time: Unknown
// Update Rate: 100.0Hz
// Filter Profile: human (46.1)
// Firmware Version: 4.3.5
PacketCounter,Acc_X,Acc_Y,Acc_Z,Gyr_X,Gyr_Y,Gyr_Z
02954,9.702620,-0.515762,1.419508,0.065072,0.001201,-0.023145
02955,9.708462,-0.433008,1.456901,0.065768,-0.002238,-0.022374
02956,9.681614,-0.368717,1.426489,0.064018,-0.005164,-0.026966
02957,9.697609,-0.339148,1.464238,0.051230,-0.007878,-0.029115
02958,9.682045,-0.361910,1.425303,0.035156,-0.011183,-0.025732
02959,9.744028,-0.425524,1.412670,0.016588,-0.015501,-0.023817
02960,9.741912,-0.458625,1.342592,-0.001004,-0.015512,-0.019826
02961,9.802777,-0.490084,1.338622,-0.009121,-0.013940,-0.013790
02962,9.765969,-0.518783,1.310469,-0.013606,-0.013511,-0.012890
02963,9.752857,-0.508454,1.339525,-0.009941,-0.014082,-0.012409
02964,9.779105,-0.535138,1.377295,-0.016965,-0.016175,-0.009090
02965,9.736888,-0.541917,1.398346,-0.019887,-0.017535,-0.012682
02966,9.784503,-0.564576,1.424212,-0.011465,-0.022340,-0.014443
02967,9.795914,-0.505707,1.409667,-0.007209,-0.017441,-0.017900
02968,9.806429,-0.557791,1.409298,-0.004986,-0.012627,-0.015090
02969,9.774014,-0.472832,1.427736,0.005942,-0.003905,-0.022258
02970,9.794162,-0.433587,1.425480,-0.004701,0.007654,-0.020673
02971,9.760763,-0.459907,1.458811,-0.022485,0.001950,-0.016238
02972,9.794697,-0.575124,1.430465,-0.036093,-0.000935,-0.016990
02973,9.793553,-0.642631,1.352434,-0.031650,-0.002873,-0.014004
02974,9.711812,-0.612611,1.365845,-0.021551,-0.006816,-0.012913
02975,9.719923,-0.598466,1.383903,-0.014375,-0.012118,-0.015415
02976,9.709875,-0.543598,1.381682,-0.004902,-0.010531,-0.013372
02977,9.705898,-0.553445,1.420904,0.003054,-0.017205,-0.013366
02978,9.711723,-0.472412,1.456268,0.007890,-0.019352,-0.013882
02979,9.684237,-0.419371,1.524215,0.005280,-0.023954,-0.013196
02980,9.715026,-0.434497,1.520351,-0.000996,-0.027985,-0.012988
02981,9.759166,-0.458877,1.485714,-0.003061,-0.028633,-0.012343
02982,9.792890,-0.429888,1.450388,-0.001117,-0.020020,-0.008186
02983,9.811509,-0.469602,1.468290,-0.009068,-0.024907,-0.010832
02984,9.843434,-0.518786,1.455591,-0.015035,-0.020626,-0.003696
02985,9.810817,-0.537314,1.386530,-0.021357,-0.013657,-0.006461
02986,9.811068,-0.537101,1.384833,-0.024783,-0.018407,-0.004391
02987,9.781001,-0.520724,1.384265,-0.027667,-0.019205,-0.002362
02988,9.790409,-0.541273,1.392310,-0.030902,-0.018278,-0.000719
02989,9.773585,-0.534385,1.361284,-0.024741,-0.017844,0.001226
02990,9.760556,-0.525763,1.389949,-0.016162,-0.018484,0.002910
02991,9.788707,-0.475825,1.405009,-0.011101,-0.013431,-0.001926
02992,9.795550,-0.429453,1.432444,-0.011074,-0.000358,-0.003157
02993,9.799306,-0.427515,1.492618,-0.013113,0.012065,-0.003740
02994,9.780257,-0.498230,1.487597,-0.028636,0.024232,0.002294
02995,9.770123,-0.590096,1.493729,-0.031020,0.037412,0.010837
02996,9.808098,-0.748951,1.619101,0.020372,0.031460,0.019232
02997,9.817287,-0.976413,1.927960,0.146356,0.016088,0.033997
02998,9.799034,-1.148869,2.306185,0.342097,-0.029028,0.035103
02999,10.025154,-1.325553,2.560089,0.575715,-0.045670,0.032384
03000,10.002968,-1.223407,2.294168,0.752111,-0.002149,0.009691
03001,9.825260,-0.620436,1.647022,0.795801,0.047609,-0.003153
03002,9.666742,0.200831,0.789269,0.626611,0.065667,-0.013724
03003,9.820936,0.670132,0.133746,0.375783,0.038074,-0.028160
03004,10.148132,1.066438,0.029770,0.094212,0.039461,-0.064596
03005,10.067682,1.037912,0.032912,-0.196070,0.063742,-0.118485
03006,9.723664,0.632813,0.109789,-0.454660,0.065298,-0.176819
03007,9.237670,-0.208648,-0.015135,-0.594172,0.005166,-0.193977
03008,9.055390,-1.098115,0.227260,-0.517459,-0.100392,-0.174790
03009,9.440173,-1.456298,1.106641,-0.315488,-0.117327,-0.125806
03010,9.675546,-1.311405,2.194523,-0.119859,-0.046043,-0.053668
03011,9.831000,-0.784233,3.018648,0.000043,0.015157,0.000391
03012,9.951330,-0.222437,3.489074,0.020988,0.054683,0.037890
03013,10.002330,0.252076,3.860901,-0.075229,0.081312,0.040779
03014,9.964665,0.193824,3.634778,-0.286238,0.102407,0.034181
03015,9.819679,-0.330048,2.425625,-0.444133,0.117287,0.036768
03016,9.762877,-0.769321,0.873835,-0.439575,0.090239,0.026820
03017,9.878999,-0.847273,-0.084623,-0.331278,0.071336,0.000577
03018,9.958207,-0.838364,-0.614765,-0.209899,0.053616,-0.038057
03019,10.088323,-0.772367,-0.610975,-0.066390,0.024365,-0.078426
03020,10.077123,-0.592136,-0.252320,0.027287,0.038053,-0.120371
03021,9.718783,-0.478283,0.168219,0.050820,0.031395,-0.138856
03022,9.445644,-0.391186,0.632241,0.002724,-0.005039,-0.126395
03023,9.341267,-0.148127,1.259971,-0.100935,-0.010819,-0.082130
03024,9.436468,-0.001535,2.179019,-0.257241,0.001816,-0.027713
03025,9.767757,-0.213860,2.836178,-0.435964,0.045034,0.051073
03026,9.853362,-0.573942,3.093233,-0.550114,0.113296,0.130673
03027,9.867783,-0.713831,3.473009,-0.586583,0.164034,0.172340
03028,9.939014,-0.692311,3.662768,-0.617516,0.219183,0.173634
03029,9.794464,-0.562908,3.110206,-0.648731,0.261387,0.153076
03030,9.629519,-0.517886,1.932418,-0.640839,0.257807,0.125446
03031,9.655771,-0.598265,0.892711,-0.582216,0.228065,0.079821
03032,9.719283,-0.725850,-0.004176,-0.446048,0.170209,0.028303
03033,9.924026,-0.962117,-0.403699,-0.233742,0.153233,-0.033001
03034,9.933768,-0.992911,-0.220929,-0.043908,0.163404,-0.082166
03035,9.762727,-0.909837,0.263145,0.053971,0.177017,-0.108211
03036,9.505969,-0.911211,1.156852,0.058155,0.158915,-0.090949
03037,9.638007,-1.077343,2.210277,-0.009678,0.141805,-0.016640
03038,9.745931,-1.131297,3.107166,-0.113962,0.160643,0.091827
03039,9.811367,-1.147319,3.838081,-0.204694,0.181995,0.195609
03040,9.924019,-1.235388,4.198754,-0.301525,0.216742,0.296058
03041,9.879884,-1.326829,4.076994,-0.364269,0.241091,0.353027
03042,9.795446,-1.371506,3.321295,-0.402646,0.280538,0.371651
03043,9.596742,-1.360848,1.932485,-0.409895,0.279087,0.366314
03044,9.479100,-1.457772,0.583892,-0.332446,0.221058,0.338026
03045,9.569373,-1.754452,-0.193931,-0.116146,0.148279,0.271002
03046,9.733412,-2.112605,-0.198429,0.170685,0.117199,0.195415
03047,9.728205,-2.396105,0.057706,0.432372,0.120326,0.149919
03048,9.476355,-2.165601,0.413823,0.642869,0.126544,0.122762
03049,9.338469,-1.529644,1.060382,0.755373,0.132919,0.116970
03050,9.341945,-0.886702,1.886839,0.736047,0.143417,0.132653
03051,9.341940,-0.442488,2.441857,0.609725,0.149978,0.170417
03052,9.267678,-0.020813,2.821703,0.404631,0.143833,0.206411
03053,9.297461,0.337805,2.867347,0.149486,0.134096,0.219006
03054,9.315417,0.324234,2.569988,-0.095051,0.118764,0.218343
03055,9.381128,-0.125561,2.038801,-0.227520,0.111230,0.200499
03056,9.455815,-0.660507,1.554269,-0.231573,0.107976,0.176944
03057,9.529956,-1.191900,1.187749,-0.129020,0.112650,0.144352
03058,9.636058,-1.495124,1.033538,0.034685,0.092988,0.117345
03059,9.695524,-1.671242,1.061915,0.240065,0.080890,0.092966
03060,9.800567,-1.528789,1.305599,0.424042,0.068726,0.075020
03061,9.717165,-1.123329,1.639735,0.523085,0.061289,0.062065
03062,9.682634,-0.528750,1.959804,0.502783,0.058721,0.053940
03063,9.577786,-0.087136,2.183820,0.376001,0.045896,0.055492
03064,9.602170,0.160777,2.265895,0.179985,0.035809,0.061928
03065,9.581131,0.085544,2.139697,-0.019849,0.026697,0.073481
03066,9.585806,-0.222539,1.935344,-0.152992,0.026455,0.075466
03067,9.649163,-0.566941,1.790271,-0.213566,0.026307,0.074700
03068,9.687728,-0.781404,1.753394,-0.204697,0.039560,0.063855
03069,9.679199,-0.901419,1.945979,-0.174953,0.053941,0.055543
03070,9.729040,-1.056379,2.199755,-0.142064,0.062340,0.053871
03071,9.792804,-1.088051,2.285422,-0.113450,0.077632,0.058145
03072,9.759812,-1.044625,2.362072,-0.090601,0.088841,0.041787
03073,9.807754,-0.998451,2.440188,-0.085121,0.088537,0.022569
03074,9.802683,-0.803320,2.509634,-0.097133,0.112201,-0.007284
03075,9.732762,-0.714235,2.520001,-0.130482,0.124800,-0.042813
03076,9.702721,-0.793163,2.439960,-0.150007,0.112064,-0.070097
03077,9.689266,-0.911660,2.318048,-0.140898,0.092621,-0.082934
03078,9.744368,-1.084184,2.145069,-0.110216,0.080371,-0.091387
03079,9.746146,-1.108349,2.021906,-0.059343,0.076088,-0.102185
03080,9.777728,-1.181359,1.948810,0.007530,0.073121,-0.111728
03081,9.724988,-1.121762,1.976590,0.068651,0.086781,-0.128845
03082,9.679944,-1.047768,1.965670,0.099830,0.084654,-0.134151
03083,9.617692,-0.898970,2.005220,0.104795,0.094270,-0.131807
03084,9.578641,-0.813572,2.015308,0.080751,0.103302,-0.120524
03085,9.531151,-0.742931,2.065410,0.026162,0.112993,-0.101496
03086,9.456094,-0.757134,2.084544,-0.045591,0.117394,-0.080292
03087,9.423976,-1.011638,2.052427,-0.108399,0.114428,-0.046414
03088,9.327549,-1.313634,1.977205,-0.139820,0.112320,-0.008300
03089,9.329202,-1.448810,1.944648,-0.126529,0.108506,0.024345
03090,9.372080,-1.479610,1.924520,-0.106381,0.118083,0.035346
03091,9.264898,-1.457827,1.951994,-0.087995,0.127360,0.049029
03092,9.278106,-1.439362,1.883440,-0.087436,0.125229,0.063082
03093,9.378017,-1.442361,1.886650,-0.085998,0.117716,0.078306
03094,9.491825,-1.455353,1.920138,-0.063649,0.117574,0.082282
03095,9.630434,-1.387945,2.046468,-0.038909,0.127277,0.081141
03096,9.651756,-1.249286,2.111512,-0.038640,0.134500,0.074753
03097,9.721764,-1.167592,2.078474,-0.041768,0.141934,0.062105
03098,9.649013,-1.119338,2.140421,-0.049810,0.150997,0.061274
03099,9.576111,-1.071266,2.202332,-0.067587,0.147396,0.060723
03100,9.533876,-1.074810,2.253216,-0.100646,0.130811,0.073959
03101,9.533656,-1.217065,2.221788,-0.126877,0.121495,0.098936
03102,9.466789,-1.405088,2.205009,-0.131563,0.106957,0.120284
03103,9.500365,-1.491594,2.213125,-0.109489,0.098281,0.136690
03104,9.546482,-1.555807,2.261218,-0.084564,0.080492,0.150286
03105,9.546513,-1.594335,2.338244,-0.059636,0.099909,0.150330
03106,9.502326,-1.572297,2.396188,-0.030952,0.103514,0.154703
03107,9.481063,-1.579595,2.435492,-0.003061,0.111234,0.163888
03108,9.513051,-1.534560,2.429727,0.017577,0.118333,0.169942
03109,9.499928,-1.496489,2.442353,0.026452,0.122032,0.177696
03110,9.527229,-1.562639,2.384936,0.031926,0.119144,0.187620
03111,9.422083,-1.647714,2.319888,0.043622,0.109058,0.202750
03112,9.415056,-1.575972,2.222401,0.070124,0.093948,0.201875
03113,9.411615,-1.460355,2.214830,0.076538,0.085485,0.193755
03114,9.387076,-1.412526,2.193668,0.067539,0.075659,0.180661
03115,9.356676,-1.375075,2.151573,0.060977,0.081784,0.165560
03116,9.352222,-1.323017,2.181209,0.055529,0.082792,0.153776
03117,9.328736,-1.328007,2.278494,0.051240,0.082082,0.141083
03118,9.360616,-1.346666,2.308336,0.037204,0.075202,0.133794
03119,9.382884,-1.410849,2.366078,0.023226,0.069237,0.134188
03120,9.421271,-1.483951,2.394613,0.029661,0.073195,0.134395
03121,9.414155,-1.594992,2.430102,0.047006,0.069886,0.127754
03122,9.413059,-1.528717,2.539128,0.072138,0.076443,0.119674
03123,9.409361,-1.306957,2.621116,0.077460,0.085761,0.102939
03124,9.435004,-1.102099,2.705187,0.065335,0.095370,0.083398
03125,9.464636,-0.928041,2.719389,0.035611,0.099718,0.063550
03126,9.514647,-0.959014,2.581937,-0.010653,0.093723,0.046709
03127,9.490689,-1.008933,2.448410,-0.019389,0.084022,0.035829
03128,9.545903,-0.971599,2.270388,-0.018729,0.076676,0.021688
03129,9.604128,-0.856004,2.192763,-0.040050,0.069375,-0.002390
03130,9.619040,-0.931377,2.149257,-0.079339,0.074138,-0.011768
03131,9.524316,-1.150622,2.045156,-0.105703,0.058013,-0.017075
03132,9.459283,-1.223657,1.993101,-0.110996,0.041982,-0.024747
03133,9.471273,-1.166849,2.047537,-0.109173,0.042522,-0.040993
03134,9.458290,-1.102353,2.250804,-0.128113,0.052919,-0.053970
03135,9.386956,-1.099941,2.419561,-0.183123,0.064282,-0.052281
03136,9.389609,-1.113100,2.573967,-0.232879,0.080075,-0.043507
03137,9.364738,-1.264967,2.753822,-0.283012,0.093144,-0.025022
03138,9.379995,-1.384472,2.987812,-0.331980,0.115112,-0.000981
03139,9.425436,-1.535901,3.084055,-0.381519,0.138366,0.034089
03140,9.397557,-1.620352,3.077885,-0.401632,0.158791,0.053833
03141,9.409699,-1.670313,3.127456,-0.400940,0.180204,0.063302
03142,9.427148,-1.841475,3.154037,-0.413770,0.202541,0.080338
03143,9.536136,-2.224741,3.149019,-0.447004,0.230456,0.128523
03144,9.699061,-2.823075,3.007187,-0.477886,0.262793,0.209011
03145,9.659507,-3.462290,2.655086,-0.433096,0.304882,0.291412
03146,9.229936,-3.740553,2.370064,-0.311017,0.318528,0.348262
03147,8.830346,-3.502668,2.440245,-0.203587,0.292236,0.365759
03148,8.720165,-3.241705,2.447698,-0.195179,0.257236,0.391019
03149,8.805198,-3.193691,2.418455,-0.223831,0.236437,0.439910
03150,8.929397,-3.522570,2.387693,-0.243385,0.238125,0.526178
03151,9.074912,-4.117987,2.442035,-0.238217,0.244493,0.661389
03152,9.124379,-4.704698,2.730739,-0.198955,0.268886,0.802224
03153,9.177654,-4.995161,3.176867,-0.163831,0.295540,0.929675
03154,9.225837,-4.998244,3.569669,-0.141253,0.343643,1.040991
03155,9.059295,-4.758889,3.769189,-0.150954,0.371025,1.147762
03156,8.902661,-4.534483,3.747970,-0.202357,0.376585,1.254811
03157,8.827201,-4.544104,3.526286,-0.280137,0.368783,1.364816
03158,8.865065,-4.645878,3.249858,-0.352015,0.372844,1.463665
03159,8.913580,-4.925979,3.011429,-0.410206,0.391315,1.558764
03160,8.809223,-5.175348,2.713038,-0.434342,0.398906,1.637886
03161,8.719420,-5.326957,2.392550,-0.412858,0.369611,1.702201
03162,8.754649,-5.561624,2.174427,-0.381419,0.343085,1.767922
03163,8.757000,-5.632783,1.924263,-0.349667,0.312676,1.828794
03164,8.738190,-5.671595,1.774578,-0.299498,0.271896,1.864678
03165,8.718145,-5.561169,1.757737,-0.282575,0.234406,1.902405
03166,8.431231,-5.827553,1.710190,-0.321921,0.173562,1.946593
03167,8.390747,-6.348210,1.962462,-0.296469,0.097489,1.994335
03168,8.554880,-6.695976,2.669976,-0.237315,0.036253,2.045842
03169,8.717072,-6.911729,3.432616,-0.180520,0.040876,2.106643
03170,8.773246,-6.954726,4.197539,-0.149088,0.087503,2.163352
03171,8.703517,-6.871098,4.508088,-0.163800,0.131181,2.218854
03172,8.678519,-6.484259,4.526999,-0.142215,0.148631,2.260422
03173,8.591440,-6.059737,4.108143,-0.181993,0.155265,2.274401
03174,8.469835,-6.090178,3.249788,-0.218543,0.150166,2.259015
03175,8.222925,-6.208816,2.490813,-0.172759,0.136979,2.215985
03176,8.049874,-6.308484,1.787166,-0.118441,0.100697,2.156190
03177,7.737127,-6.200116,1.086468,-0.024789,0.040955,2.102564
03178,7.626228,-5.759766,0.749159,0.119250,-0.017595,1.997130
03179,7.534183,-5.467010,0.800921,0.184008,-0.062014,1.903789
03180,7.308795,-5.738802,0.853397,0.166026,-0.152140,1.850013
03181,7.290797,-6.545849,1.321863,0.209521,-0.222394,1.828259
03182,7.540133,-7.020980,2.679225,0.311489,-0.200600,1.834186
03183,7.665878,-6.936048,4.181561,0.388020,-0.108038,1.829554
03184,7.666243,-6.520708,5.458391,0.372664,0.015409,1.810957
03185,7.502933,-5.927628,5.908181,0.204081,0.123874,1.795552
03186,7.118729,-5.389241,5.516582,-0.059018,0.176482,1.769377
03187,6.673176,-5.182923,4.380984,-0.359538,0.181594,1.730600
03188,6.218033,-5.347242,2.724759,-0.587465,0.129757,1.683198
03189,5.829941,-5.865970,1.257131,-0.648070,0.022114,1.617903
03190,5.693478,-6.306184,0.330797,-0.597576,-0.070100,1.532662
03191,5.559378,-6.718842,-0.016952,-0.503556,-0.110332,1.438834
03192,5.479869,-7.177129,0.128297,-0.367368,-0.112732,1.364952
03193,5.498290,-7.937122,1.050358,-0.224599,-0.120284,1.335691
03194,5.809514,-8.623452,2.828010,-0.064885,-0.122481,1.333265
03195,6.374342,-8.902373,4.880319,0.042313,-0.038288,1.347378
03196,6.524561,-8.759415,6.480576,0.075458,0.095024,1.380126
03197,6.165993,-8.433097,6.946971,0.019205,0.174918,1.390146
03198,5.646372,-8.091951,5.879890,-0.031007,0.180702,1.390528
03199,5.053567,-7.723725,4.045942,-0.025815,0.122633,1.335478
03200,4.756653,-7.554758,2.380106,0.057452,0.022751,1.247780
03201,4.762928,-7.724920,1.157947,0.216475,-0.078281,1.159151
03202,4.726843,-7.812340,0.464650,0.388301,-0.124203,1.087095
03203,4.465154,-7.732017,0.243629,0.573866,-0.105010,1.025833
03204,4.061115,-7.713874,0.373761,0.714862,-0.064627,0.976522
03205,3.665335,-7.920211,0.960780,0.803746,-0.086798,0.950697
03206,3.954462,-8.232518,2.657555,0.850579,-0.128754,0.946307
03207,4.718925,-8.493530,4.841419,0.816283,-0.051287,0.976914
03208,4.987043,-8.555004,6.419446,0.708266,0.122728,1.018347
03209,4.533535,-8.429925,6.624624,0.549032,0.237457,1.060373
03210,3.816041,-8.422034,5.417149,0.449697,0.217402,1.057552
03211,3.526902,-8.471378,4.213521,0.531778,0.135523,1.002153
03212,3.677787,-8.547775,3.394221,0.702888,0.052419,0.921774
03213,3.890365,-8.733151,2.764192,0.886782,-0.014211,0.858711
03214,3.768321,-9.085688,2.267832,1.104821,-0.038381,0.833301
03215,3.436194,-9.365018,1.966734,1.422420,-0.030893,0.810313
03216,2.909570,-9.321490,1.718891,1.748324,-0.027369,0.773315
03217,2.550339,-8.973114,1.757348,2.062004,-0.090611,0.728698
03218,2.876716,-8.650575,2.672208,2.326364,-0.165713,0.705428
03219,3.405819,-8.525716,3.843951,2.443346,-0.172692,0.702930
03220,3.810816,-8.347524,4.719087,2.528069,-0.142106,0.708930
03221,3.937128,-7.992284,5.193554,2.584811,-0.107988,0.713820
03222,3.828039,-7.474460,5.118138,2.584248,-0.123984,0.707832
03223,3.713935,-7.037448,4.567314,2.549703,-0.206101,0.661212
03224,3.845369,-6.792135,3.953772,2.496222,-0.300703,0.583442
03225,4.009242,-6.629455,3.642434,2.479974,-0.338488,0.512423
03226,3.875878,-6.606914,3.783461,2.479295,-0.306401,0.454477
03227,3.452007,-6.431152,3.729081,2.415492,-0.233129,0.405033
03228,2.942860,-5.878310,4.174370,2.349464,-0.181177,0.374259
03229,2.779479,-5.651442,4.827174,2.204937,-0.197630,0.412866
03230,3.026706,-5.374591,5.009287,2.022955,-0.201388,0.460603
03231,3.152901,-4.687129,5.154007,1.752754,-0.133364,0.463709
03232,3.115444,-4.198545,5.638891,1.437057,-0.098462,0.447942
03233,3.081887,-4.280082,6.300404,1.098201,-0.118759,0.430923
03234,2.916374,-4.859584,7.012607,0.846220,-0.159059,0.442085
03235,2.706331,-5.983136,7.230829,0.726624,-0.218022,0.483521
03236,2.749961,-6.790036,7.233474,0.880640,-0.272431,0.504882
03237,3.037699,-7.242179,7.460087,1.153990,-0.305170,0.494911
03238,3.274015,-7.696041,7.413486,1.505446,-0.342769,0.464966
03239,3.445054,-7.787378,7.087497,1.915328,-0.358672,0.385567
03240,3.237173,-7.424971,6.406699,2.231823,-0.331042,0.286622
03241,2.682732,-6.724185,6.042478,2.493803,-0.330975,0.207703
03242,2.435905,-6.392135,5.572928,2.665038,-0.395167,0.163060
03243,2.643616,-5.265712,5.470668,2.777311,-0.389143,0.118902
03244,2.620386,-3.946793,5.679526,2.655896,-0.353307,0.088497
03245,2.744946,-3.082854,6.448586,2.443951,-0.397696,0.076958
03246,3.048215,-2.601914,7.532950,2.101508,-0.415443,0.105156
03247,2.920635,-2.838498,8.800445,1.785519,-0.427442,0.182947
03248,2.770071,-4.099193,9.514724,1.528824,-0.516226,0.309276
03249,2.890060,-5.624105,9.069442,1.513576,-0.592405,0.420483
03250,3.089607,-6.199461,8.285045,1.723411,-0.610294,0.431057
03251,3.276455,-6.322253,7.516952,2.043941,-0.614810,0.360049
03252,3.466067,-5.989206,7.083608,2.476250,-0.614637,0.247689
03253,3.411024,-5.012131,7.008123,2.831469,-0.582943,0.134453
03254,3.018404,-3.986051,6.927897,2.981941,-0.585544,0.064371
03255,2.741442,-3.204170,6.753385,2.928933,-0.632181,0.029241
03256,2.554776,-2.332649,6.330473,2.736171,-0.641972,0.027090
03257,2.758582,-1.176658,5.748417,2.487602,-0.620858,-0.001951
03258,3.156821,0.530642,6.497871,2.173014,-0.505349,-0.043217
03259,3.429820,2.003658,7.500301,1.435717,-0.380295,-0.044431
03260,3.679863,2.753720,7.809959,0.342483,-0.258879,0.005420
03261,3.559928,2.770947,9.046745,-0.614337,-0.101616,0.020828
03262,3.488727,1.514178,9.955507,-1.633348,-0.146365,0.149199
03263,3.590150,-1.367714,10.464911,-2.334312,-0.233231,0.333970
03264,3.435799,-5.063990,10.396068,-2.407096,-0.353581,0.561637
03265,3.842968,-8.517945,9.783536,-1.639269,-0.551080,0.657924
03266,4.508335,-9.980889,8.668708,-0.465487,-0.568959,0.469808
03267,4.195940,-9.732741,8.515444,0.913392,-0.478530,0.224833
03268,3.734974,-8.656260,9.161641,2.105687,-0.482219,0.075391
03269,3.440186,-6.658196,8.510466,2.952017,-0.502185,-0.049449
03270,3.100852,-3.586995,7.799412,3.449948,-0.506373,-0.160859
03271,2.870491,-0.509443,7.145877,3.380765,-0.511943,-0.224308
03272,3.263160,1.784654,6.888899,2.890549,-0.531874,-0.232821
03273,3.789871,3.262411,7.340529,2.183154,-0.474812,-0.191578
03274,3.751069,3.717393,8.720362,1.338066,-0.373864,-0.101314
03275,3.746023,3.180679,10.455164,0.414310,-0.303575,0.021512
03276,3.786598,1.648249,11.008360,-0.493582,-0.240302,0.175229
03277,3.866553,-0.402228,10.847054,-1.003130,-0.192100,0.293744
03278,4.217413,-2.427824,10.209002,-1.067126,-0.212537,0.346959
03279,4.690297,-4.183930,9.567107,-0.655061,-0.220905,0.307587
03280,4.838739,-4.972587,8.844076,-0.007089,-0.225147,0.162816
03281,4.602122,-4.101772,8.102060,0.689803,-0.194775,-0.025468
03282,4.144067,-2.116219,7.803557,1.040118,-0.149970,-0.197079
03283,4.020039,-0.461415,7.616905,1.022453,-0.147555,-0.290860
03284,4.332746,1.017501,7.710222,0.704733,-0.084075,-0.349548
03285,4.373270,2.445925,7.861547,0.023544,0.059472,-0.399830
03286,4.347453,3.913287,7.785987,-1.004604,0.221741,-0.463845
03287,4.343932,5.013016,7.898552,-2.228628,0.400844,-0.511784
03288,4.091949,5.154427,8.576244,-3.530609,0.488400,-0.507733
03289,3.653326,3.103563,10.321817,-4.459321,0.407848,-0.392875
03290,3.655999,-1.199963,11.556914,-5.257973,0.219940,-0.018005
03291,3.305137,-7.205969,7.864074,-5.729628,0.193169,0.527157
03292,3.075782,-11.896422,6.837719,-4.337881,0.375947,0.486687
03293,4.129480,-13.193778,8.573405,-2.612814,0.402786,0.407620
03294,4.655593,-13.050926,8.922116,-1.161202,0.366651,0.298943
03295,4.363942,-11.162299,8.008105,0.179733,0.294433,0.072007
03296,3.860713,-7.970245,7.429842,1.271503,0.173224,-0.174491
03297,3.456225,-5.451328,7.983179,1.880078,0.053430,-0.303444
03298,3.341792,-4.142597,7.550113,2.048873,-0.071342,-0.314895
03299,3.465301,-2.872202,7.525857,2.144733,-0.019678,-0.332607
03300,3.359633,-1.080574,8.425972,2.042262,0.140653,-0.360753
03301,3.411313,0.508785,9.234656,1.514566,0.233512,-0.313103
03302,3.526469,1.453318,9.465483,0.633442,0.279824,-0.215794
03303,3.548220,1.555962,9.178848,-0.291579,0.312300,-0.119986
03304,3.611901,0.971149,8.851036,-1.198478,0.328973,-0.060821
03305,3.740545,-0.411440,8.246025,-2.046728,0.355040,-0.030602
03306,3.900171,-2.030882,7.532344,-2.616702,0.429510,-0.037513
03307,3.920375,-3.285079,7.103048,-2.873682,0.505533,-0.078832
03308,3.854064,-4.013915,7.047640,-2.974112,0.547617,-0.144912
03309,3.781766,-4.481404,7.374741,-2.928971,0.563888,-0.197811
03310,3.628492,-4.829019,7.613002,-2.870738,0.548426,-0.205883
03311,3.386375,-5.257945,7.457697,-2.742109,0.537279,-0.187304
03312,3.238913,-5.416913,7.208896,-2.575094,0.543628,-0.199083
03313,3.284686,-5.103585,6.902588,-2.456080,0.573621,-0.221901
03314,3.403085,-4.604535,6.607617,-2.473253,0.629136,-0.271697
03315,3.422244,-4.180531,6.631845,-2.602766,0.677003,-0.311761
03316,3.291662,-4.312226,7.120701,-2.840903,0.671337,-0.308597
03317,3.164655,-5.468801,6.638192,-3.162971,0.607499,-0.213080
03318,3.124852,-6.468072,5.755325,-3.264240,0.586551,-0.140772
03319,3.200251,-6.698533,5.558914,-3.212123,0.590306,-0.149820
03320,3.473593,-6.708053,5.756510,-3.165937,0.589388,-0.177013
03321,3.325356,-7.044091,6.330562,-3.128954,0.568149,-0.195843
03322,2.800852,-8.333466,6.262431,-2.990024,0.504629,-0.149149
03323,2.494143,-9.460897,6.162864,-2.528551,0.474872,-0.146120
03324,2.442704,-9.696205,6.589344,-2.091688,0.494901,-0.115449
03325,2.500450,-9.768870,5.952471,-1.867401,0.522359,-0.065194
03326,2.795008,-9.140192,5.012375,-1.641824,0.576725,-0.064328
03327,3.139389,-7.958272,5.109825,-1.447227,0.649706,-0.098426
03328,3.261631,-7.049047,5.410369,-1.475513,0.680643,-0.144192
03329,2.745517,-6.626293,5.105020,-1.581249,0.627115,-0.195566
03330,2.224692,-6.957502,4.269219,-1.677293,0.470379,-0.220402
03331,2.444430,-7.592778,3.392802,-1.671896,0.339757,-0.217333
03332,2.969769,-8.069202,3.103630,-1.594907,0.336199,-0.202146
03333,3.298415,-8.077204,3.797828,-1.532447,0.436301,-0.195189
03334,3.157598,-7.876201,4.608516,-1.631557,0.518890,-0.190409
03335,2.890423,-7.434587,4.936280,-1.885476,0.559349,-0.186989
03336,2.636184,-7.477233,5.150533,-2.148178,0.543182,-0.166885
03337,2.639144,-7.960518,5.325504,-2.345189,0.530504,-0.129099
03338,2.547199,-8.173756,4.648858,-2.552344,0.545537,-0.106856
03339,2.513897,-8.147368,3.689222,-2.568736,0.532740,-0.120732
03340,3.012972,-8.171364,3.107393,-2.500465,0.520590,-0.159272
03341,3.203556,-8.171312,2.730087,-2.367915,0.547344,-0.215522
03342,3.136353,-8.111280,2.397640,-2.244332,0.575087,-0.282441
03343,2.695436,-8.141367,1.630624,-2.154894,0.566720,-0.344449
03344,2.575883,-8.421472,1.321938,-2.089182,0.507211,-0.351601
03345,2.593725,-9.312526,1.551524,-2.066642,0.477007,-0.286844
03346,2.423707,-10.447207,2.077165,-2.011819,0.480530,-0.183893
03347,2.220329,-10.987404,2.892406,-1.838458,0.508698,-0.133802
03348,2.306075,-10.559794,3.831283,-1.679392,0.509194,-0.108391
03349,2.619761,-9.955767,3.858645,-1.590953,0.443197,-0.075339
03350,3.018055,-9.799470,3.064004,-1.386792,0.366908,-0.094503
03351,3.144832,-9.881700,1.961426,-1.054607,0.327274,-0.170663
03352,3.040157,-9.763449,1.107645,-0.670954,0.320180,-0.274432
03353,2.935715,-9.315776,0.485262,-0.387091,0.360170,-0.367205
03354,2.761733,-8.468013,0.169354,-0.232505,0.422031,-0.398507
03355,2.701027,-7.568886,-0.174176,-0.300980,0.436046,-0.401053
03356,2.673413,-7.154759,-0.206908,-0.598246,0.389178,-0.367058
03357,2.810836,-7.833154,0.112689,-1.031697,0.304390,-0.291245
03358,2.921671,-9.134999,0.983609,-1.478783,0.260492,-0.218761
03359,2.915805,-10.345400,2.048982,-1.787413,0.309842,-0.163916
03360,2.676032,-10.977119,3.028200,-1.874428,0.367783,-0.124514
03361,2.570786,-10.401953,3.174057,-1.823877,0.391932,-0.122063
03362,2.544746,-9.750769,2.392539,-1.714951,0.325674,-0.127456
03363,2.833280,-9.572682,0.905515,-1.487055,0.214609,-0.152696
03364,3.124620,-9.838294,-0.423202,-1.098602,0.151693,-0.191923
03365,3.239874,-10.041317,-0.876701,-0.622913,0.183706,-0.265013
03366,3.089809,-9.867507,-1.049584,-0.214910,0.237368,-0.310899
03367,3.182086,-9.287544,-0.692002,0.012315,0.267928,-0.325206
03368,3.487148,-8.534625,-0.168691,-0.063647,0.344063,-0.312014
03369,3.334499,-7.950276,0.026393,-0.365902,0.385494,-0.285139
03370,3.209489,-7.718318,0.516520,-0.838784,0.317368,-0.257992
03371,3.146653,-8.127464,0.781118,-1.351480,0.221721,-0.240938
03372,3.344482,-8.685485,0.983271,-1.649378,0.169050,-0.230975
03373,3.067866,-9.678280,0.751555,-1.716760,0.151131,-0.186846
03374,2.524670,-10.833149,1.014242,-1.400261,0.122085,-0.140001
03375,2.323222,-11.660258,1.661329,-0.898826,0.026887,-0.102589
03376,2.591983,-12.384232,1.462150,-0.237728,-0.054318,-0.092716
03377,2.916323,-12.644027,0.324894,0.569811,-0.054937,-0.137987
03378,3.412307,-11.773755,-0.961407,1.358729,0.083233,-0.224956
03379,3.356582,-9.600045,-1.817622,1.920455,0.196205,-0.302931
03380,3.223782,-7.822952,-2.288661,2.094866,0.107736,-0.337991
03381,3.566144,-7.186477,-1.931747,1.873054,-0.075914,-0.328965
03382,4.265545,-7.175528,-0.186934,1.402828,-0.056420,-0.316373
03383,4.066331,-7.078405,1.555281,0.826934,0.101101,-0.304563
03384,3.522550,-6.912811,2.987128,0.300114,0.151224,-0.300343
03385,3.615394,-7.145086,3.783547,-0.144352,0.138927,-0.309091
03386,3.958903,-7.580297,3.731115,-0.340709,0.139904,-0.351904
03387,4.288430,-8.142195,3.233340,-0.249372,0.108997,-0.438214
03388,4.775036,-8.959681,1.569373,-0.047895,0.098589,-0.525789
03389,4.494910,-9.931862,-0.532711,0.355955,0.160817,-0.559300
03390,3.663446,-10.691917,-1.566603,0.939161,0.211025,-0.573470
03391,3.204339,-10.666454,-1.289086,1.455971,0.215197,-0.568283
03392,3.416500,-9.348723,-0.310421,1.724800,0.192785,-0.577958
03393,3.869001,-7.685852,0.477330,1.745485,0.181054,-0.631625
03394,4.443581,-6.346187,1.528467,1.640718,0.208268,-0.727601
03395,4.753599,-5.461287,3.010477,1.423711,0.252242,-0.820592
03396,5.088995,-5.254790,4.627937,1.085527,0.272189,-0.894432
03397,5.357389,-6.103836,5.405650,0.665267,0.324805,-0.900916
03398,5.069331,-7.595772,4.736292,0.364951,0.377420,-0.844687
03399,4.379371,-8.764683,2.808248,0.200069,0.361698,-0.748341
03400,3.978996,-9.358194,0.688667,0.281009,0.270978,-0.685193
03401,4.102177,-9.766347,-0.174536,0.558719,0.157641,-0.667449
03402,4.512150,-9.893620,0.047474,0.857389,0.085774,-0.728904
03403,4.997808,-9.310497,0.869625,1.142413,0.070002,-0.849309
03404,5.424322,-8.282896,1.249452,1.372910,0.089183,-0.989153
03405,5.644785,-7.123665,1.321927,1.520489,0.140331,-1.125543
03406,5.497123,-6.134120,1.546803,1.560069,0.156371,-1.234141
03407,5.504879,-5.775151,2.316400,1.408901,0.140777,-1.290168
03408,5.566822,-6.042812,3.098689,1.073259,0.149984,-1.280232
03409,5.504025,-6.386075,3.425123,0.699124,0.175587,-1.221032
03410,5.658331,-6.422176,3.531113,0.420052,0.175469,-1.168455
03411,6.094845,-6.160345,3.397128,0.214572,0.155817,-1.164271
03412,6.628577,-5.725022,2.982415,0.025855,0.136614,-1.230210
03413,7.066225,-5.628897,2.152712,-0.221463,0.171460,-1.316476
03414,6.597218,-6.223488,1.181470,-0.399014,0.257166,-1.383053
03415,5.950843,-7.322213,0.643822,-0.469757,0.264263,-1.443019
03416,5.421451,-8.484098,0.580770,-0.419321,0.252698,-1.454254
03417,5.084746,-8.975535,1.331279,-0.219210,0.210875,-1.442950
03418,5.307864,-8.551899,2.561647,-0.095513,0.183705,-1.396080
03419,5.879441,-7.872618,3.411600,-0.041139,0.169235,-1.335737
03420,6.618978,-7.179945,4.271860,-0.001029,0.198586,-1.305814
03421,7.319670,-6.888980,5.431269,0.003792,0.231884,-1.318963
03422,7.748827,-7.083840,6.346916,-0.120658,0.290981,-1.374110
03423,7.777972,-7.683065,6.032677,-0.233046,0.351438,-1.463768
03424,7.314605,-8.218422,5.133234,0.012463,0.397021,-1.527631
03425,7.006825,-8.230084,4.354769,0.442031,0.375993,-1.505710
03426,6.769661,-7.523609,2.677847,0.655113,0.353479,-1.392990
03427,6.438850,-7.286349,0.317478,0.802028,0.310949,-1.301816
03428,6.240739,-7.290074,-1.208074,1.088546,0.227382,-1.320962
03429,6.544550,-6.609079,-1.518894,1.304330,0.059515,-1.384539
03430,7.118307,-5.669428,-1.493823,1.339998,-0.114719,-1.453971
03431,7.579681,-5.074364,-0.714328,1.213785,-0.186499,-1.527806
03432,7.683442,-4.925522,1.340119,0.986283,-0.206889,-1.587065
03433,7.758108,-4.767908,4.050934,0.648464,-0.214132,-1.596930
03434,8.388323,-4.187842,6.548279,0.195449,-0.175631,-1.552117
03435,8.972619,-3.776783,7.872312,-0.385838,-0.036170,-1.462366
03436,8.850128,-4.352491,7.768761,-0.902548,0.128944,-1.383419
03437,8.323454,-5.364686,6.084787,-1.151394,0.235359,-1.341153
03438,7.550950,-6.269465,3.243993,-1.141514,0.230944,-1.316194
03439,6.994602,-7.004528,0.615341,-0.694952,0.162671,-1.371858
03440,7.107100,-7.610528,-0.133693,-0.082299,0.070444,-1.413287
03441,7.263507,-7.806008,-0.197261,0.462401,-0.048691,-1.415756
03442,7.737360,-6.701542,0.347179,0.912708,-0.138551,-1.446796
03443,8.252870,-5.335521,0.852084,1.102860,-0.196574,-1.466803
03444,8.683305,-4.126159,1.606961,1.176639,-0.255184,-1.493716
03445,9.230422,-3.308062,3.195077,1.106517,-0.285938,-1.526570
03446,9.653539,-2.712022,4.792016,0.768994,-0.263307,-1.538437
03447,9.728625,-2.250702,5.496445,0.287833,-0.206333,-1.531556
03448,9.329737,-2.072355,5.494571,-0.164002,-0.148705,-1.531664
03449,9.009012,-2.495769,5.142281,-0.497163,-0.079541,-1.544957
03450,8.809728,-3.461119,4.698412,-0.688150,-0.033771,-1.537067
03451,8.696230,-4.598195,4.275029,-0.698695,0.007091,-1.519714
03452,8.694150,-5.551075,3.427338,-0.591254,0.023071,-1.471230
03453,8.575961,-6.035392,1.797489,-0.424884,0.003051,-1.400983
03454,8.464710,-6.231589,0.410291,-0.079654,-0.095621,-1.350995
03455,8.369454,-5.960473,-0.038100,0.398930,-0.223889,-1.397788
03456,8.584115,-5.141625,0.385408,0.722761,-0.323006,-1.502169
03457,8.703534,-4.134870,1.329722,0.872619,-0.374687,-1.549387
03458,8.914295,-3.577302,2.448289,0.859737,-0.419740,-1.511931
03459,9.052280,-3.096007,3.821630,0.805074,-0.410557,-1.430096
03460,9.506845,-2.649141,5.258854,0.671418,-0.382275,-1.326910
03461,9.801569,-2.389739,6.100198,0.411810,-0.300787,-1.210933
03462,9.620591,-2.528634,5.858656,0.068307,-0.234867,-1.105311
03463,9.104809,-2.875090,4.245948,-0.170979,-0.212003,-1.044561
03464,8.546817,-3.263667,2.387925,-0.157387,-0.228287,-1.043916
03465,8.398927,-3.392548,1.194330,0.026828,-0.268712,-1.089141
03466,8.505714,-3.687360,0.850560,0.239197,-0.280994,-1.079342
03467,8.582927,-4.062556,1.008566,0.436941,-0.322275,-1.000300
03468,8.373018,-3.893973,0.983305,0.705195,-0.378970,-0.939450
03469,8.426707,-2.902778,1.685403,0.845386,-0.384154,-0.937564
03470,8.565332,-1.959691,2.170153,0.732021,-0.396865,-0.890054
03471,8.927046,-1.621344,2.426920,0.605745,-0.470882,-0.784421
03472,9.410726,-1.605029,3.057051,0.511808,-0.531561,-0.682121
03473,9.907138,-1.444059,3.861896,0.429627,-0.509676,-0.609763
03474,10.085115,-0.825669,4.091217,0.145851,-0.405296,-0.570203
03475,9.559299,-0.532820,3.307236,-0.222595,-0.321983,-0.535819
03476,9.001599,-0.912513,2.622284,-0.423367,-0.341327,-0.530484
03477,9.030445,-1.929847,2.159883,-0.439649,-0.380075,-0.516104
03478,9.140700,-2.787881,1.751884,-0.281053,-0.358652,-0.470711
03479,9.132024,-2.860940,1.391299,-0.095646,-0.337939,-0.403499
03480,8.786804,-2.392434,1.018397,-0.017107,-0.341827,-0.322203
03481,8.431683,-1.856404,0.722061,-0.015580,-0.443843,-0.223326
03482,8.541890,-1.459632,0.628074,0.035381,-0.548534,-0.149521
03483,9.105450,-0.779622,1.321747,0.108941,-0.527105,-0.129159
03484,9.597156,0.020449,2.432270,-0.111724,-0.403271,-0.103208
03485,9.613127,0.028611,2.786507,-0.526502,-0.368889,-0.047453
03486,9.787561,-0.785335,2.874549,-0.796487,-0.426826,0.005304
03487,10.242100,-1.950807,2.879606,-0.900012,-0.445383,0.067689
03488,10.268666,-2.814409,2.942730,-0.820403,-0.393621,0.114185
03489,10.027686,-3.309841,3.061465,-0.592515,-0.339146,0.120287
03490,9.717332,-3.320662,3.045496,-0.311915,-0.308665,0.105680
03491,9.437255,-2.724098,2.999492,-0.015261,-0.288465,0.081468
03492,9.622614,-1.754736,3.118419,0.222298,-0.255359,0.049098
03493,9.912034,-1.094985,3.322913,0.264745,-0.201239,0.045985
03494,10.216169,-0.904888,2.919936,0.212337,-0.170784,0.061682
03495,10.392189,-1.021666,2.489507,0.168895,-0.112145,0.073357
03496,10.360530,-0.833885,2.320591,0.204659,-0.057543,0.045166
03497,10.151163,-0.326912,2.507294,0.217483,-0.018629,-0.009063
03498,10.028491,0.232097,2.843910,0.166212,-0.016047,-0.056315
03499,9.884601,0.361338,3.015071,-0.010409,-0.024998,-0.061933
03500,9.786994,-0.146622,2.444815,-0.234171,-0.031924,-0.058299
03501,9.798443,-0.943210,1.420058,-0.356559,-0.027367,-0.049658
03502,9.612455,-1.769145,0.574983,-0.288309,-0.035081,-0.050903
03503,9.303682,-2.481239,0.371056,-0.069912,-0.104873,-0.055121
03504,9.260038,-2.744325,0.773884,0.230046,-0.195068,-0.052782
03505,9.548079,-2.309390,1.899817,0.469595,-0.213253,-0.039707
03506,9.587124,-1.759526,3.097183,0.546410,-0.186855,-0.016153
03507,9.486460,-1.652661,3.504047,0.481367,-0.161810,0.005460
03508,9.497844,-1.751006,2.847189,0.466146,-0.163506,0.013165
03509,9.633777,-1.600797,1.620551,0.519435,-0.154410,-0.003665
03510,9.652999,-0.885519,0.370014,0.621447,-0.110194,-0.059774
03511,9.453136,-0.001324,-0.022452,0.715163,-0.077652,-0.118849
03512,9.368057,0.360088,0.738835,0.687202,-0.058304,-0.136409
03513,9.150400,0.151840,1.592734,0.483688,-0.059973,-0.105181
03514,9.079023,-0.064087,1.934542,0.255286,-0.092106,-0.064918
03515,9.188344,-0.152781,1.911029,0.060077,-0.130430,-0.026966
03516,9.384270,-0.553491,1.474239,-0.033909,-0.175173,0.012177
03517,9.624870,-0.984435,1.059745,0.052939,-0.219187,0.029395
03518,10.052697,-0.813704,1.462844,0.245734,-0.218553,0.012124
03519,10.358773,-0.224557,2.405116,0.329788,-0.158794,-0.022998
03520,10.382719,0.195602,3.166873,0.249030,-0.081350,-0.049080
03521,10.224169,0.287013,3.381369,0.061704,-0.056825,-0.054489
03522,10.166404,-0.077404,2.973784,-0.139939,-0.050550,-0.064627
03523,10.008298,-0.725546,2.055445,-0.243025,-0.056800,-0.062696
03524,9.858610,-1.311943,1.134106,-0.193341,-0.076533,-0.055589
03525,9.795664,-1.712961,0.601185,-0.007164,-0.107227,-0.043560
03526,9.868433,-1.701991,0.787133,0.209612,-0.130427,-0.028540
03527,9.933013,-1.220578,1.352628,0.333327,-0.134971,-0.019657
03528,9.967922,-0.600354,1.949428,0.319276,-0.121281,-0.022244
03529,10.050720,-0.204777,2.191468,0.164369,-0.108777,-0.005163
03530,9.826542,-0.209169,1.942455,0.014177,-0.091102,-0.001950
03531,9.684099,-0.397810,1.613694,-0.072300,-0.098371,-0.016541
03532,9.589544,-0.712661,1.161591,-0.064054,-0.111294,-0.022328
03533,9.622570,-0.955822,1.026137,0.025550,-0.141805,-0.025361
03534,9.727737,-0.877805,1.199618,0.102627,-0.150853,-0.025751
03535,9.849274,-0.781172,1.497931,0.144080,-0.139748,-0.028635
03536,9.807372,-0.640188,1.903752,0.128661,-0.109373,-0.033824
03537,9.716546,-0.561521,1.996763,0.072652,-0.089800,-0.037403
03538,9.707087,-0.575330,1.945036,0.017344,-0.079801,-0.040497
03539,9.667362,-0.656098,1.902810,-0.024059,-0.065489,-0.043174
03540,9.637308,-0.869808,1.778172,-0.056469,-0.062039,-0.037468
03541,9.651869,-1.050488,1.518279,-0.051729,-0.060671,-0.020441
03542,9.636409,-1.067056,1.387503,0.002540,-0.063223,-0.008430
03543,9.705633,-0.975344,1.488410,0.044197,-0.073567,0.000205
03544,9.780904,-0.985011,1.520773,0.071329,-0.082561,0.004165
03545,9.870222,-0.925821,1.575071,0.115442,-0.076483,0.004950
03546,9.827161,-0.736999,1.610024,0.154135,-0.075950,0.007565
03547,9.943346,-0.560556,1.553564,0.138238,-0.059531,0.011724
03548,9.961225,-0.422025,1.431207,0.077327,-0.030099,0.010776
03549,9.901657,-0.334386,1.352695,-0.020929,-0.008595,0.013994
03550,9.883076,-0.495438,1.315961,-0.119619,0.008923,0.016870
03551,9.828066,-0.742939,1.326332,-0.174929,0.026588,0.015985
03552,9.714273,-0.882401,1.415372,-0.195094,0.031995,0.022800
03553,9.634070,-0.987394,1.479633,-0.199455,0.024908,0.029234
03554,9.585578,-1.097157,1.481600,-0.168683,0.015168,0.033793
03555,9.648010,-1.121075,1.417955,-0.126162,0.014888,0.031420
03556,9.702465,-1.092727,1.444900,-0.067482,0.019602,0.023322
03557,9.746800,-1.052027,1.525721,-0.029685,0.031342,0.019662
03558,9.730668,-1.041602,1.500862,-0.009002,0.043607,0.015313
03559,9.791227,-0.990850,1.494615,0.021434,0.043396,0.008171
03560,9.828835,-0.865548,1.492086,0.023864,0.061682,0.002352
03561,9.776339,-0.726841,1.481716,0.022473,0.063278,-0.004465
03562,9.767838,-0.664880,1.518946,-0.005190,0.064467,-0.006984
03563,9.712017,-0.696478,1.498432,-0.027059,0.061661,-0.013128
03564,9.676827,-0.639617,1.463039,-0.029115,0.063099,-0.024319
03565,9.675259,-0.647934,1.528188,-0.041515,0.070990,-0.029345
03566,9.695082,-0.667763,1.429863,-0.044246,0.070214,-0.033288
03567,9.696094,-0.625276,1.473837,-0.038009,0.070266,-0.036549
03568,9.756634,-0.570450,1.470029,-0.032028,0.064343,-0.034225
03569,9.809713,-0.545673,1.562029,-0.032790,0.068026,-0.034748
03570,9.818454,-0.564386,1.574624,-0.056861,0.062555,-0.036768
03571,9.861892,-0.657651,1.472624,-0.082384,0.058508,-0.032061
03572,9.770643,-0.672445,1.371951,-0.098459,0.057413,-0.028234
03573,9.771681,-0.631518,1.413991,-0.110352,0.047949,-0.029262
03574,9.734166,-0.745588,1.365777,-0.144411,0.047145,-0.024949
03575,9.678965,-0.898386,1.309741,-0.155921,0.047388,-0.011965
03576,9.668858,-0.998198,1.273628,-0.138792,0.035112,-0.003556
03577,9.708231,-1.166793,1.305662,-0.104063,0.024340,0.004124
03578,9.676456,-1.154082,1.309511,-0.047024,0.030186,0.008929
03579,9.699266,-0.988766,1.374111,-0.006326,0.025156,0.011361
03580,9.704452,-0.860693,1.430960,0.010469,0.016744,0.007935
03581,9.732917,-0.805845,1.484145,0.015361,0.014360,0.007581
03582,9.755857,-0.759782,1.515331,0.004058,0.018713,0.005215
03583,9.694259,-0.812249,1.526434,-0.016153,0.020363,0.000178
03584,9.662442,-0.826507,1.433203,-0.023207,0.010385,0.000699
03585,9.633851,-0.853502,1.478952,-0.013041,0.007830,-0.009436
03586,9.669240,-0.777274,1.494683,-0.009620,0.010887,-0.012729
03587,9.665082,-0.745979,1.511508,-0.021956,0.012895,-0.010044
03588,9.659476,-0.754299,1.490424,-0.031789,0.011810,-0.009475
03589,9.675864,-0.847741,1.524472,-0.039014,0.007536,-0.003147
03590,9.769619,-0.919461,1.422049,-0.043746,0.007932,0.003136
03591,9.697268,-0.869719,1.420227,-0.022713,0.004761,-0.002936
03592,9.694605,-0.800307,1.473800,-0.022542,-0.005001,0.000925
03593,9.732762,-0.794777,1.434477,-0.035307,-0.002949,-0.006459
03594,9.682328,-0.857181,1.390981,-0.032765,0.007587,-0.006366
03595,9.666050,-0.855261,1.421481,-0.016835,-0.001128,-0.008476
03596,9.724708,-0.852894,1.433279,-0.014723,0.005378,-0.008764
03597,9.683739,-0.816263,1.429870,-0.011742,0.012175,-0.010358
03598,9.616903,-0.756220,1.450689,-0.012437,0.006190,-0.014875
03599,9.683924,-0.785876,1.527553,-0.024541,0.000610,-0.019962
03600,9.725109,-0.940470,1.498428,-0.030850,0.002483,-0.014810
03601,9.665261,-0.980047,1.448765,-0.004551,0.002844,-0.018897
03602,9.620420,-0.911677,1.460414,0.015571,-0.006482,-0.023795
03603,9.668507,-0.896983,1.524208,0.026980,-0.006878,-0.023227
03604,9.682492,-0.946555,1.514327,0.023544,-0.002177,-0.017864
03605,9.633548,-0.996007,1.412279,0.036412,-0.000259,-0.012283
03606,9.635042,-0.954846,1.450471,0.064186,-0.005320,-0.013443
03607,9.673191,-0.798657,1.541263,0.070718,-0.011068,-0.014609
03608,9.703645,-0.821577,1.597410,0.068654,-0.011694,-0.014192
03609,9.793839,-0.859947,1.509623,0.065944,-0.016514,-0.008468
03610,9.732539,-0.818321,1.454401,0.077170,-0.007111,-0.011786
03611,9.708213,-0.753276,1.515988,0.087889,-0.013451,-0.015744
03612,9.734611,-0.745023,1.587742,0.083113,-0.014847,-0.019281
03613,9.781773,-0.889331,1.580985,0.070170,-0.011172,-0.011165
03614,9.754621,-0.932083,1.470493,0.088743,-0.009363,-0.005339
03615,9.700008,-0.842236,1.475344,0.119389,-0.011468,-0.006342
03616,9.709575,-0.740609,1.513500,0.123367,-0.015894,-0.015219
03617,9.708812,-0.748395,1.571352,0.109963,-0.022086,-0.007588
03618,9.737837,-0.839774,1.493471,0.096350,-0.010780,-0.001811
03619,9.700922,-0.862096,1.376806,0.109338,-0.012546,-0.000151
03620,9.682050,-0.788090,1.459922,0.120963,-0.012688,-0.005324
03621,9.718058,-0.801153,1.538673,0.111772,-0.009616,-0.010076
03622,9.699286,-0.876571,1.494508,0.103285,-0.004551,-0.000639
03623,9.658103,-0.868786,1.393861,0.115850,-0.010315,0.000657
03624,9.675808,-0.829148,1.401033,0.130286,-0.005678,-0.002425
