// Start Time: Unknown
// Update Rate: 100.0Hz
// Filter Profile: human (46.1)
// Firmware Version: 4.3.5
PacketCounter,Acc_X,Acc_Y,Acc_Z,Gyr_X,Gyr_Y,Gyr_Z
59972,9.758437,-1.432003,1.304739,0.009816,-0.002143,-0.005009
59973,9.781449,-1.311886,1.316015,0.020635,-0.005217,-0.006413
59974,9.778279,-1.257993,1.343444,0.016091,-0.004002,-0.008398
59975,9.745068,-1.354166,1.331489,0.005397,-0.004156,-0.012683
59976,9.770285,-1.395487,1.307715,0.016583,-0.006109,-0.008541
59977,9.748775,-1.405011,1.303299,0.028080,-0.004662,-0.004098
59978,9.709396,-1.341491,1.350295,0.030234,-0.006464,0.001316
59979,9.727203,-1.332418,1.378262,0.021202,-0.006314,0.002588
59980,9.698968,-1.319386,1.349245,0.014762,-0.007797,0.003882
59981,9.730640,-1.385742,1.349559,0.004927,-0.008939,0.004996
59982,9.730644,-1.386265,1.348990,0.005896,-0.004304,0.007246
59983,9.759503,-1.428046,1.301096,0.014181,-0.008021,0.011068
59984,9.744993,-1.408412,1.324307,0.018377,-0.007071,0.011404
59985,9.706132,-1.374130,1.294777,0.022755,-0.011627,0.011302
59986,9.722358,-1.397071,1.121469,0.027333,-0.018401,0.014652
59987,9.712460,-1.321924,1.122939,0.029176,-0.023598,0.019776
59988,9.769625,-1.377533,1.102226,0.028170,-0.022672,0.016175
59989,9.800579,-1.417171,1.177985,0.026084,-0.011005,0.022427
59990,9.801345,-1.442605,1.374769,0.025440,-0.000099,0.026893
59991,9.793738,-1.393734,1.427026,0.019506,0.008459,0.034465
59992,9.757878,-1.250075,1.530511,-0.021333,0.015815,0.037984
59993,9.740597,-1.397640,1.544621,-0.075195,0.011324,0.043376
59994,9.738855,-1.540302,1.461087,-0.101137,0.002089,0.046498
59995,9.794675,-1.733114,1.629782,-0.097891,-0.016008,0.043444
59996,9.837709,-1.957441,1.941174,-0.056090,-0.037784,0.053281
59997,9.853723,-2.063463,1.957038,-0.002265,-0.055647,0.055083
59998,9.780358,-2.213009,1.832419,0.115174,-0.062788,0.076103
59999,9.856583,-1.993830,1.732380,0.249915,-0.063692,0.086112
60000,9.853669,-1.408284,1.567945,0.297123,-0.050976,0.097523
60001,9.683049,-1.041720,1.238588,0.250843,-0.045859,0.106237
60002,9.541872,-0.938779,0.674539,0.187587,-0.062228,0.110320
60003,9.464505,-0.919013,-0.034768,0.121621,-0.086843,0.102656
60004,9.607929,-1.166638,-0.378401,0.054376,-0.101959,0.124640
60005,9.630782,-1.461663,-0.248585,0.006846,-0.085012,0.157524
60006,9.682014,-1.759379,0.480179,-0.047019,-0.072722,0.186087
60007,9.725765,-1.901036,1.291489,-0.094156,-0.030080,0.213749
60008,9.611380,-1.695998,1.776305,-0.159343,-0.008931,0.222452
60009,9.630559,-1.728235,2.270680,-0.274948,0.011447,0.213637
60010,9.827023,-1.954183,2.706329,-0.427542,0.008488,0.204811
60011,9.761084,-2.388241,2.836422,-0.532448,-0.007292,0.201934
60012,9.597988,-2.949659,2.317685,-0.474268,-0.033374,0.194975
60013,9.585263,-3.488361,1.672498,-0.241089,-0.053490,0.197723
60014,9.620529,-3.410467,1.206506,0.089944,-0.072073,0.203541
60015,9.663532,-2.980195,0.896747,0.347488,-0.091032,0.214593
60016,9.734375,-2.512652,0.793087,0.510186,-0.108177,0.243171
60017,9.650506,-2.146767,0.284815,0.574656,-0.141376,0.269241
60018,9.827650,-1.969064,-0.197394,0.571206,-0.131325,0.313337
60019,9.763284,-1.868631,-0.200813,0.515915,-0.102033,0.363044
60020,9.619050,-1.445995,0.414445,0.365112,-0.059975,0.401972
60021,9.522663,-1.184749,1.176868,0.095578,-0.018386,0.423764
60022,9.413959,-1.283979,1.627576,-0.220547,0.011135,0.439817
60023,9.298289,-1.557482,1.721987,-0.496952,0.004132,0.423328
60024,9.334214,-2.480291,1.976877,-0.698110,-0.009552,0.421242
60025,9.543759,-4.021874,1.964557,-0.649951,-0.060665,0.424293
60026,9.654328,-5.021003,1.509631,-0.306700,-0.098899,0.438479
60027,9.574410,-5.010316,1.093574,0.174936,-0.139442,0.446010
60028,9.617012,-4.320506,0.945646,0.586166,-0.172066,0.458300
60029,9.714262,-3.480201,0.962628,0.826034,-0.197232,0.474505
60030,9.726533,-2.887906,0.800651,0.905236,-0.200280,0.510440
60031,9.707645,-2.428412,0.299807,0.865480,-0.200436,0.543536
60032,9.698345,-2.283417,-0.041273,0.735063,-0.188953,0.573040
60033,9.617894,-2.180497,0.022967,0.559349,-0.153078,0.611234
60034,9.440544,-2.041870,0.515970,0.322398,-0.100889,0.641459
60035,9.395535,-2.023516,1.321351,0.016506,-0.041100,0.655395
60036,9.305089,-2.271341,1.775068,-0.273151,0.011102,0.647435
60037,9.239182,-2.832062,2.006108,-0.496063,0.022341,0.629409
60038,9.172972,-3.704201,2.152926,-0.600261,0.023551,0.613781
60039,9.145223,-4.778165,1.850559,-0.443416,-0.017847,0.589796
60040,9.233058,-5.498342,1.546082,-0.071370,-0.055651,0.574578
60041,9.408017,-5.602381,1.107805,0.410283,-0.089182,0.573815
60042,9.458708,-4.716187,0.949623,0.809251,-0.121679,0.577401
60043,9.610083,-3.743027,1.071265,0.996929,-0.141218,0.606762
60044,9.699947,-3.157298,1.000671,0.977206,-0.135283,0.647281
60045,9.687020,-2.813867,0.465800,0.847598,-0.120270,0.681704
60046,9.753156,-2.619828,0.232927,0.645130,-0.080328,0.731433
60047,9.649108,-2.377397,0.685996,0.363963,-0.015250,0.770527
60048,9.404029,-2.191881,1.193763,0.006533,0.047053,0.784945
60049,9.247846,-2.622084,1.613882,-0.342760,0.108992,0.780536
60050,9.144986,-3.320839,1.627515,-0.562321,0.137068,0.757255
60051,9.046577,-3.875629,1.455050,-0.631055,0.140522,0.720435
60052,9.237316,-4.703308,1.838576,-0.611791,0.124723,0.685768
60053,9.265821,-5.443101,1.677811,-0.353455,0.076846,0.655310
60054,9.215770,-5.880480,1.214918,0.072092,0.037764,0.626637
60055,9.165783,-5.666703,0.706517,0.528438,-0.025096,0.625462
60056,9.230118,-4.828816,0.746456,0.859263,-0.079431,0.633315
60057,9.498426,-4.068447,0.955691,0.970068,-0.110127,0.664509
60058,9.556441,-3.416222,0.634218,0.900449,-0.100550,0.708252
60059,9.508548,-3.008705,0.125808,0.725659,-0.090147,0.749832
60060,9.461271,-2.661523,0.152543,0.449932,-0.055935,0.795151
60061,9.340767,-2.502307,0.694246,0.089932,-0.002606,0.811412
60062,9.063048,-2.784194,1.270363,-0.268187,0.057019,0.811466
60063,8.914088,-3.483328,1.420396,-0.519304,0.113135,0.792150
60064,8.677362,-4.108369,1.077914,-0.598272,0.128653,0.738304
60065,8.575691,-4.919884,0.807972,-0.512416,0.103845,0.673888
60066,8.602806,-5.541036,1.083374,-0.307926,0.065529,0.612348
60067,8.504805,-6.092558,1.075662,0.037474,-0.007212,0.561200
60068,8.462967,-6.451645,0.835448,0.481295,-0.083558,0.529181
60069,8.597026,-5.958940,0.853065,0.870510,-0.133295,0.532445
60070,8.891019,-5.039052,1.082088,1.065931,-0.163455,0.554258
60071,9.134226,-4.205149,1.244554,1.006000,-0.162566,0.602379
60072,9.165566,-3.645770,0.917231,0.795525,-0.131561,0.665162
60073,9.035274,-3.392040,0.291045,0.525139,-0.096550,0.713299
60074,8.907450,-3.255437,0.188345,0.211134,-0.038892,0.752920
60075,8.651679,-3.367521,0.538757,-0.131661,0.023846,0.765666
60076,8.636293,-3.850414,1.374071,-0.448941,0.099781,0.746077
60077,8.332586,-4.626487,1.531826,-0.643264,0.126184,0.707700
60078,8.362993,-5.267552,1.404752,-0.696413,0.126733,0.655648
60079,8.176862,-5.942922,1.422143,-0.605871,0.104102,0.596853
60080,7.909487,-6.723095,1.292399,-0.323824,0.021462,0.534207
60081,7.787854,-7.341117,0.908134,0.167001,-0.098934,0.475657
60082,8.105053,-7.349567,0.868245,0.709063,-0.172713,0.453785
60083,8.466328,-6.508828,0.968686,1.142841,-0.229120,0.451233
60084,8.905935,-5.204518,1.239692,1.287353,-0.232908,0.490826
60085,8.810844,-4.037321,0.844465,1.148037,-0.196949,0.532788
60086,8.477620,-3.378015,0.240494,0.827108,-0.150376,0.588567
60087,8.258052,-3.176611,0.267245,0.383557,-0.093430,0.625547
60088,7.938487,-3.412484,0.812289,-0.073636,-0.013476,0.633607
60089,7.934827,-3.954456,1.823224,-0.473284,0.061199,0.600018
60090,7.675862,-4.828703,2.076603,-0.715117,0.131412,0.535817
60091,7.486718,-5.698605,1.802542,-0.731034,0.146468,0.451307
60092,7.506731,-6.423751,1.648195,-0.558779,0.128494,0.362289
60093,7.498262,-6.869930,1.857464,-0.261900,0.078392,0.279602
60094,7.450428,-7.293824,1.560221,0.194750,-0.014201,0.209816
60095,7.749424,-7.339817,1.402774,0.679081,-0.062622,0.186666
60096,7.928163,-6.380093,1.341520,1.034088,-0.104488,0.179838
60097,8.121462,-5.059027,1.044888,1.127593,-0.132258,0.192290
60098,8.165933,-4.308731,0.572265,0.991902,-0.103755,0.239871
60099,7.973540,-3.908903,0.364005,0.736536,-0.065763,0.275486
60100,7.668386,-3.734876,0.694448,0.400727,-0.006008,0.299157
60101,7.465688,-3.782626,1.614003,0.033497,0.069927,0.283504
60102,7.483652,-4.387152,2.273126,-0.312230,0.147683,0.252107
60103,7.307771,-5.456660,2.188499,-0.445096,0.159691,0.161470
60104,7.420765,-6.581473,2.133525,-0.347913,0.165995,0.088840
60105,7.352485,-7.008536,1.823227,-0.068867,0.134017,0.022582
60106,7.254036,-6.868878,1.430717,0.260700,0.068972,-0.031983
60107,7.409275,-6.466389,1.356270,0.514674,0.009579,-0.045609
60108,7.522894,-5.721796,1.368591,0.617697,-0.051916,-0.033900
60109,7.744601,-5.150094,0.741033,0.620418,-0.077432,0.007802
60110,7.703256,-4.849488,0.352893,0.535529,-0.079131,0.056323
60111,7.881973,-4.515277,0.643998,0.333816,-0.061206,0.127005
60112,7.845406,-4.271797,1.046427,0.067280,-0.014159,0.163615
60113,7.720492,-4.661142,1.509966,-0.168268,0.052947,0.179276
60114,7.395129,-5.144173,1.940295,-0.290729,0.054287,0.154669
60115,7.517465,-5.857298,1.977092,-0.289673,0.015371,0.111245
60116,7.719945,-6.599629,1.726954,-0.115587,-0.026764,0.056995
60117,7.846984,-6.906193,1.747486,0.200859,-0.072023,0.018462
60118,7.982607,-6.577945,1.814437,0.504675,-0.091085,0.011581
60119,7.944737,-5.497545,1.822488,0.631095,-0.099440,0.022247
60120,7.771980,-4.594878,1.140666,0.535351,-0.129015,0.031714
60121,7.944099,-4.749720,0.823962,0.349437,-0.136992,0.075290
60122,8.143032,-5.094547,1.070262,0.220985,-0.114171,0.118426
60123,8.274512,-4.665435,1.889807,0.069870,-0.065328,0.153094
60124,8.360913,-4.079149,2.512608,-0.218533,-0.011943,0.176100
60125,8.048854,-4.394132,2.182358,-0.526799,0.020934,0.170900
60126,7.457075,-5.459405,1.471927,-0.653852,0.011833,0.143723
60127,7.206937,-6.913205,1.259889,-0.452356,-0.068568,0.074156
60128,7.645879,-7.785388,1.201955,0.059709,-0.120633,-0.000848
60129,7.899140,-7.411595,1.667017,0.655485,-0.117421,-0.057291
60130,7.915130,-5.728379,1.666261,1.009136,-0.108263,-0.078899
60131,8.003039,-4.479380,1.623720,0.956117,-0.074849,-0.070547
60132,8.064632,-4.526439,1.274629,0.749778,-0.049772,-0.047860
60133,8.113515,-4.600018,1.276387,0.579891,-0.005722,-0.028502
60134,7.898219,-3.905735,1.893683,0.308255,0.032348,-0.005925
60135,7.881602,-3.798027,2.125620,-0.084833,0.032126,-0.001183
60136,7.982735,-4.828473,1.748318,-0.327565,0.033517,-0.022350
60137,8.147998,-5.692963,1.326393,-0.293330,0.020812,-0.065276
60138,8.122441,-5.640866,1.402456,-0.115578,0.000682,-0.112320
60139,7.973634,-5.255889,1.447537,0.020058,-0.027586,-0.148714
60140,8.084878,-5.169129,1.692479,0.112360,-0.014378,-0.159234
60141,8.328997,-5.386023,2.180030,0.195812,0.030933,-0.168023
60142,8.605256,-5.519186,2.383637,0.298458,0.071468,-0.148115
60143,8.628420,-5.321346,2.317260,0.370456,0.106576,-0.127705
60144,8.482719,-5.152563,2.193391,0.365754,0.086274,-0.107902
60145,8.440742,-5.566186,1.994060,0.374639,0.049502,-0.086257
60146,8.554133,-6.236668,2.335762,0.506816,0.050070,-0.069501
60147,8.783112,-6.237634,2.555544,0.683876,0.052729,-0.053282
60148,8.921099,-5.953906,2.575516,0.856155,0.052891,-0.025158
60149,9.044779,-5.278370,3.097322,0.893259,0.055434,0.008028
60150,8.909199,-4.752698,2.730608,0.793775,-0.000307,0.057453
60151,8.879188,-4.202022,3.210612,0.515995,-0.034918,0.120858
60152,9.095830,-4.662215,3.277019,0.234710,-0.096816,0.189746
60153,9.695209,-5.886681,3.314210,0.146258,-0.126196,0.307251
60154,10.334888,-6.220751,3.234374,0.237500,-0.126649,0.433411
60155,10.972909,-6.371868,3.153984,0.321215,-0.052477,0.589414
60156,10.412699,-6.870062,3.188404,0.439451,-0.066148,0.771624
60157,10.442829,-6.944595,3.322414,0.514344,-0.102288,0.959986
60158,10.499228,-7.543977,3.417285,0.525601,-0.157463,1.168443
60159,10.398843,-7.899053,3.570900,0.548075,-0.193924,1.377130
60160,10.201812,-7.913705,3.600332,0.564411,-0.211020,1.564529
60161,9.758343,-8.145740,3.764285,0.578945,-0.248677,1.729724
60162,9.779000,-8.556956,4.095430,0.641634,-0.297654,1.865041
60163,9.977086,-9.054847,4.316373,0.769917,-0.303743,1.967882
60164,9.927044,-9.371184,4.375893,0.946041,-0.260785,2.053049
60165,9.737736,-9.143629,4.483304,1.118122,-0.211448,2.129223
60166,9.287543,-8.033453,3.852897,1.176719,-0.146190,2.153829
60167,8.645246,-7.676653,2.484482,1.157810,-0.100933,2.171527
60168,8.042986,-8.240386,1.260166,1.188401,-0.087883,2.203184
60169,7.908572,-8.582327,1.111966,1.253484,-0.117592,2.246290
60170,8.132994,-8.553475,2.180937,1.201615,-0.087685,2.313494
60171,8.038513,-8.024783,3.422002,0.937634,-0.049437,2.380503
60172,7.604179,-7.777573,4.163557,0.524303,-0.003443,2.427990
60173,6.843136,-8.237887,4.510666,0.220304,0.026345,2.434846
60174,6.167139,-9.118525,4.422696,0.105943,-0.003670,2.427646
60175,5.794501,-9.779125,3.989735,0.153563,-0.051499,2.416740
60176,5.648141,-10.762277,3.757529,0.346718,-0.111860,2.415895
60177,5.935609,-11.674974,3.936979,0.693828,-0.083817,2.436714
60178,5.696169,-11.544924,3.780989,1.103025,0.006532,2.466354
60179,4.910912,-10.150513,2.290197,1.418973,0.016445,2.478513
60180,4.675927,-8.699003,1.087322,1.529030,-0.008710,2.484444
60181,5.095734,-8.632718,1.494375,1.418425,0.053804,2.513528
60182,5.240277,-9.437275,2.490781,1.240798,0.174240,2.555432
60183,4.862578,-9.653630,3.865539,1.099702,0.297023,2.586477
60184,4.080672,-9.459264,4.989203,0.937946,0.395158,2.608806
60185,3.667291,-9.293834,5.107160,0.799954,0.451937,2.638988
60186,3.232953,-9.626352,4.499399,0.678893,0.470627,2.667175
60187,2.764460,-9.826931,4.160618,0.619663,0.454146,2.696384
60188,2.639855,-9.929011,3.933319,0.585528,0.387132,2.725928
60189,2.658847,-9.736218,3.840965,0.613794,0.334918,2.735090
60190,2.413485,-9.441239,3.391386,0.714543,0.284143,2.724333
60191,1.847634,-8.756813,2.567541,0.888393,0.191582,2.666979
60192,1.964439,-8.824114,2.336624,1.042629,0.145487,2.641769
60193,2.262950,-9.264875,2.915097,1.131551,0.175032,2.652627
60194,2.476005,-9.619414,3.652557,1.165585,0.231453,2.692302
60195,2.304787,-9.223513,4.434996,1.099091,0.316353,2.748261
60196,1.786831,-8.254745,5.324833,0.907723,0.406035,2.775822
60197,1.250601,-8.069196,5.811718,0.631242,0.475518,2.805033
60198,0.831300,-8.918328,5.439657,0.456851,0.504962,2.822357
60199,0.307247,-9.410818,4.708230,0.506218,0.501139,2.820558
60200,-0.212261,-9.346608,4.323717,0.615700,0.471788,2.839521
60201,-0.744935,-9.019335,4.177259,0.732624,0.409225,2.842872
60202,-1.165311,-8.696051,4.072542,0.890117,0.331910,2.818484
60203,-1.379122,-8.211617,3.901132,1.081180,0.256612,2.772591
60204,-1.431253,-7.874500,3.851765,1.245010,0.230218,2.739372
60205,-1.371131,-7.982725,4.079041,1.369177,0.232599,2.721451
60206,-1.452027,-7.897909,4.861229,1.422742,0.287241,2.719918
60207,-1.717595,-7.433333,5.589779,1.412699,0.389967,2.709623
60208,-2.260229,-6.890424,6.051810,1.338414,0.481437,2.691689
60209,-2.698921,-6.526256,6.088121,1.180629,0.543531,2.675866
60210,-3.024211,-6.646685,5.988427,1.046790,0.565616,2.664132
60211,-3.124630,-7.690594,5.719972,1.027362,0.558891,2.667079
60212,-3.106954,-8.798523,5.102811,1.310731,0.549090,2.665404
60213,-3.310546,-8.864991,5.062282,1.735843,0.546897,2.673113
60214,-3.691177,-7.395176,5.262869,1.962276,0.527875,2.683580
60215,-4.401156,-5.152173,4.872243,1.951909,0.434069,2.655947
60216,-4.766236,-3.867545,4.145613,1.762585,0.280845,2.573155
60217,-4.706819,-3.874517,3.743710,1.544840,0.164280,2.486387
60218,-4.395029,-4.536700,3.951715,1.397299,0.101547,2.435391
60219,-4.366159,-5.330429,4.598098,1.403912,0.094505,2.392317
60220,-4.446408,-5.349516,5.733829,1.522981,0.139005,2.357614
60221,-4.402123,-4.701300,6.996223,1.565019,0.219985,2.342696
60222,-4.232878,-4.571612,7.531577,1.511462,0.314497,2.331476
60223,-4.305135,-4.979562,7.093840,1.495245,0.384702,2.335216
60224,-4.646191,-4.842954,6.346320,1.579426,0.436747,2.332377
60225,-5.053322,-4.756129,6.177547,1.705287,0.443793,2.330266
60226,-5.107838,-4.182690,6.375195,1.789455,0.438558,2.326657
60227,-5.239670,-3.093509,6.606362,1.751951,0.407391,2.315604
60228,-5.630185,-1.882555,6.241020,1.564708,0.316277,2.287353
60229,-5.661221,-1.254406,5.066218,1.262783,0.203835,2.240562
60230,-5.538230,-1.920292,4.224795,1.076975,0.145939,2.169300
60231,-5.631258,-3.040927,4.133556,1.158000,0.094891,2.110999
60232,-5.321970,-3.210357,4.428650,1.418140,0.101047,2.045629
60233,-5.193911,-3.104458,5.514919,1.734328,0.144502,1.990300
60234,-4.924433,-2.709078,6.759503,1.993509,0.219290,1.956446
60235,-4.775035,-1.970823,7.209461,2.112362,0.305611,1.933320
60236,-4.899198,-1.292474,7.170722,2.084788,0.383435,1.929512
60237,-5.243262,-0.987597,6.895457,1.961408,0.430382,1.919121
60238,-5.563357,-0.281633,6.671445,1.824535,0.464006,1.901119
60239,-5.875493,0.654618,6.791656,1.580989,0.433694,1.877860
60240,-6.050493,1.711683,6.417184,1.219679,0.362924,1.837280
60241,-6.237182,2.161320,5.828727,0.798394,0.250104,1.746756
60242,-6.235468,1.806428,4.682980,0.435890,0.119584,1.650281
60243,-5.936115,0.377701,4.137276,0.393756,0.026552,1.550100
60244,-5.634604,-0.689439,4.005001,0.723027,-0.018381,1.472934
60245,-5.540751,-0.910872,4.740896,1.160595,-0.013058,1.413411
60246,-5.392886,-0.437581,5.572979,1.564174,0.023686,1.364315
60247,-5.331672,0.597247,6.140668,1.865827,0.068665,1.310029
60248,-5.381882,1.392841,6.669340,1.944204,0.093716,1.262714
60249,-5.153883,2.420227,6.876037,1.792275,0.131260,1.215037
60250,-5.226784,3.176628,7.026772,1.492384,0.170913,1.160769
60251,-5.357732,3.208006,6.951784,1.180973,0.185417,1.105146
60252,-5.421680,3.385020,6.518843,0.923294,0.195965,1.040394
60253,-5.593869,3.694560,6.128452,0.646254,0.194644,0.968107
60254,-6.138508,3.645696,5.509442,0.356511,0.103399,0.901198
60255,-6.171854,3.503988,4.897998,0.138010,-0.001169,0.800055
60256,-5.759868,2.502917,4.333817,0.168546,-0.086030,0.700814
60257,-5.394152,2.096618,4.380609,0.450136,-0.094697,0.608304
60258,-5.201603,2.174044,4.988087,0.782385,-0.071959,0.520572
60259,-5.071594,2.582941,5.814920,1.085285,-0.020932,0.443694
60260,-5.058087,2.891767,6.335801,1.271840,0.041024,0.368598
60261,-5.180719,3.240427,5.952480,1.313676,0.083947,0.303247
60262,-5.527704,4.142111,5.704792,1.182962,0.102552,0.217778
60263,-5.736385,4.999996,5.987644,0.811736,0.075545,0.148220
60264,-5.521970,5.226803,6.252400,0.323632,0.023866,0.067291
60265,-5.573907,5.645882,5.994626,-0.204758,-0.031673,-0.007595
60266,-5.933576,6.071448,5.231719,-0.819710,-0.141274,-0.075854
60267,-5.866281,5.554900,3.974451,-1.420159,-0.295699,-0.165013
60268,-5.602416,4.019454,2.912006,-1.717284,-0.399800,-0.263149
60269,-5.243663,1.659050,2.613710,-1.467751,-0.462438,-0.373584
60270,-4.810597,-0.004952,3.533199,-0.781355,-0.475800,-0.445047
60271,-4.514247,-0.315647,4.932409,-0.045531,-0.423426,-0.482660
60272,-4.620793,1.047609,6.226616,0.360338,-0.332339,-0.496079
60273,-4.952303,2.655357,6.717457,0.312352,-0.261833,-0.511700
60274,-5.288632,3.694999,6.886279,-0.049473,-0.224952,-0.547166
60275,-5.445019,3.458321,6.840977,-0.446363,-0.213631,-0.574910
60276,-5.358552,2.859941,6.743336,-0.723942,-0.194378,-0.619799
60277,-5.634372,2.768898,6.926827,-0.927504,-0.193639,-0.644201
60278,-6.080498,3.110624,6.956831,-1.215496,-0.247631,-0.672484
60279,-6.481058,3.782390,6.223025,-1.606218,-0.349604,-0.723703
60280,-6.591223,3.766625,4.961761,-2.013143,-0.500628,-0.787029
60281,-6.194274,2.496865,4.072190,-2.251699,-0.618808,-0.874950
60282,-5.305045,0.396677,4.124387,-2.047425,-0.670843,-0.980107
60283,-4.587648,-0.923784,4.850623,-1.464542,-0.604412,-1.072634
60284,-4.727892,-0.312958,6.166164,-0.969228,-0.482822,-1.132567
60285,-5.467228,0.488142,7.149798,-0.840632,-0.396289,-1.170051
60286,-6.056493,0.793062,7.489033,-0.918808,-0.360269,-1.193411
60287,-6.281946,1.077699,7.862265,-1.101883,-0.356089,-1.228904
60288,-5.939398,0.719814,8.451415,-1.311126,-0.356882,-1.252934
60289,-5.439911,-0.042726,8.526450,-1.426869,-0.289697,-1.268755
60290,-5.408883,-0.436516,8.400958,-1.459932,-0.202904,-1.259653
60291,-5.736506,0.280031,7.670138,-1.579737,-0.156968,-1.259889
60292,-6.016722,1.125941,6.708489,-1.875125,-0.147565,-1.292594
60293,-6.528002,0.995191,5.614543,-2.162513,-0.265789,-1.358295
60294,-6.236316,-0.134163,5.043817,-2.276271,-0.387835,-1.421291
60295,-5.960398,-1.939573,5.114849,-2.104613,-0.452516,-1.495022
60296,-5.545957,-3.282308,5.731251,-1.609978,-0.438691,-1.526883
60297,-5.317569,-2.709362,6.701534,-1.151894,-0.353243,-1.535559
60298,-5.306388,-2.071772,7.118930,-0.960337,-0.264579,-1.562037
60299,-5.346334,-1.656692,7.109897,-0.923546,-0.185533,-1.595440
60300,-5.410699,-0.866572,6.995925,-1.120390,-0.163214,-1.631774
60301,-5.249170,-0.504612,7.024400,-1.487219,-0.197715,-1.676381
60302,-4.902703,-1.779524,7.171105,-1.827301,-0.237235,-1.703089
60303,-4.662188,-3.502500,6.919655,-1.901645,-0.227470,-1.699342
60304,-4.805148,-4.322167,6.539403,-1.792434,-0.200622,-1.674428
60305,-4.992501,-3.484223,5.987640,-1.735822,-0.205564,-1.665929
60306,-5.106208,-1.936237,5.513412,-1.897129,-0.252880,-1.712087
60307,-5.047186,-1.525077,5.197586,-2.157025,-0.367610,-1.788748
60308,-4.336714,-2.427346,4.880667,-2.313938,-0.447367,-1.864655
60309,-4.220117,-3.360140,4.807283,-2.298682,-0.439333,-1.929514
60310,-4.033693,-4.708434,5.265320,-2.167007,-0.390164,-1.987221
60311,-4.011724,-5.670855,6.103025,-1.911290,-0.290179,-2.031387
60312,-4.011515,-6.261593,6.903289,-1.597800,-0.182182,-2.051655
60313,-4.121790,-6.334782,6.847453,-1.251707,-0.069732,-2.069796
60314,-4.401030,-5.345991,6.438064,-1.061776,-0.004919,-2.110645
60315,-4.461112,-4.212539,5.911189,-1.158382,-0.019895,-2.185790
60316,-4.286481,-4.125104,6.244104,-1.445718,-0.123931,-2.235649
60317,-3.499806,-5.968595,6.781890,-1.663523,-0.227947,-2.237245
60318,-2.759849,-8.047739,7.335095,-1.578833,-0.233608,-2.220050
60319,-2.806536,-8.112408,7.667563,-1.432820,-0.167980,-2.102607
60320,-3.563087,-5.836867,7.209892,-1.548706,-0.142614,-2.074117
60321,-3.755046,-4.611927,6.479061,-1.887880,-0.186736,-2.098607
60322,-3.462136,-5.322425,4.571200,-2.198312,-0.256900,-2.144519
60323,-3.127669,-6.087068,3.719191,-2.248518,-0.230196,-2.212341
60324,-2.874826,-7.467231,3.932242,-2.065852,-0.164953,-2.283307
60325,-2.463275,-8.782799,4.826062,-1.736579,-0.083514,-2.306700
60326,-1.910470,-9.890329,5.788312,-1.462867,0.018952,-2.271180
60327,-1.703916,-10.372485,5.686876,-1.257001,0.080720,-2.173850
60328,-2.227177,-9.558276,5.486407,-1.257415,0.078092,-2.086317
60329,-2.737083,-9.192787,5.258224,-1.432439,-0.012270,-2.048637
60330,-2.772464,-9.849254,5.158550,-1.490977,-0.112538,-2.022154
60331,-2.504926,-10.616379,5.151792,-1.289936,-0.179846,-2.005775
60332,-2.331882,-9.948577,5.615600,-0.999920,-0.218592,-1.995404
60333,-2.067768,-8.529364,5.976664,-0.927013,-0.228383,-1.990469
60334,-1.696016,-7.598667,5.731579,-1.074599,-0.223495,-2.008012
60335,-1.363477,-8.116305,4.770048,-1.251639,-0.252074,-2.013386
60336,-0.621719,-8.646329,4.253991,-1.289877,-0.226655,-2.019968
60337,-0.016561,-9.513388,4.057201,-1.218589,-0.179320,-2.000903
60338,0.285540,-10.642088,4.155232,-0.930168,-0.097116,-1.981145
60339,0.203807,-10.838980,4.659663,-0.502158,0.004884,-1.955281
60340,0.025242,-10.543235,5.198383,-0.101662,0.095528,-1.951180
60341,-0.380192,-9.958376,4.864785,0.230763,0.117018,-1.956450
60342,-0.826712,-8.395827,4.859853,0.323426,0.073566,-1.979814
60343,-0.561668,-7.764782,5.509376,-0.050058,-0.057831,-1.979649
60344,0.313991,-8.118646,6.031276,-0.635819,-0.149421,-1.936873
60345,1.042492,-9.110607,6.225690,-1.159752,-0.203351,-1.867164
60346,1.398243,-10.288742,6.020789,-1.394633,-0.207448,-1.799696
60347,1.415338,-10.291691,5.307619,-1.319421,-0.177738,-1.753681
60348,0.707250,-9.882877,3.928406,-1.191720,-0.187313,-1.732112
60349,0.648724,-10.015017,1.706278,-1.005381,-0.294715,-1.740869
60350,1.287989,-10.570808,1.792701,-0.634067,-0.281983,-1.781586
60351,1.865247,-11.414916,2.941442,-0.064295,-0.197362,-1.810653
60352,2.234721,-10.309178,4.885436,0.292609,-0.043501,-1.775320
60353,2.478799,-8.602920,6.352716,0.099776,0.132905,-1.711777
60354,2.700245,-8.197319,6.110940,-0.366975,0.235074,-1.656942
60355,2.467493,-8.384159,5.198804,-0.811205,0.285439,-1.613562
60356,2.230140,-9.100660,4.268505,-1.071476,0.255430,-1.613328
60357,2.220227,-10.839267,3.575902,-0.976414,0.228883,-1.621740
60358,2.389331,-12.616538,3.135984,-0.434190,0.205704,-1.643054
60359,2.709447,-12.521099,3.378438,0.294176,0.179487,-1.647930
60360,3.101488,-10.106668,3.963049,0.591516,0.136903,-1.594631
60361,3.409524,-7.479528,4.300950,0.278954,0.060268,-1.536307
60362,3.540449,-7.424300,3.025856,-0.220760,-0.081665,-1.495015
60363,4.094390,-8.531740,2.255111,-0.436810,-0.118007,-1.445874
60364,4.027343,-9.214862,2.441371,-0.466578,-0.044820,-1.423500
60365,3.970735,-10.020845,2.754847,-0.306935,0.061409,-1.390607
60366,3.956068,-10.144480,3.681959,-0.073047,0.227723,-1.390928
60367,3.898373,-10.095896,4.352111,0.113440,0.366771,-1.379118
60368,3.638745,-9.162809,4.194803,0.179758,0.405830,-1.362332
60369,3.538364,-7.907881,3.994502,-0.008887,0.339479,-1.339233
60370,3.684857,-7.755558,3.861388,-0.289467,0.223577,-1.335714
60371,3.955207,-8.942371,3.719024,-0.367292,0.115297,-1.343425
60372,4.173740,-10.135771,3.516475,-0.138032,0.044436,-1.347388
60373,4.454263,-9.644287,3.359627,0.188509,-0.005520,-1.357037
60374,4.553479,-7.474656,3.558251,0.217357,-0.046790,-1.351874
60375,4.758088,-6.128364,3.403464,-0.145376,-0.094198,-1.350014
60376,5.120605,-6.416408,2.722094,-0.556601,-0.101850,-1.332605
60377,5.552753,-7.309964,2.802816,-0.836437,-0.004153,-1.299152
60378,5.720913,-8.436824,3.551478,-0.895426,0.188963,-1.262134
60379,5.508100,-8.690138,3.624735,-0.765056,0.375041,-1.245713
60380,5.129448,-8.555706,3.607511,-0.687942,0.520575,-1.242930
60381,4.776628,-9.004533,3.174957,-0.628510,0.554558,-1.250072
60382,4.706497,-9.165398,2.612451,-0.480911,0.487189,-1.273836
60383,4.726930,-8.636313,2.463126,-0.402794,0.353333,-1.293933
60384,5.043849,-8.572929,2.467250,-0.432830,0.186116,-1.292943
60385,5.576960,-9.091701,2.858461,-0.367660,0.072866,-1.283300
60386,5.936396,-8.986014,3.151479,-0.167187,0.022231,-1.262865
60387,6.140552,-7.365078,3.140046,-0.099246,-0.005420,-1.238256
60388,6.305671,-5.896401,2.846141,-0.356227,-0.008971,-1.201805
60389,6.766447,-6.189050,2.363038,-0.712251,0.024602,-1.158117
60390,7.050060,-7.069225,2.712032,-0.917584,0.145303,-1.103369
60391,7.011739,-7.708701,3.031381,-0.868501,0.301593,-1.073741
60392,6.492558,-7.644905,2.798140,-0.776056,0.425096,-1.060102
60393,6.139571,-7.682595,2.957482,-0.763954,0.454140,-1.067708
60394,6.264534,-8.104107,2.921655,-0.746424,0.411650,-1.082923
60395,6.317679,-7.691992,2.510022,-0.708373,0.315491,-1.092366
60396,6.562996,-6.949871,2.457812,-0.797609,0.189324,-1.087890
60397,7.066338,-7.235834,2.600962,-0.950684,0.100983,-1.056280
60398,7.632026,-7.963943,2.676970,-0.941685,0.074859,-1.016687
60399,7.766215,-8.149490,2.527286,-0.809213,0.113842,-0.972493
60400,7.643577,-7.440606,2.242714,-0.673525,0.148100,-0.929839
60401,7.559638,-6.769230,2.121493,-0.655711,0.179675,-0.887909
60402,7.624830,-6.708531,1.983188,-0.712021,0.238876,-0.826337
60403,7.705344,-6.746172,2.249793,-0.708635,0.310049,-0.779225
60404,7.421052,-6.928357,2.663688,-0.677594,0.342589,-0.760211
60405,7.232815,-7.371571,2.939071,-0.557890,0.331224,-0.757672
60406,7.480345,-7.718399,3.051150,-0.286769,0.297562,-0.778388
60407,7.754451,-7.938320,2.680031,0.081821,0.259142,-0.804429
60408,7.779522,-7.303879,2.594827,0.401944,0.227387,-0.809299
60409,7.769280,-6.198807,2.870021,0.515047,0.199438,-0.788489
60410,7.666996,-5.508465,2.888860,0.425622,0.173613,-0.753706
60411,7.792156,-5.214446,2.791050,0.254727,0.158205,-0.702026
60412,7.939539,-4.952713,2.847533,0.006071,0.150997,-0.647988
60413,8.039835,-4.885674,3.088962,-0.217802,0.188768,-0.618705
60414,7.952712,-4.959676,3.096206,-0.432283,0.240952,-0.606893
60415,8.006742,-5.103507,2.894627,-0.631408,0.254821,-0.592395
60416,8.129925,-5.472755,2.584965,-0.759694,0.248867,-0.585318
60417,8.133788,-6.270261,2.401181,-0.702578,0.224720,-0.575874
60418,8.199063,-7.030450,2.415267,-0.446083,0.191198,-0.558072
60419,8.350356,-7.474376,1.987821,-0.056269,0.150649,-0.507538
60420,8.500412,-6.799359,1.607100,0.333840,0.109542,-0.445180
60421,8.717366,-5.371483,1.770678,0.473017,0.075573,-0.354128
60422,8.750909,-4.126962,2.194045,0.295756,0.046981,-0.262474
60423,8.629220,-3.571913,2.292298,-0.092019,0.025383,-0.203349
60424,8.521570,-4.429404,2.041087,-0.516823,-0.002780,-0.150331
60425,8.501574,-5.464331,1.985067,-0.732433,-0.036588,-0.131001
60426,8.474804,-6.099167,1.958844,-0.701382,-0.064186,-0.147522
60427,8.258252,-6.543173,1.980136,-0.450269,-0.085105,-0.184184
60428,8.164450,-6.552829,2.024966,-0.121322,-0.104612,-0.209534
60429,8.107973,-6.043322,2.190152,0.106913,-0.101412,-0.202748
60430,7.901804,-5.516533,2.370301,0.214307,-0.098593,-0.204615
60431,7.836672,-5.112487,2.349335,0.233789,-0.107968,-0.204940
60432,7.776960,-4.826109,2.027874,0.187158,-0.130303,-0.203042
60433,7.930838,-4.860154,2.056410,0.116906,-0.141759,-0.184012
60434,8.410279,-4.869150,3.259772,-0.140046,-0.127164,-0.099510
60435,8.169601,-5.524194,3.050928,-0.470723,-0.130518,-0.051745
60436,8.021654,-6.426826,2.989326,-0.492809,-0.100673,-0.010026
60437,7.990524,-6.579030,2.991328,-0.389686,-0.100088,0.005182
60438,7.957514,-6.683126,2.807333,-0.271648,-0.082303,0.014159
60439,8.076577,-6.808394,2.580039,-0.095157,-0.081116,0.002569
60440,8.387463,-6.677167,2.489706,0.094704,-0.062762,0.014339
60441,8.640545,-6.093800,2.629451,0.229153,-0.054442,0.036904
60442,8.982071,-5.493768,2.852512,0.217142,-0.029486,0.071190
60443,9.313196,-4.818153,2.736899,0.066149,-0.031740,0.117013
60444,9.602358,-4.217302,2.294783,-0.153844,-0.013193,0.156682
60445,9.390818,-4.013828,2.218685,-0.425606,-0.023230,0.191064
60446,9.453758,-4.040937,2.226178,-0.636245,-0.029197,0.211417
60447,9.405789,-3.590426,2.103214,-0.716847,-0.052307,0.222361
60448,9.386820,-2.475923,1.823961,-0.803138,-0.097210,0.247336
60449,9.281535,-2.071414,1.815069,-0.974656,-0.123098,0.269907
60450,8.923895,-2.385850,2.195191,-1.124862,-0.203026,0.291378
60451,8.902259,-3.191482,1.621579,-1.186340,-0.296846,0.339869
60452,8.735291,-4.136718,1.074779,-0.948936,-0.392904,0.319779
60453,8.810132,-4.849568,0.918166,-0.485567,-0.438547,0.261081
60454,8.888323,-4.611967,1.517581,0.023668,-0.459558,0.181038
60455,8.808318,-3.467156,2.598973,0.276368,-0.407688,0.115704
60456,8.522023,-2.732704,2.940053,0.177477,-0.321781,0.067979
60457,8.188021,-2.829592,2.793528,-0.064361,-0.246605,-0.012840
60458,7.911270,-3.222762,2.569675,-0.249973,-0.166643,-0.146125
60459,7.542218,-3.601099,1.989152,-0.292997,-0.113590,-0.322114
60460,7.086611,-3.745610,0.878989,-0.216719,-0.156713,-0.511224
60461,7.332462,-3.891110,0.313419,-0.154314,-0.153494,-0.652169
60462,8.086735,-3.965354,0.665462,-0.215106,-0.090744,-0.715283
60463,8.581067,-4.000660,0.946409,-0.402935,0.005717,-0.751322
60464,8.299360,-4.462732,1.218451,-0.612619,0.055051,-0.759832
60465,8.387265,-4.960289,1.181497,-0.778649,0.062161,-0.771859
60466,8.520994,-5.565330,0.555821,-0.804055,0.012239,-0.801904
60467,8.343127,-6.453091,0.276824,-0.608233,-0.065748,-0.841419
60468,8.034726,-6.905795,0.457646,-0.305220,-0.133253,-0.869702
60469,7.883374,-6.664916,0.688190,-0.056682,-0.144832,-0.872855
60470,8.068499,-6.199765,0.962915,0.041145,-0.144847,-0.871815
60471,8.628826,-5.566761,1.335187,-0.029003,-0.103063,-0.839493
60472,8.843736,-4.740070,1.102974,-0.275866,-0.021347,-0.817642
60473,8.793543,-4.576592,0.490423,-0.578929,0.026129,-0.797404
60474,8.563884,-5.239498,-0.329709,-0.772618,0.079121,-0.780216
60475,7.974876,-5.932979,-0.686701,-0.764610,0.120110,-0.800744
60476,7.436072,-6.547501,-0.166851,-0.610412,0.151290,-0.852012
60477,7.571276,-6.943859,0.524818,-0.404199,0.180017,-0.906771
60478,8.282297,-6.965843,1.175607,-0.167625,0.176670,-0.968117
60479,8.907879,-6.329758,0.984059,0.036462,0.145025,-1.000277
60480,9.174061,-5.355512,0.479876,0.109354,0.104976,-1.013999
60481,9.188599,-4.603512,0.448215,0.015018,0.030344,-1.000474
60482,9.046036,-4.487013,0.597993,-0.190879,-0.010484,-0.941996
60483,8.665250,-4.598798,0.595858,-0.362514,-0.017274,-0.889422
60484,8.651458,-4.505483,0.591818,-0.524055,-0.009351,-0.840106
60485,8.627592,-4.589913,0.009313,-0.717320,0.029545,-0.805985
60486,8.749843,-5.221045,-0.161231,-0.831753,0.071722,-0.773390
60487,8.852585,-5.670138,-0.014091,-0.802126,0.158298,-0.739810
60488,8.708454,-5.294389,0.110958,-0.737113,0.226010,-0.723377
60489,8.583894,-4.621082,0.516717,-0.822994,0.227558,-0.715590
60490,8.942830,-4.478681,0.569723,-1.004539,0.193940,-0.734795
60491,8.946154,-4.788335,-0.032822,-1.050579,0.127970,-0.782203
60492,8.494040,-5.167772,-0.323753,-0.924625,0.035886,-0.833301
60493,8.327901,-5.313988,-0.086100,-0.732318,-0.061020,-0.871557
60494,8.554599,-4.972265,0.030893,-0.546829,-0.110344,-0.879215
60495,8.894476,-4.649396,0.267017,-0.441927,-0.115424,-0.858614
60496,9.090815,-4.549815,0.624364,-0.369240,-0.064745,-0.831302
60497,9.053576,-3.813774,0.092782,-0.407850,-0.034549,-0.797968
60498,9.284054,-3.157803,-0.279558,-0.554147,0.022468,-0.761925
60499,9.348390,-2.914681,0.126213,-0.781448,0.097801,-0.720800
60500,9.048102,-2.945576,0.496140,-1.043387,0.188698,-0.705758
60501,8.430772,-3.503091,0.328671,-1.211422,0.237060,-0.708362
60502,8.220572,-4.491326,0.517892,-1.217815,0.237068,-0.750923
60503,8.620243,-5.502137,0.874606,-1.027264,0.226161,-0.819293
60504,9.097093,-6.252716,0.829690,-0.584981,0.183280,-0.880745
60505,9.400536,-5.591820,0.787066,-0.087558,0.144289,-0.932733
60506,9.512989,-4.003291,0.671693,0.151259,0.077527,-0.950401
60507,9.824174,-3.363053,0.448697,0.095616,0.006771,-0.925585
60508,10.079898,-3.713677,0.376069,0.004551,-0.023405,-0.865439
60509,10.032161,-3.761336,0.503989,-0.047366,-0.020751,-0.794597
60510,9.744405,-3.215777,0.145951,-0.186376,-0.017581,-0.751750
60511,9.553145,-3.076963,-0.376933,-0.356298,-0.025888,-0.693869
60512,9.779017,-3.308888,-0.193078,-0.536639,-0.014181,-0.612102
60513,9.939029,-3.528768,0.227150,-0.689923,0.061715,-0.527872
60514,9.734309,-3.340576,0.493358,-0.821435,0.135793,-0.459095
60515,9.651065,-3.105275,1.005209,-0.993691,0.193318,-0.417550
60516,9.614868,-3.259366,1.560168,-1.156985,0.222073,-0.423141
60517,9.429535,-3.943399,1.288988,-1.084017,0.213544,-0.491858
60518,9.431715,-4.439620,0.977059,-0.822688,0.189755,-0.550902
60519,9.310679,-4.402620,0.449883,-0.437752,0.148716,-0.608450
60520,9.156992,-3.695184,0.045646,-0.108480,0.079088,-0.637896
60521,9.538802,-3.135297,0.212283,0.006359,0.030665,-0.620025
60522,9.748662,-2.411219,-0.116078,-0.006194,-0.000581,-0.578051
60523,9.792310,-1.751129,-0.774025,-0.149136,-0.023046,-0.542428
60524,9.788469,-1.681004,-0.753693,-0.351458,-0.007301,-0.464525
60525,9.971717,-2.042216,-0.203680,-0.523088,0.034679,-0.397689
60526,9.740198,-2.190302,0.057365,-0.649753,0.105373,-0.348544
60527,9.410900,-1.865538,0.187184,-0.771561,0.149788,-0.325416
60528,9.383171,-2.058853,0.566956,-0.978531,0.159506,-0.329442
60529,9.510966,-2.872191,0.793989,-1.103185,0.143902,-0.344126
60530,9.407425,-3.653944,0.377997,-0.969602,0.105505,-0.365658
60531,9.345026,-3.790550,0.161353,-0.674007,0.062409,-0.383042
60532,9.429874,-3.294990,0.024964,-0.394205,0.023091,-0.401807
60533,9.563426,-2.996507,-0.064401,-0.222449,-0.005193,-0.402758
60534,9.666633,-2.861431,-0.063292,-0.101026,-0.018114,-0.385047
60535,9.721672,-2.597301,0.014242,-0.029447,-0.000385,-0.369922
60536,9.571042,-2.342643,0.045438,0.011003,0.048828,-0.359105
60537,9.266088,-2.159018,0.048161,0.016499,0.095042,-0.362938
60538,9.276021,-2.162870,0.126750,0.009979,0.136643,-0.358194
60539,9.427383,-2.138426,0.131010,0.010834,0.164272,-0.364596
60540,9.523813,-2.154605,0.222784,0.014903,0.179432,-0.349232
60541,9.646391,-2.139541,0.376168,0.015784,0.178044,-0.343532
60542,9.770004,-2.108822,0.608207,0.012052,0.157377,-0.322566
60543,9.874988,-1.999850,0.627489,-0.004492,0.142189,-0.297191
60544,9.855443,-1.987310,0.658475,-0.032180,0.114774,-0.277254
60545,9.894402,-1.982817,0.566521,-0.062497,0.094745,-0.259905
60546,9.894233,-2.091132,0.518311,-0.071657,0.082741,-0.250566
60547,9.914445,-2.248100,0.486006,-0.044432,0.074229,-0.244562
60548,9.872270,-2.309656,0.518274,0.025854,0.071325,-0.234401
60549,9.784357,-2.286228,0.566024,0.117035,0.079324,-0.237110
60550,9.716666,-2.182287,0.712387,0.205608,0.083153,-0.236709
60551,9.708271,-2.067159,0.820257,0.259875,0.095737,-0.227539
60552,9.767749,-1.967404,0.909764,0.304219,0.103927,-0.220668
60553,10.009061,-1.726021,1.105286,0.293817,0.131544,-0.207236
60554,10.106625,-1.509706,1.127618,0.237902,0.158023,-0.195848
60555,10.091896,-1.547969,1.107299,0.151636,0.169641,-0.179647
60556,10.108830,-1.733307,1.035479,0.092913,0.176378,-0.157121
60557,10.036479,-1.859495,0.965375,0.090035,0.180802,-0.125914
60558,9.920000,-1.823522,0.949236,0.106738,0.176068,-0.099536
60559,9.899352,-1.766408,0.950348,0.133733,0.167609,-0.077206
60560,9.901999,-1.677667,1.011370,0.171322,0.156010,-0.051646
60561,9.919337,-1.606737,1.045638,0.216761,0.151614,-0.033861
60562,9.963619,-1.573965,1.050964,0.264664,0.145281,-0.025143
60563,9.981550,-1.522090,1.006481,0.311658,0.143470,-0.019227
60564,9.933098,-1.509487,0.970282,0.352727,0.140868,-0.007985
60565,9.876534,-1.414256,0.898852,0.364132,0.139510,0.004916
60566,9.786611,-1.369019,0.837310,0.356016,0.132242,0.014939
60567,9.743845,-1.332352,0.829974,0.339901,0.123347,0.019215
60568,9.763536,-1.320277,0.851343,0.334270,0.117124,0.024006
60569,9.762787,-1.261740,0.852789,0.331863,0.122227,0.023217
60570,9.783043,-1.191841,0.859216,0.313473,0.124371,0.021656
60571,9.736316,-1.068730,0.789120,0.283766,0.128311,0.016419
60572,9.715746,-1.008299,0.635985,0.257419,0.122430,0.002780
60573,9.654091,-1.061534,0.556383,0.238864,0.114835,-0.005590
60574,9.590679,-1.093816,0.554055,0.223905,0.104474,-0.008910
60575,9.558866,-1.056883,0.616837,0.211812,0.095949,-0.011948
60576,9.538272,-1.098412,0.692698,0.210749,0.088007,-0.014597
60577,9.586509,-1.122699,0.681308,0.215625,0.078137,-0.015514
60578,9.598902,-1.083184,0.673547,0.220076,0.070485,-0.017937
60579,9.624014,-1.096561,0.734170,0.234401,0.070213,-0.026227
60580,9.599837,-1.049476,0.745973,0.248386,0.066409,-0.033140
60581,9.641619,-1.020728,0.764533,0.237713,0.056553,-0.046972
60582,9.713211,-0.947345,0.793817,0.211316,0.060558,-0.040173
60583,9.754283,-0.975608,0.828126,0.179099,0.059507,-0.052041
60584,9.756997,-0.991854,0.757663,0.147103,0.056663,-0.049940
60585,9.760949,-0.982429,0.740475,0.120280,0.053175,-0.053095
60586,9.756146,-1.006030,0.716568,0.090956,0.048769,-0.051157
60587,9.727694,-1.019021,0.764417,0.079566,0.038788,-0.045627
60588,9.727317,-1.071389,0.785439,0.072779,0.030253,-0.045086
60589,9.765780,-1.077894,0.893251,0.068843,0.021004,-0.037411
60590,9.836701,-1.063406,0.933904,0.064100,0.019440,-0.030662
60591,9.869295,-1.126484,0.957432,0.070880,0.015709,-0.032572
60592,9.938415,-1.164513,0.890288,0.076331,0.012748,-0.034443
60593,9.926573,-1.139140,0.893540,0.086898,0.015586,-0.035431
60594,9.843554,-1.181564,0.876183,0.092677,0.016141,-0.038649
60595,9.831731,-1.155930,0.879506,0.093530,0.011743,-0.035533
60596,9.869772,-1.131388,0.915302,0.082200,0.007589,-0.034683
60597,9.865733,-1.188130,0.957919,0.079074,0.002955,-0.024670
60598,9.861689,-1.245518,1.000087,0.087189,-0.004084,-0.019768
60599,9.866668,-1.213221,1.030450,0.094200,-0.003668,-0.012297
60600,9.874257,-1.262339,1.000708,0.100271,-0.007962,-0.005389
60601,9.883855,-1.201177,1.060465,0.100306,-0.004673,-0.003219
60602,9.868249,-1.124404,1.068499,0.094697,0.000710,-0.006391
60603,9.876091,-1.116920,1.021840,0.081513,0.002692,-0.003186
60604,9.875267,-1.142714,0.969619,0.078097,0.002915,-0.003295
60605,9.870527,-1.171754,0.941313,0.056148,0.004902,-0.002272
60606,9.841838,-1.189144,0.985524,0.057090,0.007100,0.005112
60607,9.791820,-1.188855,0.953786,0.049082,0.005902,0.009950
60608,9.756399,-1.128977,1.081342,0.046282,0.007332,0.011758
60609,9.711026,-1.099412,1.078989,0.036374,0.008990,0.016813
60610,9.735460,-1.086025,1.061135,0.023911,0.009001,0.018024
