// Start Time: Unknown
// Update Rate: 100.0Hz
// Filter Profile: human (46.1)
// Firmware Version: 4.3.5
PacketCounter,Acc_X,Acc_Y,Acc_Z,Gyr_X,Gyr_Y,Gyr_Z
10580,9.518512,-1.002816,2.162374,0.081258,0.146261,-0.011631
10581,9.348653,-0.678627,1.777543,-0.099572,0.173152,-0.036478
10582,9.373409,-0.904013,1.855302,-0.275204,0.150150,-0.053921
10583,9.333417,-1.448684,1.877534,-0.352862,0.122657,-0.042914
10584,9.003935,-2.147054,1.736089,-0.306581,0.068672,-0.021375
10585,8.953026,-2.362851,1.913911,-0.191864,-0.003707,0.015211
10586,9.132488,-2.586620,2.447884,-0.059170,-0.035632,0.058103
10587,9.214488,-2.691795,3.237298,0.067703,-0.031239,0.106641
10588,9.424552,-2.575091,3.805149,0.181493,-0.017841,0.156132
10589,9.619934,-2.319754,4.108980,0.251929,0.025272,0.182569
10590,9.601900,-2.168698,4.014778,0.253548,0.074062,0.195552
10591,9.596077,-1.957020,3.828263,0.286339,0.105863,0.204040
10592,9.510464,-1.930215,3.415459,0.274362,0.134265,0.195751
10593,9.395345,-1.838562,2.594351,0.265558,0.139592,0.182900
10594,9.320516,-1.662705,1.812698,0.235104,0.109666,0.165212
10595,9.288997,-1.553531,1.470112,0.193952,0.102331,0.147829
10596,9.078115,-1.464036,1.240400,0.112001,0.074795,0.140508
10597,9.057740,-1.388991,1.124234,0.068576,0.027076,0.128977
10598,8.992427,-1.673785,1.112898,0.042212,-0.002882,0.123065
10599,8.684027,-1.993686,1.088425,0.066957,-0.075094,0.147275
10600,8.944222,-2.084432,1.739983,0.080579,-0.129251,0.186355
10601,9.267669,-2.317516,3.190706,0.084560,-0.091967,0.237797
10602,9.458595,-2.701237,4.473698,0.139229,-0.026030,0.285231
10603,9.613716,-2.675361,4.970930,0.240636,0.050507,0.323788
10604,9.642843,-2.382399,5.021689,0.246143,0.087782,0.352529
10605,9.635621,-2.000798,4.611703,0.304472,0.101229,0.339865
10606,9.489193,-1.861890,3.669831,0.314606,0.119514,0.293663
10607,9.252249,-1.981927,2.397563,0.357321,0.077773,0.262431
10608,9.334604,-1.960524,1.523775,0.412597,0.033714,0.228766
10609,9.401086,-1.801094,1.307894,0.446177,0.047995,0.200168
10610,9.160533,-1.756552,1.252004,0.392341,0.044927,0.182325
10611,9.098131,-1.728954,1.279768,0.330009,0.015951,0.174336
10612,8.904412,-1.894383,1.134953,0.261873,-0.016564,0.180672
10613,8.824144,-1.811234,1.231519,0.244783,-0.071561,0.183416
10614,9.051436,-1.689520,1.893752,0.159230,-0.078615,0.196963
10615,9.169624,-1.877438,3.004544,0.060618,-0.025114,0.229882
10616,9.415554,-2.048846,4.166510,0.006845,0.053787,0.261554
10617,9.480338,-2.172481,4.791605,-0.012358,0.140485,0.284583
10618,9.334987,-2.365138,4.618340,-0.010440,0.165231,0.313013
10619,9.371491,-2.740440,4.188690,0.045475,0.113799,0.342749
10620,9.447919,-3.091526,3.471397,0.176098,0.088033,0.362400
10621,9.401702,-3.034130,2.858007,0.309430,0.081790,0.363650
10622,9.247233,-2.989772,2.356083,0.392234,0.064043,0.339812
10623,9.202244,-2.693208,2.155132,0.495488,0.042976,0.327168
10624,9.126996,-2.362640,2.107443,0.491108,0.060081,0.309324
10625,8.894011,-2.107400,1.986047,0.413046,0.082677,0.297603
10626,8.815657,-1.829826,1.717183,0.277963,0.049000,0.298177
10627,8.765176,-2.179373,1.373487,0.150290,0.037289,0.295066
10628,8.598272,-2.568496,1.156119,0.107102,-0.030979,0.316451
10629,8.822056,-2.996128,1.334260,0.105784,-0.073116,0.353105
10630,8.939587,-3.301536,2.341789,0.181349,-0.053393,0.396582
10631,9.036514,-3.325578,3.601558,0.238140,-0.012130,0.441434
10632,9.149103,-3.284269,4.184293,0.309947,0.026882,0.468167
10633,9.247016,-2.832095,4.499820,0.388998,0.056591,0.499772
10634,9.249216,-2.388677,4.611464,0.426302,0.055933,0.510357
10635,9.228728,-2.067509,4.335818,0.430764,0.067581,0.499928
10636,9.071647,-1.870599,3.456107,0.419162,0.068779,0.477263
10637,9.169513,-1.695415,2.637157,0.384765,0.045783,0.429754
10638,9.213145,-1.808404,2.309164,0.337668,0.067594,0.380665
10639,8.922369,-2.080181,1.957422,0.215628,0.093928,0.361589
10640,8.922814,-2.204126,1.663198,0.132740,0.089664,0.325422
10641,9.007955,-2.460151,1.531521,0.036006,0.114100,0.309244
10642,8.845839,-3.135180,1.325436,0.012918,0.094840,0.309971
10643,8.925271,-3.652175,1.480828,0.049780,0.042716,0.344913
10644,9.107280,-3.886194,2.582462,0.077052,0.045614,0.396262
10645,9.268708,-4.051413,4.016611,0.150080,0.096032,0.448773
10646,9.370931,-3.663583,4.929658,0.179105,0.149374,0.487792
10647,9.375261,-3.230964,5.328658,0.150914,0.188221,0.514419
10648,9.364668,-2.880960,5.301973,0.098908,0.201097,0.520500
10649,9.158405,-2.640204,4.709154,0.016977,0.225139,0.514903
10650,8.856799,-2.809664,3.572702,-0.051914,0.214939,0.495922
10651,8.767560,-2.714873,2.695623,-0.075633,0.190731,0.461086
10652,8.752554,-3.005263,2.307900,-0.065085,0.203193,0.429013
10653,8.461020,-3.377311,2.083020,-0.037386,0.178086,0.415600
10654,8.491909,-3.694315,1.861885,0.034599,0.145928,0.407122
10655,8.379149,-3.660541,1.702940,0.127099,0.119676,0.402022
10656,8.311437,-3.716166,1.696919,0.159864,0.066742,0.407367
10657,8.434103,-4.019061,2.204717,0.181789,0.054274,0.437707
10658,8.577657,-4.109031,3.219882,0.188483,0.091984,0.487207
10659,8.755202,-4.193954,4.371493,0.184258,0.146139,0.543955
10660,8.840779,-3.890444,5.026606,0.167210,0.218925,0.592234
10661,8.675075,-3.434640,5.172023,0.064805,0.249629,0.606378
10662,8.591010,-3.179630,4.903448,-0.081716,0.253060,0.619734
10663,8.434474,-3.094925,4.138728,-0.208649,0.247983,0.623020
10664,8.410078,-3.194966,3.125712,-0.251170,0.239915,0.591921
10665,8.502480,-2.895853,2.530606,-0.267355,0.245342,0.557703
10666,8.266447,-3.620238,1.999473,-0.329824,0.242913,0.532367
10667,8.130654,-4.391392,1.721428,-0.200416,0.182551,0.519204
10668,8.128805,-4.440952,1.705775,-0.015626,0.152294,0.497872
10669,7.978774,-4.399926,1.698582,0.131457,0.108620,0.488344
10670,8.094527,-4.252855,1.990470,0.179218,0.057393,0.496230
10671,8.346559,-4.278802,2.947010,0.157766,0.051171,0.517623
10672,8.455060,-4.370510,4.179486,0.108152,0.114675,0.556024
10673,8.428936,-4.285372,4.870721,0.014654,0.166836,0.590837
10674,8.424233,-4.046015,5.316826,-0.087800,0.200049,0.616852
10675,8.355496,-3.837512,5.510490,-0.228978,0.232613,0.631545
10676,8.213603,-3.880715,4.993069,-0.339000,0.258928,0.619460
10677,7.887781,-4.020368,3.754859,-0.403032,0.247431,0.601280
10678,7.765833,-4.164280,2.709459,-0.336326,0.197735,0.560178
10679,7.768316,-4.479977,1.935522,-0.242537,0.160377,0.510490
10680,7.560317,-4.740899,1.235437,-0.081552,0.061567,0.471863
10681,7.653109,-4.764627,0.974682,0.104941,-0.023482,0.430628
10682,7.684072,-4.819312,1.233274,0.221081,-0.075796,0.396774
10683,7.827444,-4.992184,1.838523,0.253110,-0.095381,0.379020
10684,7.938658,-4.966229,2.989592,0.242147,-0.066274,0.397563
10685,8.192959,-4.954128,4.657961,0.166946,0.015048,0.431623
10686,8.249368,-4.647872,5.913780,-0.013536,0.130629,0.475469
10687,8.160730,-4.139318,6.436731,-0.248778,0.209750,0.502007
10688,7.960991,-3.786073,6.056815,-0.505499,0.256493,0.501217
10689,7.604150,-4.018524,4.905106,-0.711612,0.261974,0.493198
10690,7.240860,-4.591418,3.434270,-0.774240,0.205511,0.472382
10691,7.265445,-5.159847,2.404439,-0.657027,0.132690,0.447944
10692,7.192927,-5.734040,1.806791,-0.417090,0.080749,0.441240
10693,7.021579,-6.152159,1.442921,-0.088300,0.002329,0.413266
10694,7.054139,-6.361045,1.442251,0.281526,-0.080128,0.395401
10695,7.235785,-6.250131,1.608861,0.567882,-0.172305,0.396086
10696,7.588729,-5.867982,2.263915,0.708109,-0.217175,0.401037
10697,7.945520,-5.476267,3.433485,0.672017,-0.166747,0.408586
10698,7.975073,-5.097418,4.610681,0.460190,-0.069535,0.415772
10699,7.731849,-4.636589,5.013026,0.165753,0.017585,0.427676
10700,7.443488,-4.259795,4.843569,-0.185584,0.068750,0.450634
10701,7.271886,-4.468502,4.389115,-0.476176,0.122232,0.479792
10702,7.041043,-4.948986,3.931119,-0.660505,0.154021,0.505810
10703,6.963138,-5.637496,3.449365,-0.688875,0.146414,0.534865
10704,6.909562,-6.176539,3.030435,-0.561089,0.110366,0.555545
10705,6.938517,-6.383575,2.788096,-0.324934,0.070662,0.543592
10706,6.966945,-6.476859,2.884960,-0.074794,0.042555,0.524111
10707,6.928482,-6.548773,3.047916,0.132797,0.003076,0.504667
10708,7.026301,-6.375328,3.271875,0.340378,-0.058417,0.492126
10709,7.172747,-5.889697,3.560737,0.488418,-0.102670,0.472665
10710,7.179801,-5.370151,3.797571,0.549489,-0.137572,0.443607
10711,7.386833,-4.837014,3.979007,0.494607,-0.141783,0.401579
10712,7.510682,-4.586214,3.948372,0.376491,-0.120614,0.354316
10713,7.555857,-4.663206,3.812692,0.244136,-0.094989,0.306724
10714,7.623364,-4.942378,3.589469,0.169748,-0.075499,0.278927
10715,7.664623,-5.343360,3.475332,0.153143,-0.053770,0.280726
10716,7.689579,-5.677792,3.370183,0.195395,-0.041973,0.301656
10717,7.693170,-5.969254,3.133933,0.285982,-0.041532,0.329701
10718,7.774153,-6.099949,3.049114,0.387815,-0.059746,0.364265
10719,8.019274,-5.893299,3.079763,0.516534,-0.079905,0.397078
10720,8.192566,-5.492486,3.172337,0.605880,-0.093471,0.398787
10721,8.226343,-5.025602,3.246653,0.623142,-0.113707,0.383335
10722,8.231043,-4.755956,3.338193,0.602410,-0.117191,0.343457
10723,8.191346,-4.507913,3.420373,0.549022,-0.088452,0.290898
10724,8.046752,-4.348385,3.223496,0.489327,-0.080304,0.237648
10725,8.022431,-4.397916,3.045399,0.438792,-0.079559,0.194015
10726,8.001300,-4.734943,3.081395,0.418017,-0.069656,0.173151
10727,7.891503,-5.082874,3.072643,0.423455,-0.062906,0.173902
10728,7.760089,-5.293325,3.071693,0.446660,-0.070905,0.165508
10729,7.945623,-5.090707,3.252111,0.511977,-0.056090,0.128996
10730,8.075961,-4.629933,3.462501,0.498057,-0.000807,0.083310
10731,8.210911,-4.423511,3.441858,0.424998,0.000728,0.043949
10732,8.473325,-4.288461,3.654247,0.344373,0.044073,0.012399
10733,8.534281,-4.250168,3.636362,0.271370,0.063796,-0.012422
10734,8.624637,-4.190789,3.733791,0.210922,0.079048,-0.048206
10735,8.651433,-4.087095,3.899829,0.154842,0.107831,-0.092184
10736,8.591379,-4.133804,4.130161,0.105533,0.125362,-0.139482
10737,8.382148,-4.148425,4.202556,0.064208,0.159666,-0.178966
10738,7.912663,-3.904902,3.920658,0.034278,0.128700,-0.221912
10739,8.179571,-4.089681,3.833299,-0.003454,0.068600,-0.244733
10740,8.633727,-4.223042,3.893953,0.056443,0.143492,-0.291327
10741,8.699532,-3.744188,3.823688,0.110875,0.182535,-0.383226
10742,9.009477,-3.338060,3.856673,0.104553,0.176893,-0.464447
10743,9.266186,-2.983180,4.136503,0.076973,0.162078,-0.540016
10744,9.412491,-2.920104,4.385766,0.033067,0.160561,-0.604105
10745,9.339882,-3.102855,4.702834,-0.012192,0.187611,-0.640146
10746,9.072534,-3.322724,4.929461,-0.018722,0.217677,-0.667180
10747,8.803289,-3.386337,5.060713,-0.009040,0.238689,-0.703999
10748,8.703083,-3.556797,5.264464,-0.002974,0.252155,-0.727984
10749,8.670085,-3.941981,5.449277,0.017327,0.288487,-0.742916
10750,8.586454,-4.268525,5.363070,0.049882,0.315025,-0.756713
10751,8.615707,-4.605461,5.185504,0.102958,0.339054,-0.752560
10752,8.696035,-4.946745,5.092110,0.148214,0.370363,-0.734922
10753,8.648209,-5.212995,4.958524,0.175750,0.408375,-0.721240
10754,8.510684,-5.364460,4.663801,0.198370,0.418870,-0.705811
10755,8.305421,-5.324773,4.264711,0.278328,0.371307,-0.704512
10756,8.264826,-5.189522,3.876496,0.408556,0.289571,-0.714939
10757,8.474013,-5.465520,3.632302,0.492483,0.258882,-0.709980
10758,8.441233,-6.178161,3.612900,0.584356,0.323746,-0.674774
10759,8.018510,-6.582280,3.854283,0.682028,0.380992,-0.612094
10760,7.890402,-6.658491,4.347050,0.707689,0.384976,-0.518234
10761,8.018618,-6.524405,5.261554,0.697077,0.399352,-0.404427
10762,8.158613,-6.067656,6.253595,0.610422,0.446332,-0.295006
10763,8.254521,-5.357303,6.628237,0.514952,0.503629,-0.228591
10764,8.221832,-4.612495,6.392278,0.364069,0.597724,-0.210753
10765,8.061672,-4.063087,5.932257,0.189143,0.705884,-0.241825
10766,7.825590,-3.993686,5.562679,0.028970,0.752594,-0.248523
10767,7.732869,-4.341201,5.011311,-0.035714,0.742108,-0.223449
10768,7.663940,-4.446139,4.508773,-0.007290,0.726771,-0.199520
10769,7.415018,-4.187327,3.841984,0.116915,0.709757,-0.229834
10770,7.407526,-4.094236,3.467687,0.230056,0.670410,-0.259019
10771,7.611907,-4.340144,3.557638,0.243055,0.664303,-0.255072
10772,7.819025,-4.557980,3.894764,0.244498,0.709466,-0.220527
10773,7.968654,-4.464106,4.707960,0.253817,0.767730,-0.190758
10774,7.997554,-4.198087,5.722304,0.168236,0.875609,-0.146638
10775,8.004723,-3.854188,6.392764,-0.018072,0.979261,-0.105333
10776,7.951003,-3.702109,6.514772,-0.255099,1.062535,-0.040824
10777,7.834256,-4.023258,6.513475,-0.458830,1.145827,0.031332
10778,7.637437,-4.391290,6.445145,-0.591345,1.211144,0.088830
10779,7.420471,-4.850362,6.189281,-0.663896,1.274701,0.142543
10780,7.067185,-5.381050,5.851451,-0.644504,1.301022,0.195690
10781,6.775401,-5.869127,5.827212,-0.555956,1.274441,0.261008
10782,6.663001,-6.141272,5.564094,-0.378575,1.263116,0.309572
10783,6.403980,-5.985278,5.225001,-0.159547,1.252179,0.309489
10784,6.127767,-5.726810,4.653664,0.024820,1.172509,0.315766
10785,6.013736,-5.508551,4.383627,0.130334,1.022807,0.338018
10786,6.352892,-5.419134,4.505964,0.162155,0.924798,0.366439
10787,6.672350,-5.274796,4.835140,0.181940,0.946810,0.378176
10788,6.694395,-4.687896,5.712342,0.109372,1.052067,0.365406
10789,6.514504,-4.349562,6.501993,-0.076681,1.133294,0.372691
10790,6.382720,-4.147160,7.061722,-0.291530,1.224239,0.403321
10791,6.312910,-4.195283,7.250594,-0.549070,1.356196,0.486020
10792,6.079331,-4.685225,7.136599,-0.726112,1.484520,0.590864
10793,5.698276,-5.032708,7.206245,-0.862949,1.605351,0.659171
10794,5.342135,-5.633822,7.219468,-0.923024,1.651340,0.734202
10795,5.376518,-6.080396,7.316026,-0.897473,1.695948,0.797100
10796,5.569825,-6.562530,7.131443,-0.821996,1.746353,0.907800
10797,5.354873,-6.840982,7.099806,-0.645491,1.782880,1.022050
10798,4.680251,-6.789772,6.852416,-0.431508,1.734168,1.021681
10799,4.203809,-6.418625,6.561254,-0.269191,1.627302,0.948694
10800,4.134951,-6.146734,6.380028,-0.177635,1.530354,0.864607
10801,4.211395,-6.134830,6.306286,-0.101744,1.455410,0.826640
10802,4.369487,-6.141114,6.262644,-0.001876,1.458276,0.829108
10803,4.365495,-5.872661,6.379084,-0.017916,1.531365,0.832278
10804,4.154126,-5.487728,6.698676,-0.101954,1.617752,0.823188
10805,3.907643,-4.985920,7.046230,-0.265446,1.657754,0.816087
10806,3.924438,-4.948270,7.308089,-0.448031,1.683882,0.823065
10807,3.883079,-4.992527,7.499345,-0.644609,1.750512,0.846472
10808,3.630535,-5.323533,7.594930,-0.809464,1.832683,0.915300
10809,3.318907,-5.705388,7.457091,-0.874202,1.848176,1.009214
10810,2.978570,-6.206167,7.321551,-0.861713,1.845866,1.078929
10811,2.365016,-6.636678,6.787608,-0.812883,1.823269,1.118856
10812,1.925170,-6.829015,6.500579,-0.749703,1.734645,1.123586
10813,1.791568,-6.988209,6.379299,-0.666155,1.614062,1.152119
10814,1.761127,-7.228835,6.180048,-0.511239,1.527290,1.174813
10815,1.758938,-6.867923,6.449053,-0.495747,1.529790,1.186788
10816,1.624620,-6.848524,6.870957,-0.524906,1.533907,1.224470
10817,1.488051,-6.635118,7.165419,-0.597339,1.563917,1.274010
10818,1.468703,-6.572646,7.079210,-0.710462,1.595385,1.336577
10819,1.241761,-6.665699,6.897133,-0.827987,1.612013,1.379134
10820,1.046682,-7.003668,6.858263,-0.963641,1.635069,1.410598
10821,1.055964,-7.016796,7.327013,-1.071747,1.688726,1.445261
10822,0.827822,-7.177751,7.437160,-1.037330,1.698678,1.472301
10823,0.690785,-7.138802,7.474728,-1.017916,1.727953,1.502887
10824,0.237646,-7.469017,7.364034,-0.950507,1.760744,1.519991
10825,-0.365172,-7.486951,7.012370,-0.822275,1.684150,1.537190
10826,-0.683533,-7.612545,6.433649,-0.660297,1.571651,1.520541
10827,-0.813318,-7.759048,5.840553,-0.445887,1.441921,1.492711
10828,-0.811421,-7.603076,5.411199,-0.283574,1.321469,1.452115
10829,-0.431609,-7.191272,5.390042,-0.252085,1.249100,1.391873
10830,-0.384213,-6.547372,5.717545,-0.325007,1.266647,1.313555
10831,-0.742498,-6.052269,6.092846,-0.442925,1.273050,1.234613
10832,-1.072707,-5.951559,6.180198,-0.564520,1.274176,1.205971
10833,-1.327306,-6.085435,6.049166,-0.703087,1.316205,1.195730
10834,-1.659146,-6.544921,5.784271,-0.768424,1.287871,1.203432
10835,-1.565322,-6.807296,5.473478,-0.813777,1.245312,1.197415
10836,-1.517276,-6.747074,5.668317,-0.854553,1.257819,1.180680
10837,-1.679662,-6.649920,6.121148,-0.779716,1.248663,1.174755
10838,-1.788586,-6.468455,6.382895,-0.702285,1.268847,1.160186
10839,-2.308901,-6.580870,6.254889,-0.636963,1.280825,1.127511
10840,-2.756400,-6.769757,5.706480,-0.483910,1.192452,1.088258
10841,-2.944321,-7.021564,5.255940,-0.320849,1.068206,1.031949
10842,-2.989197,-6.923531,4.944142,-0.179080,0.965173,0.967954
10843,-2.844987,-6.566018,4.732068,-0.115202,0.881146,0.909921
10844,-2.790943,-6.292122,4.740083,-0.110961,0.860963,0.854793
10845,-2.774391,-6.080830,4.921554,-0.176923,0.855593,0.815395
10846,-2.771592,-6.079511,4.941190,-0.238151,0.860420,0.764034
10847,-3.073250,-5.868842,4.867910,-0.381631,0.885542,0.706582
10848,-3.335000,-6.033729,4.695400,-0.464989,0.833186,0.654937
10849,-3.213829,-6.193043,4.640895,-0.529762,0.792794,0.613598
10850,-3.203334,-6.317943,4.686099,-0.567031,0.774574,0.588726
10851,-3.000773,-6.567493,4.889310,-0.526309,0.758128,0.560575
10852,-2.942056,-6.432925,5.440838,-0.496813,0.808706,0.546103
10853,-3.532265,-6.265222,5.538379,-0.390276,0.804928,0.502284
10854,-3.982628,-6.374614,5.287021,-0.257440,0.742095,0.443208
10855,-4.368880,-6.551692,4.642654,-0.056229,0.599233,0.361625
10856,-4.157327,-6.672059,4.189092,0.185613,0.436551,0.289589
10857,-3.795184,-6.094563,3.974130,0.322139,0.315133,0.208778
10858,-3.474807,-5.630908,3.962012,0.380320,0.223536,0.122643
10859,-3.220030,-4.989009,3.972116,0.316159,0.180287,0.024164
10860,-3.246757,-4.608122,4.074249,0.192557,0.150171,-0.097646
10861,-3.022329,-4.688705,3.959743,0.111355,0.081703,-0.219968
10862,-3.072525,-4.885930,3.638971,0.018806,0.025086,-0.319601
10863,-3.302020,-5.040192,3.490723,-0.055743,-0.075935,-0.391539
10864,-3.189989,-5.119970,3.658255,-0.025275,-0.206282,-0.449546
10865,-3.098156,-5.405330,4.115383,0.011491,-0.263402,-0.496789
10866,-2.954988,-5.643654,4.827178,0.061390,-0.259023,-0.521608
10867,-3.170574,-5.684497,5.116648,0.153758,-0.276906,-0.537516
10868,-3.281148,-5.902656,5.157214,0.258082,-0.316146,-0.561162
10869,-3.772762,-6.046350,4.672646,0.388537,-0.458169,-0.605389
10870,-3.856768,-6.003235,4.048950,0.528965,-0.713001,-0.730070
10871,-3.282904,-5.851489,3.800533,0.641361,-0.922500,-0.899553
10872,-2.792793,-5.863706,3.753747,0.629034,-1.059531,-1.035803
10873,-2.301090,-6.169778,3.785548,0.628470,-1.164178,-1.098528
10874,-1.952434,-6.321602,4.256599,0.719825,-1.149310,-1.143540
10875,-2.444121,-6.429012,5.191553,0.841375,-1.108211,-1.205451
10876,-2.697025,-6.439913,5.597595,0.891165,-1.138559,-1.276524
10877,-2.578814,-6.458736,5.629571,0.900480,-1.188302,-1.327224
10878,-2.278753,-6.494172,5.445313,0.908316,-1.239154,-1.347561
10879,-1.889688,-6.491043,5.427549,0.847810,-1.256032,-1.353391
10880,-1.712278,-6.590212,5.674919,0.812776,-1.249345,-1.338007
10881,-1.616761,-6.787600,5.792513,0.835004,-1.238870,-1.312311
10882,-1.590620,-6.931231,6.103276,0.849151,-1.217023,-1.332739
10883,-1.997334,-6.930822,6.094470,0.898480,-1.273915,-1.389540
10884,-2.151712,-6.993170,5.890455,1.018202,-1.414588,-1.445291
10885,-1.884445,-6.869028,5.526123,1.130273,-1.592945,-1.528826
10886,-1.028706,-6.625707,5.369197,1.178682,-1.745385,-1.613782
10887,-0.357756,-6.582446,5.326152,1.193758,-1.829654,-1.667259
10888,0.029605,-6.529354,5.796529,1.147844,-1.822791,-1.683907
10889,0.359127,-6.158486,6.500409,1.053956,-1.763384,-1.676404
10890,0.446217,-5.950700,7.263483,0.933572,-1.709788,-1.673126
10891,0.231685,-6.259514,8.032686,0.808651,-1.701349,-1.674256
10892,0.197009,-6.922761,8.360440,0.764830,-1.799669,-1.677397
10893,0.577376,-7.337170,7.945956,0.845029,-2.000494,-1.664477
10894,1.182899,-7.516475,7.456869,0.944861,-2.170009,-1.671207
10895,0.818433,-7.586250,7.030583,1.131789,-2.231368,-1.642352
10896,0.456595,-7.436610,6.785055,1.333058,-2.218428,-1.548196
10897,1.194341,-6.730615,7.085698,1.479259,-2.164953,-1.423573
10898,1.532320,-5.761155,7.484774,1.504688,-2.077591,-1.338757
10899,2.269836,-5.102772,7.995517,1.345262,-1.950541,-1.332749
10900,2.760080,-5.030137,8.146556,1.179186,-1.878930,-1.379300
10901,2.802443,-5.319994,7.524838,1.036644,-1.923007,-1.410734
10902,3.001193,-5.873910,6.584179,0.955654,-2.045771,-1.424076
10903,3.652271,-6.097806,6.333543,0.858257,-2.036369,-1.415006
10904,3.685134,-5.903438,6.922828,0.748989,-1.916322,-1.407325
10905,3.560826,-5.291798,7.849332,0.623588,-1.790350,-1.387118
10906,3.824428,-4.788209,8.809179,0.417928,-1.688276,-1.352403
10907,4.304864,-4.952776,9.379416,0.278444,-1.589354,-1.304986
10908,4.383517,-5.384217,9.489241,0.198117,-1.481187,-1.251268
10909,4.114722,-5.774200,9.209917,0.180266,-1.441639,-1.196649
10910,3.828045,-6.182733,8.683282,0.271901,-1.472643,-1.131848
10911,4.085811,-6.306163,8.022951,0.337353,-1.504114,-1.075735
10912,4.470511,-6.295032,7.636474,0.438723,-1.467848,-1.017759
10913,4.846489,-6.002166,7.592000,0.569023,-1.419341,-0.924767
10914,5.146301,-5.528479,7.584685,0.668059,-1.358575,-0.848772
10915,5.390663,-4.917264,7.673684,0.652199,-1.288169,-0.817116
10916,5.399744,-4.409082,7.614413,0.607057,-1.229260,-0.828184
10917,5.202998,-4.028682,7.188542,0.464784,-1.251369,-0.853106
10918,5.175613,-4.318555,6.690823,0.291101,-1.303277,-0.876799
10919,5.237649,-4.619030,6.246578,0.190303,-1.313188,-0.876277
10920,5.289911,-4.743760,5.904710,0.164218,-1.323914,-0.850781
10921,5.636292,-4.908183,6.052414,0.171325,-1.320682,-0.816074
10922,5.915726,-4.430784,6.824724,0.176743,-1.201003,-0.816227
10923,6.014876,-4.001179,7.918845,0.052589,-1.099308,-0.808173
10924,6.461014,-4.347711,8.336312,-0.021948,-1.062893,-0.747854
10925,6.739260,-4.508209,8.244130,-0.043761,-0.980109,-0.646795
10926,6.402070,-4.778435,7.790340,-0.051601,-0.925966,-0.543470
10927,5.915832,-4.906695,7.083791,0.046525,-0.996863,-0.468288
10928,5.840813,-4.301147,6.283691,0.168740,-1.115859,-0.413287
10929,6.129356,-3.765109,6.391497,0.172452,-1.135760,-0.385704
10930,6.465637,-3.841926,6.833970,0.052054,-1.141228,-0.326601
10931,6.781711,-4.215902,6.750327,0.068604,-1.228731,-0.288086
10932,7.292062,-4.712591,6.517544,0.174512,-1.165572,-0.272927
10933,6.774923,-4.472931,5.929278,0.379749,-1.127765,-0.293659
10934,6.510385,-3.979064,5.119320,0.336533,-1.173337,-0.313109
10935,7.020398,-4.275398,4.833503,0.191549,-1.145995,-0.280148
10936,7.300487,-4.495122,4.763767,0.182998,-1.082037,-0.214394
10937,7.567788,-4.626382,5.169542,0.111608,-0.982858,-0.136865
10938,7.686420,-4.766994,5.940571,0.084710,-0.829444,-0.086801
10939,7.542768,-4.502069,6.671713,0.054011,-0.662412,-0.082578
10940,7.162868,-3.844262,7.315188,-0.050635,-0.513567,-0.114738
10941,6.899538,-3.236497,7.798250,-0.202330,-0.434270,-0.154467
10942,6.871270,-3.266986,7.865811,-0.340576,-0.432602,-0.124089
10943,7.267502,-3.894551,7.365893,-0.327274,-0.444759,-0.046903
10944,7.818961,-4.509947,6.997419,-0.244150,-0.413832,0.064245
10945,7.905483,-5.066611,6.628644,-0.097459,-0.415517,0.154731
10946,7.790698,-5.259160,6.129885,0.143436,-0.465784,0.164689
10947,7.556879,-4.941376,5.610042,0.355934,-0.505708,0.108115
10948,7.456582,-4.609365,5.107651,0.452296,-0.560159,0.071585
10949,6.992575,-4.336218,4.100931,0.561570,-0.660829,0.041393
10950,6.650245,-3.640233,3.350584,0.573515,-0.756337,-0.024998
10951,6.727538,-3.434683,3.046181,0.396593,-0.825000,-0.066840
10952,6.957458,-3.720615,2.887024,0.256791,-0.867953,-0.051983
10953,7.254861,-4.053520,3.140722,0.138296,-0.808733,-0.010543
10954,7.530762,-4.342031,4.018417,0.092903,-0.666125,0.062455
10955,7.593803,-4.419668,5.030441,0.029278,-0.511923,0.157661
10956,7.498524,-4.414304,5.997484,-0.094275,-0.377133,0.245561
10957,7.248372,-4.504075,6.432136,-0.261786,-0.275860,0.340049
10958,7.002347,-4.792067,6.207800,-0.342848,-0.242113,0.426625
10959,6.931700,-4.911350,5.928381,-0.337705,-0.182799,0.493513
10960,7.152107,-4.578518,5.919893,-0.425740,-0.061794,0.495145
10961,7.190460,-4.333760,5.905829,-0.551929,-0.045021,0.492988
10962,7.413389,-4.691731,5.009787,-0.441733,-0.213527,0.545876
10963,7.819470,-5.078708,4.353850,-0.207950,-0.340846,0.587755
10964,7.820606,-5.007207,4.045213,-0.031935,-0.346417,0.577893
10965,7.114107,-4.588796,3.279769,0.104963,-0.434949,0.534663
10966,6.509709,-4.029261,2.103151,0.118485,-0.680458,0.488506
10967,6.701004,-3.647844,1.624763,0.141146,-0.874500,0.418667
10968,7.304511,-3.631868,2.080408,0.171725,-0.902983,0.378127
10969,7.944021,-3.771982,3.362634,0.147504,-0.845759,0.395281
10970,8.661704,-4.006321,5.078538,0.010120,-0.680933,0.477418
10971,8.937804,-4.470082,6.818240,-0.136606,-0.463232,0.608307
10972,8.686035,-4.628644,7.878280,-0.241196,-0.337538,0.710366
10973,8.670899,-4.343101,8.083447,-0.391079,-0.271033,0.763733
10974,8.621349,-4.376547,7.744665,-0.548781,-0.155082,0.780715
10975,8.207135,-4.694109,6.864185,-0.554736,-0.043648,0.763618
10976,7.575534,-4.777787,5.551129,-0.456034,-0.059774,0.715313
10977,7.447167,-4.845863,4.364243,-0.330399,-0.155965,0.661285
10978,7.524183,-5.277509,3.712631,-0.134187,-0.253832,0.635494
10979,7.439473,-5.711758,3.163702,0.119556,-0.358783,0.620171
10980,7.497930,-5.472967,2.938227,0.356972,-0.437690,0.576214
10981,7.548601,-4.830810,2.973480,0.488573,-0.444868,0.519199
10982,7.396811,-4.358362,2.741272,0.497165,-0.485053,0.452471
10983,7.380097,-4.114704,2.545918,0.456386,-0.564477,0.420990
10984,7.654151,-4.175327,2.766644,0.367625,-0.593879,0.414516
10985,8.024034,-4.378682,3.540477,0.295073,-0.547613,0.434621
10986,8.394596,-4.495498,5.054095,0.206287,-0.379939,0.461779
10987,8.580334,-4.669404,6.621025,0.050555,-0.168590,0.526388
10988,8.635463,-4.490231,7.159874,-0.132731,-0.031283,0.609642
10989,8.564050,-4.206530,6.828476,-0.378966,0.070898,0.664146
10990,8.260298,-4.251958,6.076127,-0.543855,0.128036,0.666409
10991,7.695957,-4.698928,4.998119,-0.638598,0.125813,0.626814
10992,7.173745,-5.204310,3.675757,-0.611847,0.074048,0.567777
10993,6.983444,-5.673177,2.769482,-0.427153,-0.033219,0.498840
10994,7.014685,-6.002373,2.376822,-0.193405,-0.100145,0.456952
10995,6.859115,-6.294936,2.317522,0.061408,-0.153454,0.433696
10996,6.916910,-6.000170,2.407649,0.337359,-0.224512,0.382306
10997,7.084169,-5.444800,2.522029,0.488145,-0.230792,0.341480
10998,7.256274,-5.025455,2.714896,0.548466,-0.242001,0.308430
10999,7.492203,-4.765769,3.112381,0.490746,-0.208621,0.316669
11000,7.653859,-4.485630,3.734257,0.325581,-0.152320,0.340644
11001,7.823508,-4.325874,4.801125,0.105397,-0.060593,0.366192
11002,7.960298,-4.393587,5.993994,-0.125364,0.074064,0.410083
11003,7.719778,-4.380964,6.002814,-0.428605,0.165311,0.457781
11004,7.557437,-4.746427,5.240470,-0.684615,0.220589,0.494052
11005,7.251562,-5.506789,4.323654,-0.763649,0.232368,0.513229
11006,6.900858,-6.171234,3.274585,-0.706541,0.145539,0.504591
11007,6.742342,-6.712986,2.558777,-0.525073,0.011468,0.470577
11008,6.762482,-7.252319,2.587024,-0.177805,-0.089210,0.423866
11009,6.723935,-7.373166,2.995997,0.286762,-0.154325,0.372988
11010,6.681044,-7.004535,3.297157,0.654645,-0.188172,0.349552
11011,6.558213,-6.355495,3.124916,0.834578,-0.202447,0.363561
11012,6.696833,-5.456955,2.910051,0.833319,-0.233421,0.368786
11013,6.988310,-4.906360,2.958871,0.673683,-0.222258,0.364435
11014,7.139551,-4.523312,2.929222,0.475262,-0.196543,0.317895
11015,7.311545,-4.330936,3.054805,0.236869,-0.147390,0.284364
11016,7.547106,-4.531619,3.411867,-0.000897,-0.064282,0.279248
11017,7.590808,-4.971878,4.003733,-0.187347,0.032406,0.304385
11018,7.635303,-5.509211,4.682259,-0.372914,0.099763,0.356480
11019,7.656948,-5.913983,4.973229,-0.525428,0.113609,0.400008
11020,7.645126,-6.250635,4.883796,-0.604320,0.112714,0.435966
11021,7.458327,-6.629199,4.280343,-0.572769,0.078920,0.431794
11022,7.259210,-6.770259,3.724670,-0.448694,0.004831,0.381252
11023,7.134004,-6.730943,3.420849,-0.201863,-0.089765,0.305533
11024,7.116493,-6.420720,3.242988,0.132685,-0.160292,0.233879
11025,7.022359,-5.722402,2.914611,0.433582,-0.194873,0.168829
11026,7.010138,-5.197926,2.916944,0.601671,-0.211111,0.132936
11027,6.943081,-4.795211,3.132483,0.608815,-0.214022,0.115442
11028,7.065258,-4.680183,3.555558,0.507343,-0.195395,0.108541
11029,7.164363,-4.812908,3.883668,0.362816,-0.151451,0.116944
11030,7.223436,-4.937745,4.164421,0.205398,-0.099246,0.130524
11031,7.227979,-5.094204,4.331088,0.055721,-0.059271,0.147480
11032,7.135410,-5.274806,4.124833,-0.094364,-0.053041,0.138318
11033,6.937121,-5.646996,3.733744,-0.198079,-0.053654,0.126581
11034,6.740792,-6.207521,3.469644,-0.244818,-0.058900,0.112722
11035,6.527431,-6.889580,3.193537,-0.227542,-0.058186,0.111604
11036,6.304165,-7.727327,2.836743,-0.151453,-0.054591,0.142730
11037,5.984357,-8.344368,2.696448,-0.056603,-0.063861,0.197601
11038,5.617218,-8.163104,2.865777,0.036016,-0.106712,0.239374
11039,5.512177,-7.452480,3.144893,0.024916,-0.139658,0.246619
11040,5.550107,-6.905569,3.315978,-0.085199,-0.138939,0.241078
11041,5.840415,-7.121351,3.422232,-0.195447,-0.067030,0.237140
11042,6.308314,-7.414080,3.426291,-0.224181,0.007603,0.259741
11043,7.100718,-7.459581,3.319390,-0.171810,0.027997,0.295419
11044,7.744585,-7.052256,3.371748,-0.070623,0.023274,0.321968
11045,8.041940,-6.188210,3.586513,0.021853,0.052682,0.341401
11046,7.912950,-4.713159,3.961272,0.042270,0.057748,0.305209
11047,7.962793,-3.900227,4.606455,-0.150841,0.069924,0.270173
11048,7.892055,-4.055166,4.924686,-0.307730,0.070869,0.235728
11049,7.788040,-4.354778,4.891772,-0.381309,0.090703,0.206252
11050,7.798962,-4.957849,4.649834,-0.402016,0.104850,0.202119
11051,7.850798,-5.605647,4.269546,-0.326623,0.107648,0.196063
11052,7.933551,-5.846800,4.006822,-0.160926,0.089660,0.172135
11053,8.252829,-5.775687,4.135962,0.030151,0.060499,0.144779
11054,8.363090,-5.515783,4.276036,0.245691,0.031506,0.107097
11055,8.275637,-5.062797,4.170029,0.410592,-0.028230,0.060357
11056,8.308174,-4.611690,4.014747,0.488625,-0.070656,-0.010460
11057,8.308391,-4.311468,3.777425,0.498205,-0.098641,-0.100890
11058,8.396759,-4.035123,3.656365,0.455513,-0.105733,-0.207033
11059,8.449833,-3.857433,3.650890,0.360617,-0.079960,-0.322880
11060,8.396600,-3.817662,3.675603,0.264361,-0.066169,-0.445574
11061,8.317837,-3.777107,3.490754,0.152175,-0.060298,-0.570165
11062,8.308831,-3.885402,3.129367,0.068301,-0.070714,-0.688743
11063,8.297264,-4.056270,2.804927,0.022007,-0.100237,-0.801504
11064,8.402372,-4.226246,2.502429,0.011679,-0.115051,-0.914817
11065,8.433569,-4.147260,2.354392,0.044793,-0.112098,-1.032304
11066,8.493731,-3.964165,2.428960,0.067611,-0.110530,-1.143002
11067,8.597473,-3.937509,2.679014,0.036873,-0.117771,-1.224276
11068,8.788160,-4.264607,2.690338,-0.034334,-0.132777,-1.248182
11069,8.939125,-4.688657,2.376424,-0.083788,-0.140144,-1.245482
11070,8.898901,-5.012208,2.485054,-0.097154,-0.149143,-1.265715
11071,8.626946,-5.091817,2.964449,-0.139554,-0.169346,-1.312438
11072,8.214323,-5.100580,3.511256,-0.196453,-0.202910,-1.341880
11073,7.967653,-5.496525,4.090772,-0.217756,-0.190246,-1.319418
11074,7.482817,-5.979874,4.296714,-0.199472,-0.149158,-1.267007
11075,6.916322,-6.136996,3.303897,-0.151566,-0.157613,-1.203002
11076,6.681125,-5.893382,1.920932,-0.152826,-0.175347,-1.137094
11077,6.727385,-5.668078,1.157615,-0.147153,-0.216764,-1.119467
11078,7.078061,-5.159557,1.059080,-0.093375,-0.240029,-1.177209
11079,7.529151,-4.608654,1.432051,-0.075220,-0.232374,-1.246836
11080,7.600524,-4.691517,1.276581,-0.070660,-0.279548,-1.256236
11081,7.838578,-5.103829,1.151109,-0.041659,-0.356915,-1.194929
11082,8.227588,-5.076747,1.915066,-0.085548,-0.343423,-1.130242
11083,8.536681,-4.973706,3.669256,-0.188642,-0.255114,-1.111205
11084,8.876932,-4.722813,5.511288,-0.335703,-0.132181,-1.096070
11085,9.122239,-4.349573,6.991270,-0.508938,-0.013515,-1.057419
11086,9.264943,-4.157149,7.362047,-0.648292,0.107654,-0.989097
11087,8.798075,-4.273088,6.205277,-0.707722,0.170251,-0.942305
11088,8.226839,-4.411418,3.978099,-0.726087,0.103651,-0.926273
11089,8.041688,-4.740609,1.954776,-0.605564,-0.065362,-0.939858
11090,8.320572,-5.394497,1.422066,-0.320276,-0.181478,-0.978407
11091,8.436548,-5.573198,1.492304,0.064717,-0.168022,-1.025308
11092,8.340024,-5.033364,1.716362,0.371364,-0.172053,-1.047850
11093,8.728656,-4.447514,2.146530,0.575937,-0.165227,-1.051378
11094,8.863094,-4.063079,2.308197,0.631960,-0.106939,-1.018681
11095,9.001477,-3.544367,2.611976,0.496912,-0.100469,-0.971073
11096,9.420003,-3.053886,3.220570,0.184866,-0.074638,-0.919801
11097,9.712141,-2.467166,4.296081,-0.178863,0.007801,-0.889308
11098,9.692144,-2.254941,5.229081,-0.561514,0.142339,-0.880265
11099,9.413662,-2.436936,5.302016,-0.908959,0.256186,-0.880926
11100,8.974233,-2.810746,4.785356,-1.064748,0.315125,-0.885332
11101,8.434075,-3.390408,3.751086,-1.059396,0.342168,-0.894742
11102,8.003226,-3.772781,2.214054,-0.915419,0.278596,-0.917290
11103,7.952349,-4.268434,1.282304,-0.655682,0.198429,-0.953740
11104,7.953463,-4.465780,1.108981,-0.318841,0.159867,-0.985159
11105,7.981470,-4.148110,1.257617,-0.067654,0.105218,-0.987028
11106,8.412763,-3.625080,1.699859,0.053192,0.067881,-0.974429
11107,8.774434,-3.101808,2.033922,0.022792,0.079645,-0.960398
11108,8.865693,-2.776909,2.074330,-0.110043,0.070092,-0.949369
11109,8.994873,-2.713759,2.084036,-0.317280,0.050383,-0.926606
11110,8.998773,-2.686087,2.210717,-0.562061,0.055582,-0.890967
11111,8.977895,-3.018045,2.562680,-0.764229,0.104514,-0.849673
11112,8.949525,-3.316402,3.193156,-0.910390,0.159765,-0.800815
11113,8.983491,-3.780357,3.989392,-1.015239,0.201375,-0.736437
11114,8.993559,-4.141706,4.474235,-1.004941,0.236456,-0.672905
11115,8.808568,-4.249934,4.297384,-0.910706,0.244345,-0.626654
11116,8.543058,-4.119640,3.207571,-0.809771,0.220482,-0.600485
11117,8.320183,-4.004959,1.931509,-0.703204,0.109543,-0.583731
11118,8.565479,-4.012605,1.291474,-0.500947,-0.021915,-0.573690
11119,8.928118,-3.571775,1.216160,-0.248059,-0.100773,-0.580045
11120,9.128350,-2.775989,1.369067,-0.128283,-0.126657,-0.595322
11121,9.210168,-2.181101,1.572532,-0.188550,-0.138520,-0.595069
11122,9.214756,-2.129389,1.894386,-0.321405,-0.133739,-0.568818
11123,9.224129,-2.224749,2.660817,-0.459391,-0.106712,-0.525897
11124,9.288666,-2.289594,3.536370,-0.660349,-0.054550,-0.483284
11125,9.333103,-2.475158,4.256716,-0.844321,-0.007209,-0.445055
11126,9.393874,-2.900501,4.668915,-0.925117,0.032650,-0.415999
11127,9.374923,-3.249467,4.776951,-0.840053,0.057540,-0.389855
11128,9.202959,-3.428304,4.569321,-0.620062,0.050669,-0.383455
11129,9.015180,-3.286986,4.036323,-0.378081,-0.004886,-0.387823
11130,8.981022,-2.993531,3.259054,-0.147548,-0.071378,-0.408252
11131,8.963410,-2.494868,2.305004,0.035617,-0.123952,-0.445034
11132,9.067832,-2.141917,1.583654,0.158573,-0.167830,-0.484298
11133,9.096608,-1.884602,1.321286,0.201416,-0.180730,-0.482509
11134,9.107232,-1.737935,1.273022,0.170188,-0.197800,-0.474492
11135,9.108108,-1.614427,1.384677,0.063455,-0.195186,-0.463537
11136,9.025071,-1.762546,1.514784,-0.135541,-0.163579,-0.424532
11137,8.809979,-2.110500,1.746706,-0.301121,-0.166655,-0.386929
11138,8.887387,-2.294142,2.150828,-0.444408,-0.161121,-0.341263
11139,9.142752,-2.336659,2.882121,-0.570943,-0.138023,-0.312798
11140,9.322845,-2.427923,3.579082,-0.626808,-0.082769,-0.294904
11141,9.296736,-2.400559,3.799943,-0.602185,-0.045475,-0.277020
11142,9.271131,-2.190427,3.617875,-0.560138,-0.055459,-0.284808
11143,9.365281,-2.265017,3.146237,-0.477002,-0.086024,-0.286248
11144,9.417601,-2.181132,2.690477,-0.309017,-0.117141,-0.291029
11145,9.695012,-2.005983,2.358649,-0.134746,-0.135318,-0.304341
11146,9.738879,-1.409095,1.946122,-0.037182,-0.122078,-0.337961
11147,9.693252,-0.328166,1.469969,-0.107951,-0.105015,-0.388362
11148,9.909655,0.087849,1.471723,-0.300873,-0.076338,-0.435164
11149,9.782893,-0.297998,2.272322,-0.490178,0.007387,-0.438238
11150,9.131999,-0.625481,2.845235,-0.706097,0.084279,-0.420944
11151,8.704994,-0.950760,2.872557,-0.936518,0.083234,-0.393224
11152,8.735604,-1.773592,2.701953,-1.085082,0.069767,-0.360758
11153,8.821687,-3.307420,2.715628,-1.047413,0.057803,-0.303752
11154,8.829964,-4.474688,2.864503,-0.731187,0.047654,-0.220621
11155,8.890776,-4.531686,3.433632,-0.363621,0.026703,-0.126587
11156,9.279476,-3.945513,3.911390,-0.088047,-0.001598,-0.039699
11157,9.499576,-3.350889,3.903954,0.040485,-0.009407,0.018805
11158,9.583488,-2.557575,3.324556,0.117962,-0.022816,0.052309
11159,9.691531,-2.020604,2.733704,0.112483,-0.012351,0.052861
11160,9.724175,-1.607039,2.404073,0.138260,0.010025,0.035455
11161,9.582178,-1.236837,2.261723,0.122881,0.024507,0.008986
11162,9.555919,-1.056361,2.197498,0.080968,0.025627,-0.012457
11163,9.507730,-1.069469,2.247712,0.012400,0.024621,-0.018805
11164,9.492325,-1.209909,2.313959,-0.030221,0.026430,-0.015511
11165,9.376635,-1.312551,2.266591,-0.076552,0.033852,-0.008097
11166,9.312524,-1.409816,2.348852,-0.108242,0.029509,-0.003424
11167,9.254640,-1.626256,2.346648,-0.135445,0.026459,0.004568
11168,9.219846,-1.874127,2.280409,-0.124816,0.012607,0.016673
11169,9.250699,-1.980773,2.225669,-0.066656,-0.006983,0.027316
11170,9.341076,-1.959298,2.273357,-0.023329,-0.020301,0.028421
11171,9.415669,-1.823561,2.316872,0.017527,-0.036893,0.025839
11172,9.466526,-1.663751,2.368131,0.031532,-0.045169,0.021142
11173,9.451107,-1.551983,2.360615,0.019477,-0.046208,0.024257
11174,9.434901,-1.478924,2.313176,0.006937,-0.060448,0.025801
11175,9.491917,-1.537738,2.269324,-0.005881,-0.065290,0.025767
11176,9.499046,-1.526624,2.172713,-0.012483,-0.068807,0.025886
11177,9.485276,-1.540348,2.222612,-0.039786,-0.070003,0.022855
11178,9.471629,-1.554330,2.272133,-0.044310,-0.071850,0.023232
11179,9.446126,-1.565089,2.486704,-0.065396,-0.067438,0.017291
11180,9.418481,-1.652432,2.623343,-0.078505,-0.062865,0.015705
11181,9.437471,-1.793614,2.688872,-0.087028,-0.053377,0.018051
11182,9.406896,-1.926627,2.733111,-0.062878,-0.052530,0.019132
11183,9.439842,-1.994025,2.712527,-0.021807,-0.055153,0.022544
11184,9.498477,-1.913981,2.717445,0.043475,-0.052699,0.023940
11185,9.491457,-1.679352,2.684136,0.090402,-0.042791,0.014838
11186,9.524046,-1.548690,2.630973,0.114810,-0.042778,0.011328
11187,9.534568,-1.611796,2.692661,0.141165,-0.033548,0.017550
11188,9.388787,-1.640497,2.712034,0.154555,-0.021571,0.033258
11189,9.340024,-1.724805,2.736888,0.170934,-0.016525,0.049647
11190,9.377391,-1.869000,2.680129,0.173131,-0.004410,0.055416
11191,9.317340,-2.051997,2.666937,0.204365,0.011452,0.068936
11192,9.286579,-2.114569,2.550376,0.246543,0.024264,0.088094
11193,9.298199,-2.075874,2.486201,0.287535,0.034225,0.108689
11194,9.351022,-1.974356,2.434981,0.315989,0.046479,0.122253
11195,9.405504,-1.927469,2.469918,0.334352,0.056377,0.134939
11196,9.446323,-1.759548,2.553882,0.348131,0.065047,0.144328
11197,9.445194,-1.625151,2.611005,0.337265,0.076347,0.150656
11198,9.473555,-1.595428,2.617433,0.326031,0.085998,0.153557
11199,9.519743,-1.540518,2.674774,0.305319,0.093754,0.166343
11200,9.505950,-1.515578,2.638893,0.300400,0.092765,0.163106
11201,9.517843,-1.474821,2.632775,0.302721,0.096030,0.158538
11202,9.528189,-1.473369,2.589011,0.306282,0.092873,0.154263
11203,9.543210,-1.331112,2.586790,0.318285,0.088074,0.145266
11204,9.539978,-1.275722,2.566168,0.293030,0.086583,0.130806
11205,9.584901,-1.237677,2.513484,0.280045,0.083501,0.119781
11206,9.506365,-1.279559,2.489253,0.258720,0.083514,0.102338
11207,9.511719,-1.233148,2.446482,0.238787,0.081212,0.082034
11208,9.500136,-1.233372,2.423537,0.200056,0.081474,0.063471
11209,9.470135,-1.290906,2.367199,0.167188,0.083525,0.053278
11210,9.347145,-1.464284,2.312478,0.131535,0.078964,0.047206
11211,9.332484,-1.545250,2.214607,0.115767,0.070487,0.041101
11212,9.296103,-1.610775,2.247212,0.123370,0.064917,0.033386
11213,9.221030,-1.608403,2.255961,0.129584,0.057912,0.028004
11214,9.227152,-1.639087,2.313529,0.132709,0.049530,0.028114
11215,9.233848,-1.620385,2.282908,0.134902,0.045618,0.030723
11216,9.209649,-1.565811,2.278533,0.125640,0.040182,0.028148
11217,9.225308,-1.567716,2.350850,0.115047,0.036545,0.032103
11218,9.288032,-1.618833,2.409262,0.102723,0.029725,0.035013
11219,9.300852,-1.654488,2.319695,0.092046,0.021924,0.042188
11220,9.282858,-1.673896,2.326577,0.087381,0.011776,0.049036
11221,9.315606,-1.641907,2.320950,0.100836,-0.001254,0.051683
11222,9.348662,-1.628772,2.385285,0.091310,-0.005233,0.049936
11223,9.340488,-1.600537,2.335192,0.086821,-0.010333,0.046144
11224,9.300680,-1.584669,2.399118,0.076576,-0.015474,0.049277
11225,9.309798,-1.558175,2.414598,0.074067,-0.022598,0.045222
11226,9.321183,-1.508821,2.536441,0.069704,-0.023572,0.038200
11227,9.387976,-1.490232,2.607812,0.055994,-0.021605,0.034101
11228,9.388063,-1.491793,2.606605,0.045654,-0.020246,0.027400
11229,9.390431,-1.470354,2.711944,0.033882,-0.023571,0.018847
11230,9.404611,-1.524895,2.688192,0.015375,-0.012664,0.014028
11231,9.338138,-1.564346,2.685504,0.013005,-0.015682,0.006740
11232,9.352452,-1.617924,2.661771,0.020027,-0.018384,0.000716
11233,9.390279,-1.695366,2.631599,0.035439,-0.019979,-0.002058
11234,9.350323,-1.668040,2.570237,0.052014,-0.014962,-0.005877
11235,9.392270,-1.661777,2.612784,0.061464,-0.013770,-0.012042
11236,9.424709,-1.684070,2.639878,0.068297,-0.007998,-0.012592
11237,9.431333,-1.704781,2.567157,0.059336,-0.002839,-0.010017
11238,9.408259,-1.677565,2.574084,0.065913,-0.008163,-0.011972
11239,9.434960,-1.628535,2.586424,0.061664,-0.002628,-0.010629
11240,9.454104,-1.567639,2.618925,0.050696,0.001264,-0.011978
11241,9.394985,-1.616366,2.598620,0.043323,0.002199,-0.009319
11242,9.386490,-1.614130,2.566054,0.037613,0.002617,-0.006104
11243,9.387512,-1.582505,2.549206,0.046967,0.000107,-0.012734
11244,9.388734,-1.568380,2.603707,0.048513,0.008922,-0.014151
11245,9.354751,-1.582317,2.542318,0.042720,0.005640,-0.011397
11246,9.345397,-1.608946,2.527845,0.050798,0.005848,-0.018938
11247,9.339022,-1.563894,2.531455,0.067516,0.005280,-0.020329
11248,9.322374,-1.577404,2.536986,0.064102,0.002616,-0.021901
11249,9.321771,-1.603588,2.555843,0.061319,-0.000187,-0.017214
