// Start Time: Unknown
// Update Rate: 100.0Hz
// Filter Profile: human (46.1)
// Firmware Version: 4.3.5
PacketCounter,Acc_X,Acc_Y,Acc_Z,Gyr_X,Gyr_Y,Gyr_Z
04828,9.394058,-2.303887,2.007411,-0.041367,0.026655,-0.039779
04829,9.394511,-2.300867,2.008752,-0.048306,0.023873,-0.043688
04830,9.411389,-2.324693,2.023913,-0.046281,0.025353,-0.044631
04831,9.370289,-2.339993,1.995193,-0.043008,0.023530,-0.045137
04832,9.390265,-2.339226,2.011006,-0.037326,0.021534,-0.048061
04833,9.395709,-2.337025,2.046222,-0.031261,0.017920,-0.047625
04834,9.339140,-2.278421,2.092573,-0.029817,0.017834,-0.047140
04835,9.334047,-2.200767,2.115111,-0.035787,0.014996,-0.049122
04836,9.323110,-2.049625,2.158646,-0.071423,0.009265,-0.049731
04837,9.328809,-1.842755,1.905134,-0.108314,0.006862,-0.045940
04838,9.344894,-1.960224,1.738023,-0.165520,0.004157,-0.048943
04839,9.517819,-2.329383,1.885063,-0.207921,0.031177,-0.042232
04840,9.665873,-2.283340,2.145655,-0.255722,0.065020,-0.042142
04841,9.574818,-1.964246,2.369950,-0.323288,0.108292,-0.038953
04842,9.468906,-2.182446,2.427094,-0.440379,0.124289,-0.013648
04843,9.434144,-2.337358,2.441632,-0.510821,0.143888,-0.011352
04844,9.493202,-2.654759,2.500161,-0.544323,0.141846,-0.017701
04845,9.574922,-2.941411,2.815723,-0.545030,0.129652,-0.032467
04846,9.463091,-2.999957,2.943778,-0.562525,0.113466,-0.017477
04847,9.182046,-3.163951,3.064271,-0.528815,0.079231,-0.009708
04848,9.209690,-3.509135,3.143626,-0.397729,0.048907,0.016442
04849,9.308373,-3.526950,3.369200,-0.212360,0.061258,0.039117
04850,9.283827,-2.960047,3.289757,-0.092470,0.102514,0.051536
04851,9.127100,-2.106450,2.928865,-0.117722,0.134875,0.061426
04852,9.008448,-1.425311,2.198627,-0.296467,0.139852,0.065392
04853,9.129060,-1.528761,1.376560,-0.526589,0.142772,0.058214
04854,9.376696,-2.473840,0.986642,-0.650914,0.171622,0.078079
04855,9.451393,-3.058383,1.385859,-0.671811,0.232984,0.110084
04856,9.402821,-3.377881,2.128328,-0.674448,0.291562,0.135543
04857,9.387026,-3.416985,2.658993,-0.664338,0.320195,0.154842
04858,9.274611,-3.041741,3.066148,-0.705688,0.330570,0.168715
04859,9.052859,-2.782454,3.260523,-0.822995,0.303995,0.177349
04860,9.027376,-2.863306,3.344199,-0.965193,0.254161,0.185807
04861,9.045892,-3.150364,3.381289,-1.085079,0.210599,0.205422
04862,8.986414,-3.774858,2.914719,-1.071691,0.144173,0.218375
04863,9.328889,-4.396518,2.888929,-0.909591,0.135591,0.244529
04864,9.319331,-4.208931,2.541325,-0.674464,0.146869,0.263429
04865,9.175701,-3.655668,1.742663,-0.487787,0.147756,0.274300
04866,9.336524,-3.509705,0.948953,-0.366905,0.180301,0.291841
04867,9.405549,-3.467156,0.522157,-0.323110,0.242996,0.315284
04868,9.387198,-3.334072,1.086549,-0.375133,0.322805,0.356568
04869,9.332488,-3.499012,1.860469,-0.501962,0.379752,0.380920
04870,9.209388,-3.471647,2.309901,-0.635035,0.407100,0.404052
04871,8.826661,-3.273809,2.583487,-0.781010,0.381479,0.400272
04872,8.787745,-3.515451,2.845000,-0.922301,0.311223,0.404144
04873,8.770090,-3.953075,2.705020,-0.937937,0.233688,0.397273
04874,8.650035,-4.340470,2.338715,-0.797627,0.145651,0.395452
04875,8.809616,-4.652317,2.219652,-0.564961,0.075676,0.412509
04876,9.286244,-4.606468,2.489243,-0.335698,0.076931,0.433305
04877,9.425808,-3.979322,2.538715,-0.171857,0.105452,0.458955
04878,9.295858,-3.034865,1.605940,-0.141146,0.126714,0.472586
04879,9.341525,-2.633262,0.767815,-0.247564,0.170859,0.500237
04880,9.446822,-2.870145,0.898975,-0.424415,0.238167,0.535310
04881,9.421520,-3.375848,1.678850,-0.628576,0.311015,0.565774
04882,9.277388,-3.885331,2.225692,-0.774537,0.369742,0.580446
04883,8.716107,-4.033030,2.167450,-0.790227,0.356240,0.562328
04884,8.637431,-4.411028,2.284535,-0.726591,0.298981,0.539616
04885,8.817018,-4.652251,2.450330,-0.629227,0.235558,0.517226
04886,8.643676,-4.518929,2.361654,-0.467020,0.146086,0.474882
04887,8.618389,-4.634022,2.077090,-0.269121,0.064654,0.460251
04888,9.007114,-4.728627,2.250371,-0.076252,0.028683,0.470557
04889,9.177502,-4.354643,2.446058,0.072357,0.042893,0.484697
04890,9.076583,-3.417788,2.346594,0.071915,0.057119,0.496388
04891,9.022747,-2.730683,1.451344,-0.077773,0.069513,0.513510
04892,9.078172,-2.947294,0.634482,-0.268457,0.146223,0.550377
04893,9.085222,-3.328638,0.802474,-0.457223,0.232459,0.582462
04894,8.974505,-3.778568,1.769528,-0.657931,0.331345,0.608208
04895,8.656977,-4.167344,2.517064,-0.833252,0.381476,0.591561
04896,8.151757,-4.509687,2.369038,-0.859516,0.334492,0.543080
04897,8.262012,-5.362503,2.412265,-0.748041,0.242518,0.492710
04898,8.365056,-5.973151,2.055955,-0.432112,0.115370,0.439371
04899,8.537510,-5.870237,1.811897,-0.015771,0.015788,0.398832
04900,8.738625,-5.393653,2.018701,0.303839,-0.060214,0.393685
04901,9.159054,-4.726984,2.492311,0.436167,-0.076926,0.424531
04902,9.290527,-4.052846,2.606936,0.413156,-0.064733,0.454367
04903,9.020353,-3.378689,2.317966,0.264738,-0.033369,0.483474
04904,8.915167,-3.071019,1.472113,0.035894,0.008071,0.508348
04905,8.903628,-3.171587,1.031356,-0.227297,0.095517,0.543315
04906,8.645353,-3.356509,1.508061,-0.521765,0.177261,0.568523
04907,8.461834,-3.751174,2.422873,-0.825742,0.247087,0.571952
04908,8.308844,-4.633453,2.681931,-0.992780,0.298051,0.539147
04909,7.933219,-5.309559,2.343285,-0.921636,0.275313,0.469845
04910,7.686914,-5.683074,2.007045,-0.715468,0.206740,0.401356
04911,7.691522,-5.838253,1.901579,-0.466586,0.095572,0.357516
04912,7.878617,-6.082469,1.941177,-0.163313,-0.012745,0.320404
04913,8.182876,-6.252818,2.252806,0.159228,-0.079561,0.312023
04914,8.614059,-5.602767,2.794896,0.388079,-0.096209,0.321767
04915,8.601444,-4.648425,2.836255,0.408088,-0.080982,0.352817
04916,8.358408,-4.064126,2.163830,0.286144,-0.057906,0.381259
04917,8.295046,-4.290283,1.490634,0.097384,0.029956,0.426238
04918,8.410043,-4.461594,1.489181,-0.142357,0.143656,0.470428
04919,8.228608,-4.528018,2.200617,-0.472672,0.247588,0.491492
04920,8.215815,-4.962211,3.031846,-0.825994,0.339253,0.484765
04921,7.928635,-5.549770,2.940864,-1.029773,0.381820,0.431376
04922,7.480542,-6.243945,1.993861,-1.006763,0.356345,0.365412
04923,7.334355,-6.811941,1.769917,-0.818915,0.260206,0.311310
04924,7.435681,-6.979580,1.613305,-0.518265,0.141406,0.265718
04925,7.591285,-7.203460,1.732766,-0.147576,0.056545,0.241715
04926,7.856407,-7.027977,2.044970,0.212888,-0.013436,0.236226
04927,8.212424,-6.242684,2.429581,0.436363,-0.038835,0.266394
04928,8.243987,-5.326519,2.478553,0.445618,-0.027533,0.317267
04929,8.232930,-4.801012,1.678417,0.296054,0.024858,0.367274
04930,8.140896,-4.794718,1.264344,0.044009,0.112392,0.430346
04931,8.050244,-4.660680,1.454809,-0.277362,0.200777,0.489873
04932,7.934363,-4.889204,2.598736,-0.649378,0.304277,0.523260
04933,7.760038,-5.417570,3.101677,-0.950428,0.406585,0.506001
04934,7.153173,-6.115893,2.230853,-1.008343,0.428315,0.439389
04935,6.771777,-6.728663,1.440124,-0.813445,0.338513,0.349521
04936,7.113522,-6.595337,0.809158,-0.567654,0.255900,0.269508
04937,7.262436,-5.939940,1.441510,-0.413512,0.163697,0.205174
04938,7.446969,-5.705249,2.421118,-0.339043,0.104967,0.163651
04939,7.662579,-5.882121,2.874789,-0.240745,0.151584,0.137154
04940,7.686344,-5.856379,2.886168,-0.093044,0.240244,0.109323
04941,7.632778,-5.314554,2.669502,-0.004342,0.313810,0.097252
04942,7.497170,-4.485830,2.453612,-0.132521,0.408394,0.086556
04943,7.151882,-4.327636,1.660423,-0.528890,0.384688,0.097669
04944,7.350835,-5.156979,0.994038,-0.906166,0.339883,0.131418
04945,7.541276,-6.343071,0.894888,-1.100260,0.331123,0.158258
04946,7.471421,-6.890172,1.230074,-1.102158,0.343449,0.168967
04947,7.104825,-7.067671,1.774021,-1.023114,0.344285,0.160559
04948,6.585459,-7.605376,2.106438,-0.806914,0.216184,0.113695
04949,6.893167,-8.159203,2.164008,-0.395632,0.083589,0.057755
04950,7.289775,-8.090049,1.994420,0.149240,0.025339,0.008011
04951,7.504371,-6.862873,1.940924,0.561614,-0.028357,-0.012792
04952,7.709816,-4.895340,1.641685,0.595374,-0.062539,0.015846
04953,7.946317,-4.054118,0.690632,0.348386,-0.054688,0.064709
04954,8.081977,-4.456520,-0.340500,0.075995,0.027885,0.128365
04955,8.004655,-4.968790,0.336383,-0.145373,0.186036,0.198990
04956,7.963588,-5.290781,1.876993,-0.389580,0.346176,0.238554
04957,7.643907,-5.420265,2.773323,-0.612239,0.463364,0.228521
04958,6.849285,-5.789958,2.233775,-0.670603,0.453303,0.163567
04959,6.508675,-6.506772,2.072248,-0.555381,0.346663,0.063685
04960,6.948254,-6.830262,2.420657,-0.369411,0.189832,-0.029048
04961,7.129832,-6.783473,2.174451,-0.104750,0.063309,-0.101489
04962,7.488974,-6.670460,2.193762,0.131975,-0.031375,-0.115912
04963,7.741651,-6.164611,2.243091,0.212645,-0.064067,-0.094389
04964,7.791410,-5.602308,1.932322,0.145664,-0.092880,-0.048715
04965,7.564553,-5.071453,0.233214,0.030832,-0.099005,-0.006104
04966,7.337342,-5.314780,-0.190373,-0.080570,-0.072018,0.069936
04967,7.568703,-5.868857,0.693000,-0.103032,0.018032,0.140734
04968,7.686155,-5.891183,2.084549,-0.090859,0.149679,0.168027
04969,7.418010,-5.981837,2.973555,-0.091878,0.214995,0.157817
04970,6.854227,-6.710439,2.741143,-0.031990,0.188047,0.108311
04971,6.632110,-7.181988,2.021097,0.233136,0.114202,0.029351
04972,6.706812,-6.910235,1.899695,0.526918,0.045121,-0.041962
04973,7.048449,-6.215025,2.109022,0.661476,0.003210,-0.082306
04974,7.301104,-5.566323,2.077914,0.606982,-0.009335,-0.098722
04975,7.472080,-5.677567,1.525961,0.507714,0.016479,-0.105348
04976,7.405699,-5.705683,1.152810,0.480740,0.043834,-0.112180
04977,7.255305,-5.712784,0.755596,0.491300,0.039903,-0.107568
04978,7.156318,-5.820837,0.999612,0.551387,0.024175,-0.110533
04979,7.064860,-5.963886,1.448953,0.656457,0.007079,-0.119198
04980,7.030480,-6.299594,1.692940,0.817163,-0.004112,-0.132306
04981,7.128738,-6.500942,1.848133,0.974429,-0.012269,-0.140452
04982,7.446306,-6.372972,1.872114,1.077108,-0.007460,-0.133976
04983,7.591935,-5.822470,1.934018,1.106553,0.009839,-0.118706
04984,7.626166,-5.007180,1.813918,0.979507,-0.013880,-0.097463
04985,7.662917,-4.869230,1.624982,0.744678,-0.034552,-0.074265
04986,7.664404,-5.540031,1.761214,0.596503,-0.050403,-0.061251
04987,7.719398,-5.878937,1.851446,0.616813,-0.065740,-0.055125
04988,7.780845,-5.859111,2.109742,0.701315,-0.061705,-0.063229
04989,7.831409,-5.860297,2.320735,0.784609,-0.056129,-0.064367
04990,7.974480,-5.734961,2.454345,0.884841,-0.067501,-0.079029
04991,8.176286,-5.171782,2.610633,0.937225,-0.086252,-0.083603
04992,8.386598,-4.279028,2.909212,0.824863,-0.089135,-0.069357
04993,8.497309,-4.047326,3.128710,0.536521,-0.097357,-0.032853
04994,8.674343,-5.111658,2.932116,0.275485,-0.088210,0.002482
04995,8.771598,-6.578110,2.664826,0.317533,-0.022847,0.029093
04996,8.634824,-6.643355,3.034735,0.554434,0.037311,0.042570
04997,8.491047,-5.618300,3.700026,0.646296,0.059917,0.073976
04998,8.545051,-4.751018,4.143033,0.496169,0.057878,0.102544
04999,8.709195,-4.837172,4.649261,0.208516,0.030810,0.116234
05000,8.522417,-5.861786,3.274853,0.215547,-0.065622,0.126443
05001,8.432933,-5.785440,2.868044,0.372579,-0.098889,0.152790
05002,8.818467,-5.469061,2.754324,0.485167,-0.159024,0.177945
05003,9.474184,-6.386848,2.966506,0.628183,-0.147528,0.227496
05004,9.735982,-6.772261,3.219141,0.894734,-0.138635,0.299797
05005,10.038126,-5.982196,3.761623,0.968723,-0.098620,0.432323
05006,10.095365,-5.626623,3.627139,0.782150,-0.104243,0.624582
05007,9.734077,-5.319964,3.553398,0.495059,-0.137562,0.821860
05008,9.303303,-5.296555,3.455550,0.111713,-0.207188,1.041981
05009,9.059110,-6.359577,3.175636,-0.167573,-0.297480,1.232911
05010,9.016034,-7.943366,3.138458,-0.113222,-0.372802,1.365899
05011,9.344909,-8.765286,3.785634,0.194386,-0.433591,1.462649
05012,9.919370,-8.755329,4.205787,0.547054,-0.452253,1.545844
05013,10.023416,-8.413002,4.288169,0.832506,-0.449822,1.614738
05014,9.502942,-7.891610,4.325091,0.992517,-0.481133,1.652449
05015,8.957305,-7.415634,4.517612,1.036007,-0.505527,1.686624
05016,8.275292,-7.046132,3.975391,0.987557,-0.516073,1.696869
05017,7.655217,-6.784261,2.710991,1.000347,-0.513816,1.671252
05018,7.893130,-7.115950,2.310919,1.095763,-0.444202,1.677556
05019,8.413483,-7.271755,2.573184,1.065837,-0.310118,1.735338
05020,8.466706,-6.955081,2.983737,0.801769,-0.208045,1.812667
05021,7.676145,-6.303875,3.576040,0.318599,-0.134419,1.866806
05022,6.776624,-6.859791,3.885157,-0.191264,-0.156786,1.888295
05023,6.233752,-8.081409,3.852106,-0.421124,-0.268317,1.858854
05024,6.115862,-9.276534,3.820966,-0.227440,-0.407731,1.767525
05025,6.053112,-9.953510,4.105439,0.249488,-0.495582,1.684247
05026,6.334036,-9.876195,4.636545,0.703399,-0.474573,1.661319
05027,6.081423,-9.238495,4.402877,0.934087,-0.388604,1.678449
05028,5.781903,-8.343267,3.561197,0.995894,-0.348490,1.678233
05029,5.832865,-7.389970,2.454788,0.934926,-0.291099,1.671576
05030,6.240362,-7.377997,1.937203,0.722484,-0.149149,1.715781
05031,5.926338,-8.135036,2.441352,0.474973,0.026605,1.743707
05032,5.150039,-8.646670,3.243754,0.351416,0.190111,1.762153
05033,4.113916,-8.103372,4.020517,0.272840,0.295202,1.723762
05034,3.720652,-7.546820,4.458652,0.101627,0.329753,1.671645
05035,3.548960,-7.891202,4.018214,-0.059434,0.248798,1.625391
05036,3.701557,-9.237590,3.201802,-0.050114,0.111749,1.594166
05037,3.892699,-10.284735,3.047860,0.215749,-0.024781,1.571926
05038,4.194709,-10.004624,3.748579,0.603410,-0.090133,1.554134
05039,4.005003,-8.839561,3.542984,0.906958,-0.107987,1.511110
05040,3.566917,-7.872499,2.584243,1.110026,-0.166697,1.455921
05041,4.210751,-7.476443,2.843678,1.041947,-0.098342,1.487525
05042,4.832421,-7.681564,3.630878,0.675386,0.048448,1.566942
05043,4.610351,-9.058641,4.263082,0.323068,0.240112,1.652505
05044,3.505910,-9.605965,4.799433,0.249873,0.430291,1.683270
05045,2.251753,-9.043903,5.164577,0.313291,0.564290,1.668482
05046,1.744844,-9.088069,5.332506,0.367257,0.610508,1.642991
05047,1.823015,-9.838945,4.391474,0.489147,0.575269,1.610196
05048,1.782766,-9.688236,3.794920,0.674859,0.478158,1.603710
05049,1.931976,-8.837726,4.085604,0.686027,0.351720,1.608404
05050,2.012865,-8.007389,4.457679,0.471011,0.230021,1.604806
05051,1.965978,-7.920398,3.809688,0.175970,0.118228,1.596059
05052,2.093506,-8.366290,3.123167,0.034607,0.020034,1.589851
05053,2.765063,-9.762460,3.246089,0.112536,0.046068,1.608591
05054,3.229383,-11.424278,3.750878,0.411506,0.225078,1.675161
05055,2.587039,-12.084259,4.483930,0.967917,0.424146,1.760739
05056,1.441715,-10.645903,5.158011,1.427376,0.622701,1.827041
05057,0.358219,-8.308519,5.678993,1.369690,0.722406,1.877691
05058,0.106589,-7.821739,5.687676,0.938142,0.704085,1.896968
05059,0.123880,-8.669931,5.190599,0.547565,0.605364,1.931036
05060,0.197161,-9.445136,4.776268,0.378454,0.473857,1.947987
05061,0.544692,-10.136502,4.784003,0.376851,0.357264,1.990418
05062,0.593680,-10.302916,4.660438,0.527496,0.271235,2.003170
05063,0.298233,-9.619712,4.164070,0.711443,0.191692,2.021524
05064,0.301741,-9.164536,3.622065,0.776591,0.123467,2.070795
05065,0.422550,-9.395061,3.904920,0.846880,0.136387,2.127134
05066,0.135563,-10.440566,4.532024,1.049885,0.167931,2.182049
05067,0.004354,-10.594724,5.286328,1.369524,0.252065,2.258567
05068,-0.375030,-9.247021,6.294010,1.437835,0.358722,2.341595
05069,-0.800579,-8.287227,6.616971,1.198074,0.418926,2.421490
05070,-1.302308,-8.746209,6.139324,0.977637,0.410367,2.469814
05071,-1.567030,-9.223750,5.858865,0.970528,0.374121,2.504432
05072,-1.636332,-8.937697,5.739607,1.061998,0.326508,2.539358
05073,-1.540483,-8.413238,5.798867,1.152259,0.298592,2.558473
05074,-1.949873,-7.730886,5.409293,1.226211,0.278446,2.554070
05075,-2.461418,-6.835249,4.740588,1.219286,0.210597,2.529611
05076,-2.472596,-6.507554,4.537600,1.190229,0.173851,2.503522
05077,-2.487055,-7.198388,5.075986,1.235718,0.207159,2.481732
05078,-2.669960,-7.684131,6.032073,1.459356,0.296007,2.479692
05079,-2.863646,-7.450170,6.948153,1.682226,0.442105,2.475569
05080,-3.013876,-6.158913,7.395137,1.767661,0.582281,2.492315
05081,-3.304323,-5.286264,7.101515,1.633854,0.650564,2.505652
05082,-3.842858,-5.497359,6.162335,1.447810,0.635164,2.508428
05083,-4.430165,-5.681854,5.612746,1.335609,0.549748,2.496476
05084,-4.634306,-5.821370,5.835737,1.279240,0.448917,2.479845
05085,-4.686403,-5.255122,6.327700,1.267567,0.363289,2.440182
05086,-4.911882,-3.980151,6.485854,1.130279,0.271840,2.395723
05087,-5.152229,-3.276180,5.773856,0.951388,0.164057,2.328384
05088,-5.270646,-4.116623,4.724922,0.977970,0.061777,2.238860
05089,-5.092649,-5.177367,4.819309,1.323448,0.017855,2.177008
05090,-4.689424,-5.439576,5.998211,1.784391,0.069295,2.149635
05091,-4.652102,-4.501761,6.925941,2.048938,0.204353,2.146098
05092,-4.937984,-3.388801,7.935018,2.058956,0.357660,2.128944
05093,-5.147396,-2.969799,8.362210,1.913244,0.463970,2.109224
05094,-5.520855,-2.812407,7.968966,1.771106,0.513930,2.077360
05095,-5.613937,-3.068282,7.444373,1.642264,0.491985,2.053236
05096,-5.429846,-3.205726,7.011519,1.542978,0.451507,2.062388
05097,-5.407860,-2.878685,6.811154,1.467810,0.403451,2.077620
05098,-5.754538,-2.447334,6.547249,1.387476,0.334701,2.056637
05099,-6.117801,-1.340645,5.420310,1.259574,0.227656,2.026710
05100,-6.278563,-1.011889,4.268894,1.143734,0.087912,1.930478
05101,-5.625413,-2.216417,4.165232,1.294954,-0.007510,1.844694
05102,-4.905520,-3.199981,4.882907,1.768725,0.028641,1.782534
05103,-4.606134,-2.323559,6.258781,2.241914,0.155728,1.760988
05104,-4.443021,-0.846858,7.767644,2.345110,0.312149,1.750100
05105,-4.827109,-0.266445,8.275010,2.164894,0.452850,1.743445
05106,-5.800912,-0.285715,7.708548,1.985508,0.538851,1.721028
05107,-6.095865,0.504174,7.211411,1.787917,0.533438,1.683772
05108,-5.609317,1.010481,7.366797,1.500616,0.514148,1.649419
05109,-5.285878,0.863669,7.171244,1.274754,0.513494,1.602816
05110,-5.476856,1.196777,6.549253,1.152168,0.490213,1.547910
05111,-5.759895,1.687564,5.665031,1.002663,0.427461,1.494960
05112,-6.224878,1.828602,4.262626,0.877351,0.311259,1.384642
05113,-6.375331,1.585636,3.722005,0.943480,0.168412,1.243656
05114,-5.738456,1.175713,4.053144,1.202308,0.076880,1.124113
05115,-4.846218,0.828577,5.314583,1.501904,0.094072,1.040574
05116,-4.230438,1.089510,6.592175,1.690247,0.184061,0.993403
05117,-4.358689,1.282227,7.108983,1.754254,0.285841,0.975445
05118,-5.173302,1.707063,6.559754,1.702181,0.333831,0.953569
05119,-5.711521,2.426208,6.079424,1.467924,0.295554,0.922803
05120,-5.581493,2.835041,6.127763,1.174231,0.213976,0.875539
05121,-5.224551,3.078291,6.149523,0.930488,0.139793,0.826909
05122,-5.470328,4.011566,5.530482,0.674306,0.055983,0.786032
05123,-6.049811,5.347999,4.247561,0.303908,-0.079033,0.719933
05124,-5.786481,4.756876,3.430787,-0.046290,-0.259518,0.522451
05125,-5.010770,2.726547,3.555575,0.022799,-0.329906,0.381409
05126,-4.592418,1.925196,4.391361,0.397698,-0.334358,0.265412
05127,-4.282237,2.554336,5.625918,0.636943,-0.271326,0.164394
05128,-4.221966,3.204986,6.587521,0.557341,-0.171764,0.099258
05129,-4.597887,3.647596,6.519928,0.216699,-0.092246,0.050589
05130,-5.054712,3.855057,6.078398,-0.178623,-0.061281,-0.007493
05131,-4.761396,3.446382,6.282890,-0.503679,-0.056595,-0.051983
05132,-4.501972,3.355006,6.439403,-0.716300,-0.050348,-0.095961
05133,-4.801210,4.401583,6.030452,-0.946469,-0.086067,-0.146127
05134,-4.939066,4.992311,5.121515,-1.312506,-0.163091,-0.221417
05135,-4.848685,3.869305,3.887797,-1.567594,-0.256015,-0.312908
05136,-4.588873,2.038778,3.635916,-1.459730,-0.305720,-0.405333
05137,-4.328220,0.690249,4.328506,-1.005582,-0.281062,-0.481858
05138,-4.247077,0.311143,5.435339,-0.496485,-0.191400,-0.546926
05139,-4.534440,0.859391,6.473237,-0.169758,-0.078356,-0.586566
05140,-4.854613,2.077326,7.044468,-0.199888,-0.011526,-0.628378
05141,-5.372424,3.062307,6.911409,-0.552381,0.006875,-0.672567
05142,-5.706072,2.835927,6.277983,-0.941661,-0.054258,-0.719871
05143,-5.680949,1.853230,5.676639,-1.147414,-0.136326,-0.765915
05144,-5.819207,0.857571,5.377300,-1.160890,-0.229686,-0.789387
05145,-6.215853,0.745024,4.795461,-1.160871,-0.343564,-0.805351
05146,-6.615352,0.332205,4.304338,-1.192589,-0.460975,-0.831088
05147,-7.055001,0.089487,3.811574,-1.157786,-0.621938,-0.839506
05148,-6.696648,0.384760,5.124767,-1.115225,-0.711466,-0.860458
05149,-5.873700,0.595974,6.573774,-1.114370,-0.727004,-0.889663
05150,-5.269871,0.887126,8.391203,-1.159586,-0.638579,-0.895813
05151,-5.025016,0.982976,10.189796,-1.336343,-0.489005,-0.873876
05152,-5.015127,0.382396,10.223259,-1.525625,-0.292854,-0.842221
05153,-5.284069,0.025242,9.460630,-1.601642,-0.093635,-0.840573
05154,-5.427778,-0.269528,8.607363,-1.583927,0.038250,-0.868789
05155,-5.460303,-0.625264,7.594445,-1.443796,0.122639,-0.924767
05156,-5.796483,-0.166793,6.626211,-1.322884,0.132918,-1.001617
05157,-5.972076,0.535944,6.632478,-1.425178,0.033334,-1.090696
05158,-5.743960,0.740200,7.614804,-1.723365,-0.080317,-1.156027
05159,-5.792845,0.385823,7.804720,-2.015661,-0.177170,-1.207541
05160,-5.851489,0.051697,6.975707,-2.205877,-0.255489,-1.255331
05161,-5.375010,-0.806860,6.045049,-2.293918,-0.292331,-1.294677
05162,-4.898806,-3.001046,5.514010,-2.095906,-0.221554,-1.370864
05163,-4.737939,-4.589988,5.810637,-1.485423,-0.091017,-1.422442
05164,-5.092021,-3.714464,6.374643,-0.936654,0.051093,-1.451800
05165,-5.350362,-2.114392,7.031983,-0.850587,0.152536,-1.494887
05166,-5.674814,-1.323926,6.902731,-1.083110,0.157175,-1.542512
05167,-5.848155,-0.841740,7.173342,-1.492908,0.068265,-1.568895
05168,-5.609039,-1.435558,7.501953,-1.921352,-0.062979,-1.599426
05169,-5.435882,-3.062780,7.231202,-2.148269,-0.169693,-1.626460
05170,-4.886057,-4.863323,7.108984,-2.077203,-0.219187,-1.629006
05171,-4.469239,-4.835952,7.378049,-1.929335,-0.207251,-1.626879
05172,-4.639421,-3.468507,6.970555,-2.027831,-0.194799,-1.624751
05173,-4.870222,-2.529796,7.137064,-2.358146,-0.194988,-1.648949
05174,-4.859793,-3.587051,6.430883,-2.565785,-0.233213,-1.669121
05175,-4.819865,-5.640040,6.046283,-2.428891,-0.160765,-1.677969
05176,-4.941777,-6.952339,6.491215,-1.982807,-0.043937,-1.686926
05177,-4.930489,-7.387817,6.728670,-1.362108,0.110823,-1.640579
05178,-4.894670,-6.610962,7.604124,-0.790616,0.299445,-1.642186
05179,-4.915203,-5.724218,7.794900,-0.514944,0.427522,-1.657696
05180,-4.899484,-4.898112,6.999768,-0.498335,0.500392,-1.686386
05181,-5.105012,-3.823324,5.733980,-0.713047,0.460228,-1.760165
05182,-5.336732,-3.643017,5.415339,-1.146911,0.287594,-1.831809
05183,-5.120098,-4.649991,5.490557,-1.585299,0.076939,-1.878132
05184,-4.622747,-6.188322,5.566691,-1.807629,-0.118359,-1.915886
05185,-4.127281,-8.100689,5.894046,-1.717287,-0.215933,-1.903385
05186,-4.066262,-8.350417,5.819988,-1.385556,-0.239665,-1.884930
05187,-4.415279,-5.961303,5.486479,-1.185517,-0.315796,-1.896915
05188,-4.402172,-4.321648,5.337221,-1.424908,-0.413862,-1.926900
05189,-3.459518,-5.205806,5.054227,-1.667633,-0.438078,-1.961207
05190,-2.689064,-7.028206,5.130815,-1.564412,-0.340933,-1.987808
05191,-2.370559,-8.282862,6.332584,-1.268905,-0.128659,-1.975826
05192,-2.500982,-8.409177,6.499024,-0.975741,0.088572,-1.956971
05193,-2.714476,-8.139153,6.360563,-0.900523,0.299789,-1.939510
05194,-3.078357,-8.382348,5.030178,-0.930982,0.412026,-1.915004
05195,-3.238764,-8.194446,3.691148,-0.884367,0.390234,-1.916340
05196,-3.383779,-7.589714,3.176899,-0.828519,0.251360,-1.944477
05197,-3.295723,-7.840991,3.524825,-0.712440,0.053350,-1.999552
05198,-2.861574,-8.583420,4.179446,-0.403253,-0.153409,-2.046127
05199,-2.326814,-8.890111,5.275104,-0.037597,-0.304820,-2.067524
05200,-1.602476,-8.346164,6.988082,-0.084659,-0.365045,-2.007494
05201,-1.454653,-6.503803,7.283807,-0.708006,-0.371172,-1.932139
05202,-1.637277,-5.445547,6.579279,-1.618130,-0.415092,-1.891890
05203,-0.920562,-6.839396,5.229506,-2.305734,-0.392428,-1.853176
05204,-0.325796,-10.009466,4.145154,-2.318232,-0.226042,-1.830889
05205,-0.265732,-13.016469,3.639261,-1.563790,0.006984,-1.843997
05206,-0.734147,-13.636334,4.332483,-0.380799,0.272579,-1.717734
05207,-1.297612,-11.563238,5.172555,0.554330,0.472068,-1.680833
05208,-1.616078,-9.216604,5.665003,0.896383,0.547498,-1.672034
05209,-1.551048,-7.177220,5.861844,0.569564,0.472299,-1.659921
05210,-1.266159,-6.031693,5.677246,-0.247966,0.293349,-1.684921
05211,-0.728094,-6.540137,5.034444,-1.157119,0.053805,-1.694993
05212,-0.018974,-9.525965,4.082207,-1.659062,-0.164531,-1.681443
05213,0.264532,-12.419672,3.220514,-1.362891,-0.316092,-1.665488
05214,0.420498,-12.310638,2.986001,-0.603347,-0.441174,-1.639849
05215,0.568207,-10.469030,3.457321,-0.044654,-0.466909,-1.624614
05216,0.053287,-9.268008,3.619777,0.259833,-0.476804,-1.643473
05217,0.220543,-8.698239,3.790306,0.434376,-0.458763,-1.637065
05218,0.867683,-7.550964,5.456193,0.238886,-0.318573,-1.569987
05219,1.448219,-6.694399,7.010616,-0.418675,-0.102577,-1.486960
05220,1.395833,-6.757894,7.266229,-1.159294,0.166354,-1.406511
05221,0.698036,-7.700425,6.403101,-1.736242,0.430743,-1.350704
05222,0.426573,-9.901534,4.011287,-1.879619,0.584991,-1.318775
05223,0.374121,-11.512083,2.398011,-1.463247,0.653675,-1.341984
05224,0.297058,-12.056850,2.255477,-0.694073,0.604044,-1.400176
05225,0.551548,-12.415099,2.453072,0.231322,0.455072,-1.470178
05226,0.922867,-11.790941,2.489744,1.151937,0.255005,-1.535179
05227,1.339289,-9.347453,3.311832,1.572355,0.014818,-1.545318
05228,1.875948,-6.885538,4.475259,1.092344,-0.214914,-1.517003
05229,2.547440,-5.484866,4.699125,0.165389,-0.411306,-1.494800
05230,2.851930,-5.892807,3.971344,-0.720794,-0.535447,-1.530100
05231,3.029117,-7.259503,1.952836,-1.125736,-0.620856,-1.559707
05232,3.585272,-8.749039,1.769811,-1.139255,-0.545612,-1.543282
05233,3.858792,-10.731229,2.129500,-0.896039,-0.412446,-1.509288
05234,3.717566,-11.728426,3.148829,-0.411830,-0.176172,-1.468095
05235,2.925644,-11.252709,4.004110,0.026574,0.000561,-1.435907
05236,2.299169,-9.927323,4.701320,0.164901,0.096652,-1.400457
05237,2.873628,-8.633094,4.974161,-0.049349,0.052040,-1.339032
05238,3.277654,-8.029070,4.255338,-0.412877,-0.013689,-1.292157
05239,3.127462,-9.008470,3.547713,-0.570359,-0.096196,-1.279669
05240,3.354132,-10.892555,3.320638,-0.267811,-0.151702,-1.280199
05241,3.837509,-11.388719,3.353586,0.343066,-0.181545,-1.278521
05242,4.198434,-10.413435,3.782598,0.790765,-0.197902,-1.250625
05243,4.197376,-9.024755,4.157745,0.844055,-0.193473,-1.207037
05244,3.791880,-7.596907,4.054927,0.533247,-0.188451,-1.158034
05245,3.840061,-6.321577,3.968368,0.059568,-0.153761,-1.123396
05246,4.039537,-5.946942,4.313455,-0.436187,-0.029805,-1.110087
05247,4.283260,-6.988547,4.457316,-0.733418,0.151691,-1.097546
05248,3.840054,-7.990033,3.994712,-0.778731,0.341910,-1.100049
05249,3.067100,-8.128040,3.295892,-0.744725,0.426622,-1.119810
05250,3.010783,-7.684882,3.338577,-0.804818,0.390862,-1.158970
05251,3.914930,-7.747875,3.648151,-0.942639,0.228292,-1.201190
05252,4.545326,-9.045146,3.138958,-0.875311,0.061747,-1.244984
05253,4.898109,-10.432821,2.920909,-0.498645,-0.104444,-1.273182
05254,5.575296,-10.240067,3.384493,-0.089168,-0.220439,-1.258092
05255,5.732054,-8.207298,3.564512,-0.026575,-0.341544,-1.239573
05256,5.699207,-5.985100,3.348420,-0.347112,-0.459211,-1.208446
05257,6.063388,-4.946771,3.392696,-0.992788,-0.506957,-1.168394
05258,6.344128,-5.264188,2.649282,-1.593478,-0.506284,-1.134484
05259,6.790554,-6.613595,2.226904,-1.917352,-0.425919,-1.062986
05260,7.176041,-8.297739,1.876584,-1.903187,-0.283285,-1.000207
05261,6.838419,-10.138035,2.277019,-1.559652,-0.155454,-0.925960
05262,6.503980,-10.308188,2.730220,-1.066848,-0.046715,-0.869194
05263,5.962320,-9.497723,2.629385,-0.801574,0.027089,-0.832453
05264,5.278748,-8.763266,2.146779,-0.742028,0.033894,-0.834501
05265,5.007027,-7.541173,2.150574,-0.850103,-0.021165,-0.856366
05266,5.108558,-6.765152,3.002199,-1.115408,-0.090235,-0.917511
05267,5.755713,-8.502429,3.181248,-1.191486,-0.123008,-0.970165
05268,6.398726,-11.055593,2.837425,-0.703371,-0.048130,-0.979727
05269,6.737091,-11.370562,2.256939,0.078798,0.087814,-0.931829
05270,6.577234,-9.816874,2.018316,0.600560,0.175300,-0.883063
05271,6.635162,-7.741029,1.860174,0.660248,0.180696,-0.804421
05272,7.007254,-6.878384,1.955924,0.316606,0.197632,-0.680285
05273,7.000417,-7.240496,2.121925,-0.082372,0.249192,-0.567343
05274,6.734795,-7.926012,2.563327,-0.354312,0.367251,-0.479100
05275,6.126494,-8.122576,2.455025,-0.458107,0.463684,-0.451243
05276,5.374066,-8.200502,2.143546,-0.431676,0.472912,-0.472038
05277,5.144264,-8.749302,1.813537,-0.242447,0.385005,-0.518223
05278,5.595780,-9.258469,1.626694,0.118515,0.263293,-0.567514
05279,6.157967,-9.121470,2.144331,0.469076,0.166370,-0.577255
05280,6.901244,-8.625299,3.068677,0.640209,0.103709,-0.548191
05281,7.649217,-7.948038,3.626024,0.555223,0.115062,-0.475422
05282,7.735130,-7.216039,3.413394,0.278243,0.126819,-0.373024
05283,7.492880,-6.793849,2.649214,-0.022940,0.138804,-0.295848
05284,7.320498,-6.854982,1.987612,-0.196897,0.155965,-0.236112
05285,7.430761,-7.691845,1.843555,-0.203649,0.191998,-0.193265
05286,7.602544,-7.792207,2.471399,-0.123135,0.263571,-0.142771
05287,7.585355,-7.683592,3.261385,-0.164023,0.346562,-0.082405
05288,7.453205,-7.352004,3.418058,-0.292404,0.422407,-0.033680
05289,6.860419,-6.984847,2.845014,-0.466820,0.464219,-0.010004
05290,5.983814,-6.903740,2.215441,-0.612726,0.404928,-0.033877
05291,5.895985,-6.810097,2.086321,-0.646197,0.285867,-0.116342
05292,6.309229,-7.344485,2.158588,-0.513267,0.194511,-0.232383
05293,6.903178,-8.482059,2.606481,-0.130141,0.151641,-0.345462
05294,7.736729,-8.880890,2.820123,0.350309,0.208592,-0.401827
05295,7.673154,-7.651873,2.372429,0.660903,0.303349,-0.418111
05296,7.340434,-6.236439,1.732557,0.715476,0.339374,-0.388416
05297,7.530405,-5.664043,1.577583,0.555907,0.355605,-0.314510
05298,7.726932,-6.038824,1.806345,0.391866,0.402698,-0.241521
05299,7.365887,-6.662166,1.982477,0.361628,0.456466,-0.178854
05300,6.765145,-6.230708,2.604980,0.400728,0.467931,-0.205569
05301,6.642824,-5.855544,3.021502,0.317573,0.440493,-0.269355
05302,6.818102,-6.342462,2.676267,0.221110,0.374207,-0.349029
05303,6.867392,-6.684845,2.181971,0.240632,0.272344,-0.403945
05304,7.208055,-6.995022,2.165875,0.321654,0.207858,-0.436804
05305,7.390732,-7.064334,2.255393,0.471837,0.164178,-0.442959
05306,7.423258,-6.176385,2.189912,0.548021,0.125605,-0.422954
05307,7.576296,-5.485090,2.042549,0.451675,0.122931,-0.373987
05308,7.635899,-5.519947,1.733672,0.334263,0.149837,-0.326548
05309,7.650282,-5.912816,1.862374,0.297170,0.204737,-0.257685
05310,7.554327,-5.964661,2.166625,0.241528,0.278842,-0.203713
05311,7.080343,-5.693887,2.532780,0.121189,0.329207,-0.197728
05312,6.868873,-5.928175,2.520708,-0.035190,0.300958,-0.218781
05313,6.986235,-6.400949,2.435522,-0.074880,0.249937,-0.266885
05314,6.987554,-6.816958,2.158902,0.052054,0.184018,-0.326262
05315,6.970836,-6.751373,2.129377,0.253411,0.117112,-0.353416
05316,7.170502,-6.301770,2.343783,0.374922,0.067052,-0.368200
05317,7.382900,-5.913751,2.250386,0.411907,0.034750,-0.367688
05318,7.432988,-5.802386,2.029650,0.399616,0.015501,-0.351310
05319,7.456940,-5.460768,2.061976,0.310979,-0.028537,-0.316781
05320,7.507257,-5.435267,2.186400,0.154648,-0.051405,-0.259274
05321,7.345045,-5.774635,2.476377,0.048782,-0.073933,-0.211025
05322,7.104005,-5.907528,3.075499,-0.026967,-0.095191,-0.165855
05323,7.130859,-6.234951,3.267707,-0.060107,-0.106075,-0.133076
05324,7.248909,-6.684928,3.516632,0.002246,-0.077547,-0.134979
05325,7.100169,-6.916499,3.460282,0.160083,-0.050705,-0.124688
05326,6.932304,-6.362674,3.567030,0.245124,-0.022304,-0.119253
05327,7.211744,-5.328473,4.276789,0.174048,-0.008417,-0.105013
05328,7.011333,-4.688492,4.842282,-0.400366,0.037156,-0.038468
05329,6.945956,-5.668553,3.579905,-0.825357,-0.031728,-0.034131
05330,7.421680,-6.488613,2.879177,-0.847171,-0.001376,-0.050429
05331,7.876422,-7.312579,2.639042,-0.620846,0.032572,-0.080285
05332,7.960635,-8.132887,2.478234,-0.166566,0.094032,-0.139414
05333,7.994996,-8.572360,2.529356,0.378583,0.108708,-0.179684
05334,8.447147,-8.020695,2.927970,0.874622,0.125883,-0.189333
05335,8.577257,-7.320583,3.261572,1.220863,0.147691,-0.173539
05336,8.250074,-6.613538,3.335556,1.403493,0.089902,-0.133986
05337,8.108991,-5.858704,3.559396,1.306141,-0.005339,-0.060307
05338,8.096977,-5.273214,3.784984,0.948880,-0.062212,0.034438
05339,8.092159,-4.561086,4.029227,0.464346,-0.061399,0.122922
05340,8.292236,-4.321969,3.568553,-0.030617,-0.050893,0.191864
05341,8.499710,-3.906101,3.247719,-0.443663,0.042133,0.249398
05342,8.547582,-3.375136,4.078492,-0.811911,0.153289,0.272341
05343,8.426254,-4.537844,4.044848,-1.013096,0.199250,0.269416
05344,8.237222,-5.762971,3.092688,-0.958255,0.189824,0.251485
05345,7.991598,-6.080753,2.127514,-0.704598,0.110461,0.200955
05346,7.856682,-5.863745,1.976451,-0.488533,0.013609,0.202466
05347,8.182782,-5.612131,1.903354,-0.419279,-0.095803,0.244308
05348,8.862228,-5.412016,2.097671,-0.380797,-0.176344,0.313266
05349,8.808865,-4.950486,2.246141,-0.339391,-0.254147,0.348481
05350,8.163699,-4.975008,2.114623,-0.254991,-0.278092,0.344008
05351,7.635425,-4.854955,2.469520,-0.093338,-0.296142,0.325562
05352,7.668357,-3.934833,2.955408,-0.110776,-0.292636,0.308948
05353,7.733559,-2.925101,2.923816,-0.411298,-0.283203,0.306135
05354,8.062824,-3.255793,3.168036,-0.886789,-0.244094,0.343219
05355,8.310294,-4.119337,2.934570,-1.269671,-0.173416,0.373837
05356,7.942732,-4.906613,2.135379,-1.430644,-0.125864,0.377209
05357,7.689440,-5.418410,1.475863,-1.373202,-0.136153,0.343282
05358,8.136167,-5.618230,1.160931,-1.185048,-0.176997,0.271363
05359,8.274524,-5.693344,0.927119,-0.934384,-0.242965,0.197986
05360,8.028311,-5.809647,1.227943,-0.699159,-0.325655,0.137307
05361,8.187099,-5.512205,1.717291,-0.565826,-0.404712,0.112324
05362,8.246493,-5.204906,2.307304,-0.614045,-0.430135,0.108536
05363,7.979455,-5.292161,2.636109,-0.746072,-0.431298,0.113897
05364,7.853890,-5.184184,3.006110,-0.858517,-0.419822,0.105275
05365,7.916185,-4.928480,2.527201,-0.978855,-0.364036,0.094868
05366,7.492350,-4.907022,1.272764,-1.056579,-0.313481,0.059413
05367,6.648778,-5.381901,0.077224,-1.038287,-0.263657,-0.014984
05368,6.239975,-6.378044,0.175882,-0.870121,-0.162699,-0.098497
05369,5.944269,-7.075358,1.195089,-0.530020,-0.029820,-0.209329
05370,5.838709,-6.962907,2.633579,-0.221453,0.104486,-0.311140
05371,6.361009,-6.576762,3.521601,-0.189716,0.144394,-0.384022
05372,6.762056,-6.693426,2.931160,-0.364017,0.125907,-0.421546
05373,6.783605,-6.929295,1.940136,-0.595591,0.026543,-0.431880
05374,6.785620,-7.056972,1.101547,-0.857485,-0.110277,-0.390928
05375,6.688315,-7.553316,0.773435,-1.055524,-0.231199,-0.362426
05376,6.966807,-8.298112,1.009736,-1.069046,-0.266792,-0.342588
05377,7.331716,-8.465952,1.624373,-0.925825,-0.232468,-0.307496
05378,7.299295,-7.510285,1.515940,-0.856167,-0.158811,-0.288680
05379,7.224129,-6.960287,0.082928,-0.850151,-0.128582,-0.260596
05380,7.807738,-6.864332,-0.757919,-0.809992,-0.063677,-0.211235
05381,7.871155,-6.364780,-0.538083,-0.729834,0.027944,-0.192229
05382,7.136635,-6.091643,-0.065033,-0.581907,0.117880,-0.220023
05383,6.370837,-6.385426,0.019299,-0.309184,0.177886,-0.322432
05384,5.952230,-6.474905,0.402452,0.047300,0.209652,-0.457592
05385,6.180552,-6.038934,0.923044,0.266996,0.188911,-0.572385
05386,6.716330,-5.323787,1.357974,0.256003,0.135466,-0.659280
05387,7.322657,-4.558746,1.651009,-0.006943,0.044530,-0.698477
05388,7.999917,-4.411147,1.674832,-0.417401,-0.029652,-0.699441
05389,8.575755,-4.877420,1.970186,-0.797003,-0.047709,-0.666379
05390,8.656591,-4.887609,1.756696,-1.109590,-0.019596,-0.620830
05391,8.152436,-4.953871,-0.169470,-1.298171,0.037620,-0.576365
05392,8.095754,-5.222591,-1.299587,-1.317815,0.130940,-0.533717
05393,7.987518,-6.660881,-1.385291,-1.109513,0.313144,-0.527964
05394,7.572775,-8.058528,-0.698455,-0.604905,0.476483,-0.550394
05395,7.683369,-7.900344,0.106978,-0.104573,0.624261,-0.596864
05396,7.985009,-6.497613,0.407282,0.108069,0.663548,-0.658826
05397,8.265010,-5.504851,0.261262,-0.005878,0.562229,-0.708194
05398,8.335873,-5.174214,-0.189909,-0.292374,0.385192,-0.721644
05399,8.190675,-5.263057,0.086841,-0.629308,0.188944,-0.720097
05400,7.894029,-5.754675,0.654431,-0.876899,0.098589,-0.705290
05401,7.740035,-6.208591,0.232053,-0.904641,0.094658,-0.713402
05402,7.707963,-6.654924,0.077309,-0.718272,0.132472,-0.717751
05403,8.013962,-6.694011,0.780889,-0.496722,0.220236,-0.694240
05404,8.335922,-5.912930,0.564698,-0.432359,0.335606,-0.664082
05405,8.791026,-5.107104,0.051342,-0.563516,0.475559,-0.591584
05406,8.777757,-4.849833,-0.171199,-0.770722,0.629727,-0.535512
05407,7.831138,-4.739515,-0.506631,-0.858965,0.752598,-0.545127
05408,6.696689,-4.946532,-0.656110,-0.807518,0.784031,-0.633099
05409,6.382989,-5.748700,-0.811016,-0.673049,0.730128,-0.768763
05410,6.442126,-6.878368,-1.208656,-0.389286,0.582495,-0.918344
05411,6.851260,-7.345542,-0.942724,0.042958,0.348422,-1.041562
05412,7.589934,-7.025436,-0.372351,0.478685,0.145322,-1.131276
05413,7.967952,-5.981407,0.141123,0.763511,-0.024847,-1.195566
05414,8.360277,-5.188457,0.715036,0.820512,-0.152201,-1.197316
05415,9.145981,-4.929477,1.920923,0.735944,-0.154669,-1.157169
05416,9.381094,-4.311388,2.492976,0.511343,-0.058538,-1.110820
05417,8.653554,-3.373929,1.317190,0.185051,0.015857,-1.093846
05418,8.382065,-3.804427,-0.051658,-0.079218,0.052864,-1.058071
05419,8.794869,-4.400795,-0.587849,-0.186808,0.105684,-1.034388
05420,8.913622,-4.583285,-0.294071,-0.232617,0.174806,-1.052786
05421,8.730543,-4.707277,0.545872,-0.224389,0.258770,-1.081868
05422,8.748636,-4.573542,1.643505,-0.231506,0.342775,-1.126887
05423,8.950070,-4.462566,2.006409,-0.304622,0.412197,-1.182339
05424,8.912738,-4.471621,1.830759,-0.389652,0.434456,-1.244511
05425,8.435873,-4.107796,1.082986,-0.488135,0.374079,-1.304884
05426,8.216816,-3.653786,0.393648,-0.638061,0.247371,-1.352829
05427,8.489764,-3.711535,0.081951,-0.789318,0.055326,-1.376294
05428,9.133792,-4.056374,0.860479,-0.878602,-0.097030,-1.358329
05429,9.990999,-4.678362,1.694649,-0.887243,-0.112694,-1.308959
05430,10.307316,-5.096526,1.791270,-0.752314,-0.017586,-1.271678
05431,9.922582,-4.929102,0.964853,-0.549120,0.086688,-1.202533
05432,9.890861,-4.620390,0.513823,-0.384040,0.174366,-1.117252
05433,9.932370,-4.049174,0.469324,-0.351692,0.241895,-1.034385
05434,9.659684,-3.694316,0.760555,-0.443163,0.284484,-0.971236
05435,9.311870,-3.689541,0.989265,-0.562569,0.297427,-0.911754
05436,9.333739,-3.563548,1.156448,-0.700014,0.280220,-0.854423
05437,9.572772,-4.040311,1.380943,-0.825150,0.232502,-0.805948
05438,9.644677,-6.107845,0.581377,-0.564346,0.180017,-0.787980
05439,9.731550,-8.912977,0.376026,0.299504,0.084523,-0.795196
05440,10.081027,-9.363849,0.242551,1.469459,-0.003595,-0.730506
05441,10.254862,-6.085427,0.661560,2.228826,-0.082554,-0.591929
05442,10.534964,-2.287948,1.746052,2.059588,-0.154792,-0.379123
05443,10.508794,-1.005054,1.158231,1.284118,-0.182358,-0.163224
05444,10.069504,-1.404601,0.137287,0.538572,-0.207907,0.024914
05445,9.735857,-1.892118,-0.618419,-0.041490,-0.239819,0.163011
05446,9.449795,-2.098821,-0.646160,-0.460235,-0.191780,0.217137
05447,9.018613,-2.596786,0.067607,-0.759954,-0.126635,0.191296
05448,8.828722,-3.184766,1.529990,-0.940909,-0.020230,0.133447
05449,8.667128,-3.407945,2.604888,-1.039365,0.078666,0.047512
05450,8.586632,-3.971342,2.859902,-1.082379,0.128350,-0.038307
05451,8.339398,-4.444759,1.863517,-0.934739,0.091126,-0.132479
05452,8.356383,-4.309688,0.949731,-0.675720,0.010678,-0.202578
05453,8.686626,-3.829979,0.595247,-0.449371,-0.075331,-0.243831
05454,9.338304,-3.284363,0.907799,-0.376590,-0.141670,-0.235109
05455,9.929584,-2.813894,0.832303,-0.421663,-0.118514,-0.198354
05456,9.926726,-2.398778,0.021386,-0.504106,-0.070166,-0.164630
05457,9.830282,-2.129499,-0.552044,-0.607863,-0.009670,-0.145419
05458,9.995764,-1.753037,-0.511027,-0.766153,0.092847,-0.129768
05459,9.582172,-1.377816,-0.048804,-1.005901,0.195179,-0.128059
05460,9.394532,-1.651408,0.829555,-1.306513,0.264053,-0.144848
05461,9.191281,-2.855810,0.949576,-1.407959,0.262936,-0.197277
05462,9.089707,-4.201931,0.670349,-1.206334,0.239965,-0.245412
05463,9.016698,-4.399697,0.913732,-0.793396,0.186962,-0.313709
05464,9.179477,-3.966028,0.931306,-0.316765,0.095725,-0.380836
05465,9.486327,-3.393266,0.385790,0.120278,0.024870,-0.425349
05466,9.783234,-2.401556,0.262446,0.388165,-0.031789,-0.456453
05467,10.257574,-1.844901,0.318056,0.437026,-0.051205,-0.449387
05468,10.307853,-1.389107,0.137890,0.330179,-0.039509,-0.403919
05469,9.926216,-0.804948,-0.199222,0.070681,-0.009451,-0.342128
05470,9.611825,-0.764694,-0.229143,-0.293463,0.009154,-0.286502
05471,9.305923,-1.278291,-0.182091,-0.616433,0.028879,-0.249074
05472,9.187451,-1.356031,0.495417,-0.869483,0.063059,-0.238503
05473,9.303617,-1.067281,1.667300,-1.185373,0.102206,-0.243296
05474,9.365922,-0.884034,1.670937,-1.539176,0.121245,-0.271301
05475,9.266617,-1.981089,0.923311,-1.674388,0.108947,-0.324228
05476,9.336944,-4.174145,0.254303,-1.380537,0.065626,-0.391147
05477,9.439613,-6.008583,-0.184436,-0.569316,0.019671,-0.458491
05478,9.511854,-5.955956,0.030303,0.436924,-0.005419,-0.508960
05479,9.778170,-4.115359,0.310972,1.147319,-0.005530,-0.510230
05480,10.032266,-2.131631,0.461071,1.362555,-0.002887,-0.483908
05481,10.112401,-0.808426,0.406322,1.178737,0.031978,-0.436587
05482,9.827849,0.091304,0.551778,0.721448,0.068540,-0.375942
05483,9.699646,0.611501,0.837405,0.087790,0.087422,-0.330961
05484,9.626010,-0.007903,1.246837,-0.523742,0.129739,-0.306326
05485,9.711692,-1.104252,1.619012,-0.989797,0.162952,-0.285571
05486,9.666208,-2.258636,1.446076,-1.169463,0.167097,-0.292535
05487,9.614940,-3.413232,0.866951,-1.037664,0.148984,-0.307427
05488,9.628718,-3.986199,0.576329,-0.650216,0.106882,-0.320662
05489,9.783173,-3.779368,0.632735,-0.198991,0.077917,-0.327753
05490,9.925115,-2.923930,0.686149,0.118577,0.063908,-0.308857
05491,9.958244,-2.034708,0.513459,0.231705,0.062733,-0.274490
05492,9.934639,-1.525533,0.095861,0.166845,0.030180,-0.225085
05493,9.999298,-1.309106,0.043911,0.008079,0.028102,-0.158406
05494,10.087522,-1.238287,0.390394,-0.166538,0.039930,-0.088357
05495,10.011070,-0.812430,0.862070,-0.410232,0.064808,-0.027956
05496,9.984239,-0.788505,1.402307,-0.751477,0.076148,0.028573
