// Start Time: Unknown
// Update Rate: 100.0Hz
// Filter Profile: human (46.1)
// Firmware Version: 4.3.5
PacketCounter,Acc_X,Acc_Y,Acc_Z,Gyr_X,Gyr_Y,Gyr_Z
31823,9.620085,1.156388,1.822409,0.021043,0.012934,-0.003690
31824,9.577220,1.235441,1.870566,0.012244,0.016562,-0.006958
31825,9.578572,1.156818,1.916850,0.005394,0.011005,-0.006594
31826,9.593895,1.124411,1.885365,0.005055,0.009072,-0.004804
31827,9.605108,1.112775,1.903848,0.005183,0.005036,-0.003493
31828,9.644259,1.097921,1.902235,0.012501,0.008488,-0.004333
31829,9.628415,1.131646,1.935494,0.019791,0.013572,-0.003052
31830,9.639503,1.120237,1.954444,0.014845,0.012871,-0.004778
31831,9.615451,1.103366,1.925400,0.020130,0.015502,-0.004839
31832,9.633643,1.100830,2.012712,0.031244,0.017891,0.000113
31833,9.588434,1.028438,1.993604,0.039729,0.025597,0.005012
31834,9.551150,1.006873,2.037791,0.068285,0.037159,0.007382
31835,9.505287,1.123159,2.047530,0.088970,0.037366,0.015499
31836,9.549380,1.196338,2.071352,0.077513,0.047928,0.014289
31837,9.609017,1.235537,2.063884,0.057632,0.054173,0.025625
31838,9.639560,1.235126,2.083338,0.030013,0.068204,0.026155
31839,9.742726,1.303471,2.104849,-0.003077,0.072022,0.027713
31840,9.827979,1.320176,2.171511,-0.038980,0.088459,0.032120
31841,9.862269,1.363336,2.224116,-0.080549,0.099460,0.030702
31842,9.918644,1.449049,2.393181,-0.124685,0.112487,0.025002
31843,9.977402,1.592825,2.469776,-0.173378,0.137462,0.005858
31844,9.952975,1.764174,2.520155,-0.233005,0.166727,-0.026826
31845,9.861914,1.972800,2.507620,-0.316844,0.203550,-0.068696
31846,9.776986,2.166625,2.485201,-0.422088,0.236916,-0.107186
31847,9.614637,2.164865,2.482163,-0.569898,0.269343,-0.128900
31848,9.537698,1.964159,2.393361,-0.696838,0.288514,-0.132484
31849,9.561503,1.814336,2.414069,-0.759176,0.322679,-0.132798
31850,9.529787,1.752225,2.467738,-0.813011,0.356898,-0.130613
31851,9.534341,1.546441,2.533200,-0.862399,0.376309,-0.124635
31852,9.565042,1.333326,2.543517,-0.873113,0.384996,-0.106632
31853,9.640512,1.001324,2.504390,-0.849566,0.393589,-0.078945
31854,9.640214,0.825247,2.456600,-0.795691,0.411506,-0.049742
31855,9.597664,0.701946,2.337781,-0.732738,0.428630,-0.011587
31856,9.599993,0.692508,2.244923,-0.669466,0.442250,0.014351
31857,9.488966,0.772846,2.224016,-0.643227,0.445999,0.041201
31858,9.432182,0.678272,2.136225,-0.679918,0.414933,0.075419
31859,9.458261,0.510224,2.111609,-0.726066,0.380600,0.122419
31860,9.533466,0.181758,2.135481,-0.759092,0.360744,0.181677
31861,9.558291,-0.165700,2.173415,-0.763030,0.360618,0.240000
31862,9.484415,-0.459816,2.243532,-0.728538,0.351625,0.302534
31863,9.409982,-0.674359,2.274576,-0.648864,0.347598,0.367256
31864,9.361693,-0.710578,2.372777,-0.568330,0.339632,0.421195
31865,9.254557,-0.705835,2.471878,-0.510313,0.324937,0.466272
31866,9.188485,-0.633195,2.465918,-0.469421,0.292984,0.510945
31867,9.290608,-0.643259,2.505057,-0.458470,0.259387,0.558635
31868,9.319109,-0.724341,2.489207,-0.468488,0.230645,0.608985
31869,9.371508,-0.895296,2.415741,-0.459777,0.208963,0.672112
31870,9.417228,-1.018536,2.462679,-0.424535,0.192214,0.715663
31871,9.398562,-1.184119,2.506989,-0.384576,0.183360,0.768868
31872,9.368820,-1.337320,2.532939,-0.332227,0.163038,0.808235
31873,9.362139,-1.438166,2.559791,-0.266594,0.146480,0.846816
31874,9.286225,-1.418780,2.557582,-0.190193,0.131212,0.877416
31875,9.250202,-1.323135,2.645253,-0.139762,0.110279,0.904405
31876,9.236883,-1.311414,2.640512,-0.121796,0.081276,0.929849
31877,9.249671,-1.342784,2.544843,-0.099265,0.051825,0.966931
31878,9.228584,-1.263033,2.539970,-0.077579,0.032797,0.988113
31879,9.254886,-1.224445,2.618025,-0.082046,0.012189,1.000797
31880,9.306520,-1.231169,2.640173,-0.094227,-0.004293,1.008295
31881,9.351705,-1.225618,2.678779,-0.098720,-0.022275,1.017970
31882,9.332920,-1.189978,2.630761,-0.091721,-0.038722,1.011350
31883,9.397560,-1.099711,2.637485,-0.075618,-0.050466,0.996178
31884,9.508706,-1.047735,2.658393,-0.084066,-0.066202,0.980385
31885,9.575129,-1.078511,2.758687,-0.092437,-0.083103,0.962045
31886,9.617646,-1.174709,2.836693,-0.089632,-0.077833,0.945526
31887,9.620814,-1.306402,2.929066,-0.093820,-0.087133,0.939405
31888,9.529618,-1.396071,2.953830,-0.073927,-0.085338,0.930246
31889,9.454241,-1.458711,2.997858,-0.036818,-0.091121,0.921172
31890,9.360601,-1.470992,3.061933,-0.012139,-0.101997,0.909765
31891,9.310102,-1.510177,2.967408,-0.005468,-0.125505,0.900028
31892,9.306242,-1.605863,2.902551,0.010355,-0.136447,0.882145
31893,9.267319,-1.675054,2.838807,0.036093,-0.140040,0.870381
31894,9.285420,-1.758669,2.774336,0.062951,-0.144851,0.853545
31895,9.281460,-1.774628,2.714246,0.088427,-0.144023,0.828798
31896,9.277991,-1.792245,2.723513,0.113166,-0.144031,0.808061
31897,9.298495,-1.801984,2.768355,0.134318,-0.137787,0.782607
31898,9.301478,-1.829728,2.760681,0.144136,-0.134209,0.759001
31899,9.271793,-1.830951,2.789404,0.148135,-0.131765,0.733237
31900,9.243063,-1.830966,2.853237,0.145761,-0.120066,0.700720
31901,9.191700,-1.834432,2.917502,0.138629,-0.113138,0.674692
31902,9.154763,-1.884050,2.961841,0.119595,-0.113914,0.648943
31903,9.173717,-1.949640,2.935492,0.087327,-0.113722,0.643902
31904,9.205032,-2.062878,2.854070,0.075846,-0.119230,0.633946
31905,9.219771,-2.210997,2.701758,0.099900,-0.117370,0.615009
31906,9.208219,-2.152662,2.630344,0.150039,-0.113494,0.574542
31907,9.135331,-1.931385,2.672297,0.208094,-0.104296,0.513147
31908,9.149486,-1.737018,2.729230,0.216662,-0.109671,0.446936
31909,9.150071,-1.683015,2.778349,0.189142,-0.112105,0.399491
31910,9.158351,-1.766420,2.820928,0.162983,-0.103489,0.378556
31911,9.140340,-1.957596,2.790279,0.143180,-0.104970,0.366085
31912,9.128890,-2.183393,2.792974,0.147603,-0.106158,0.364386
31913,9.128974,-2.351436,2.781416,0.187085,-0.108122,0.351273
31914,9.183081,-2.419112,2.825956,0.244150,-0.111617,0.332081
31915,9.235991,-2.479894,2.768248,0.290930,-0.110951,0.306069
31916,9.272081,-2.453346,2.732605,0.358247,-0.103585,0.279947
31917,9.252522,-2.260714,2.808585,0.405896,-0.075275,0.233311
31918,9.206674,-2.050053,2.869517,0.393411,-0.047167,0.186962
31919,9.186327,-1.954650,2.979258,0.374893,-0.039154,0.144687
31920,9.102624,-1.919541,2.967684,0.325664,-0.030472,0.124366
31921,9.065296,-1.997513,2.901201,0.274306,-0.032588,0.109636
31922,9.091956,-2.151417,2.815028,0.233627,-0.030889,0.102207
31923,9.153374,-2.227847,2.729609,0.234933,-0.021420,0.077139
31924,9.204374,-1.954641,2.994051,0.260180,0.010070,0.029907
31925,9.291820,-1.723169,3.414947,0.193634,0.055916,-0.018505
31926,9.272085,-1.612786,3.528977,0.107397,0.103056,-0.060416
31927,9.224816,-1.488769,3.697585,0.047156,0.137893,-0.098238
31928,9.233023,-1.546132,3.642182,-0.025112,0.159453,-0.118226
31929,9.316009,-1.604441,3.570726,0.002734,0.192377,-0.157340
31930,9.522934,-1.650917,3.588381,0.035631,0.231099,-0.200731
31931,9.656002,-1.810623,3.889278,0.107431,0.286171,-0.254655
31932,9.667239,-1.863779,4.110645,0.147080,0.317758,-0.287644
31933,9.634664,-1.832369,4.181861,0.214290,0.371257,-0.307280
31934,9.541496,-1.756803,4.240777,0.234151,0.416952,-0.322340
31935,9.544719,-1.906744,4.201754,0.260137,0.450402,-0.328846
31936,9.609578,-2.004601,4.409587,0.276357,0.493392,-0.315267
31937,9.722934,-2.232818,4.727844,0.222606,0.520169,-0.274771
31938,9.905343,-2.652504,4.657559,0.182996,0.553015,-0.210820
31939,9.898263,-3.105771,4.400766,0.257628,0.594896,-0.157344
31940,9.880424,-3.325414,4.475986,0.357135,0.629162,-0.109263
31941,9.780169,-3.514331,4.467799,0.419646,0.650017,-0.046630
31942,9.735207,-3.624471,4.430697,0.466633,0.687956,0.007115
31943,9.798231,-3.601620,4.572814,0.448150,0.726514,0.075356
31944,9.779137,-3.755445,4.512758,0.414443,0.764028,0.150862
31945,9.747424,-4.034035,4.619437,0.468513,0.823555,0.233504
31946,9.824076,-4.072392,5.165291,0.465795,0.867901,0.338214
31947,9.814878,-4.205441,5.227203,0.363114,0.898600,0.462830
31948,9.587187,-4.513874,4.915264,0.318210,0.944473,0.572839
31949,9.374624,-4.733076,4.721217,0.304151,0.967917,0.682127
31950,9.262094,-4.917321,4.397858,0.345444,0.994471,0.798238
31951,9.408507,-4.869174,4.687499,0.383127,1.030544,0.922534
31952,9.534669,-4.896495,4.932818,0.264875,1.069393,1.070823
31953,9.497428,-5.126151,5.031181,0.100245,1.118636,1.216892
31954,9.357808,-5.285854,5.109069,-0.008395,1.202289,1.360330
31955,9.074524,-5.426360,5.180275,-0.107553,1.279081,1.499034
31956,8.697930,-5.631087,5.164773,-0.223077,1.315462,1.655170
31957,8.682910,-5.837868,4.858177,-0.261138,1.354521,1.819751
31958,8.692987,-5.824391,5.176244,-0.316914,1.394513,1.983033
31959,8.878940,-5.957479,5.223881,-0.491143,1.372577,2.148951
31960,9.279091,-6.224469,5.064668,-0.604447,1.410647,2.309648
31961,9.375961,-6.510470,4.967357,-0.713091,1.452840,2.467946
31962,9.089070,-6.802809,5.025762,-0.816627,1.501357,2.627799
31963,8.380837,-7.090198,4.964326,-0.920205,1.535742,2.772209
31964,7.762672,-7.385623,4.859940,-0.952218,1.595528,2.890833
31965,7.331045,-7.230209,5.146615,-0.959731,1.669232,2.984156
31966,7.120284,-6.808687,6.053573,-1.155231,1.652309,3.089491
31967,7.318350,-6.957154,5.869606,-1.439423,1.581231,3.206095
31968,7.262328,-7.229857,5.672369,-1.585567,1.609790,3.292450
31969,6.770855,-7.680397,5.561875,-1.744184,1.627131,3.371338
31970,6.407294,-8.206385,5.321598,-1.761277,1.655406,3.428261
31971,6.296737,-8.127730,5.566229,-1.734004,1.706596,3.461392
31972,6.199429,-8.039377,5.493230,-1.755161,1.785584,3.483216
31973,5.374641,-7.856949,5.955514,-1.829944,1.844824,3.486284
31974,4.645019,-7.829920,5.897537,-1.981154,1.768510,3.506463
31975,4.345835,-7.826822,5.346662,-2.021830,1.744457,3.510238
31976,4.107685,-7.732626,5.056760,-2.084714,1.758623,3.503569
31977,3.963741,-7.815535,4.639046,-2.105417,1.733196,3.487317
31978,3.379965,-7.750474,4.447911,-2.032810,1.723177,3.452856
31979,2.495445,-7.691394,4.508651,-2.055217,1.644834,3.402599
31980,2.037017,-7.909114,4.278042,-2.029057,1.542940,3.349133
31981,1.669400,-8.105881,4.066464,-1.939237,1.454533,3.297770
31982,1.397400,-8.119654,3.860025,-1.813513,1.322508,3.238756
31983,1.470795,-8.037651,3.617947,-1.695951,1.230391,3.176472
31984,1.378041,-7.924924,3.417097,-1.582504,1.160198,3.093209
31985,1.254885,-7.751494,3.092829,-1.447042,1.111010,3.021428
31986,0.747542,-7.385538,3.000109,-1.355982,1.091487,2.930439
31987,0.337018,-7.161585,3.132463,-1.376381,1.040235,2.833872
31988,0.540285,-7.196853,3.123687,-1.397267,0.992902,2.743792
31989,0.175496,-7.345111,2.978387,-1.366543,0.954009,2.644887
31990,-0.105525,-7.312054,2.851426,-1.333259,0.914850,2.563294
31991,-0.436984,-7.260664,2.597182,-1.237836,0.874519,2.484534
31992,-0.630792,-7.088866,2.555878,-1.198197,0.844433,2.372011
31993,-0.761964,-7.006961,2.368232,-1.171054,0.818925,2.265504
31994,-0.991405,-6.991223,2.171850,-1.129325,0.778528,2.169544
31995,-1.402544,-7.022031,2.227822,-1.099109,0.748344,2.085797
31996,-1.779892,-7.153431,2.161694,-1.080710,0.668085,1.986905
31997,-1.940565,-7.313662,1.954715,-1.026655,0.570661,1.865607
31998,-1.976160,-7.349513,1.699007,-0.902726,0.507825,1.749789
31999,-1.980477,-7.314875,1.662297,-0.735932,0.486343,1.650605
32000,-2.013646,-7.290165,1.721637,-0.589400,0.521405,1.587804
32001,-2.510157,-7.115988,1.818145,-0.489317,0.538078,1.512810
32002,-2.818921,-6.947385,1.929359,-0.437474,0.516287,1.425062
32003,-3.031837,-6.790389,1.936487,-0.403973,0.490965,1.342558
32004,-3.233675,-6.661684,1.928902,-0.387342,0.457566,1.248216
32005,-3.271763,-6.618236,1.905759,-0.385435,0.436957,1.162976
32006,-3.399770,-6.615748,1.878245,-0.377938,0.439456,1.085345
32007,-3.594975,-6.619503,1.859059,-0.376390,0.420565,1.000129
32008,-3.771497,-6.623305,1.736688,-0.381389,0.376899,0.917507
32009,-3.798347,-6.624418,1.576030,-0.341639,0.353727,0.834300
32010,-3.980895,-6.558007,1.542610,-0.302153,0.331132,0.748954
32011,-4.053041,-6.582456,1.525016,-0.280171,0.309053,0.664490
32012,-4.165414,-6.658385,1.526331,-0.239866,0.290739,0.579821
32013,-4.183134,-6.644159,1.474931,-0.181746,0.255377,0.496472
32014,-4.143561,-6.678418,1.436232,-0.108653,0.225176,0.411870
32015,-4.308923,-6.644364,1.530284,-0.040176,0.203909,0.326469
32016,-4.396910,-6.753383,1.556599,0.002970,0.155815,0.199791
32017,-4.191844,-6.800932,1.498978,0.111474,0.129267,0.082946
32018,-4.218076,-6.791706,1.531287,0.231239,0.113558,-0.022561
32019,-4.146184,-6.670759,1.511040,0.334047,0.064139,-0.131871
32020,-3.954661,-6.367181,1.417317,0.436607,0.007672,-0.253264
32021,-3.783187,-5.967161,1.329201,0.476488,-0.047589,-0.367737
32022,-3.743094,-5.763948,1.302905,0.498057,-0.079233,-0.497467
32023,-3.733374,-5.748914,1.355245,0.528542,-0.101981,-0.622195
32024,-3.749050,-5.884437,1.529875,0.572287,-0.112577,-0.740423
32025,-3.682617,-5.928209,1.753007,0.618179,-0.128099,-0.841788
32026,-3.687341,-5.966224,1.932076,0.631709,-0.140798,-0.937878
32027,-3.609451,-6.311789,1.919620,0.688838,-0.165254,-1.051702
32028,-3.462612,-6.596733,1.766936,0.820338,-0.184662,-1.169592
32029,-3.287848,-6.682393,1.691150,0.962489,-0.220595,-1.302070
32030,-3.195009,-6.422985,1.773326,1.032171,-0.244803,-1.444428
32031,-3.224263,-6.194998,2.050969,0.982345,-0.262614,-1.567531
32032,-3.392708,-6.408539,2.330778,0.891657,-0.288911,-1.666804
32033,-3.447609,-7.033636,2.313506,0.876854,-0.358414,-1.750130
32034,-3.204588,-7.780626,2.133147,1.007598,-0.426184,-1.798689
32035,-2.934297,-8.349143,2.018328,1.221645,-0.489177,-1.832473
32036,-2.512594,-8.427877,1.916476,1.494070,-0.543463,-1.892359
32037,-2.080366,-8.001551,2.232557,1.686818,-0.583582,-1.986517
32038,-1.672054,-7.660003,2.750819,1.734708,-0.608162,-2.086435
32039,-1.802530,-7.595423,3.101725,1.751096,-0.582309,-2.144083
32040,-1.960980,-7.832129,3.385584,1.727055,-0.591592,-2.181321
32041,-1.809851,-8.142540,3.486082,1.755188,-0.613617,-2.195545
32042,-1.966688,-8.276070,3.684885,1.799231,-0.665582,-2.197123
32043,-1.850059,-8.376134,3.589455,1.888825,-0.798335,-2.225526
32044,-1.274685,-7.929581,3.540170,2.018811,-0.911015,-2.289767
32045,-0.521996,-7.626472,3.453438,2.032573,-0.996848,-2.362489
32046,-0.047170,-7.817742,3.686695,2.046627,-0.941992,-2.405355
32047,-0.066873,-8.152370,4.100308,2.040120,-0.887302,-2.428498
32048,-0.076888,-8.429253,4.377419,2.078159,-0.921988,-2.468462
32049,-0.261512,-8.329458,4.938635,2.063896,-0.988963,-2.483965
32050,-0.384912,-8.475359,5.140644,2.047769,-1.135883,-2.514102
32051,0.200841,-8.013291,4.882034,2.192308,-1.300266,-2.580384
32052,0.891594,-7.230759,4.728600,2.239973,-1.395649,-2.651105
32053,1.541076,-7.268392,4.973010,2.122416,-1.359871,-2.679742
32054,1.636866,-7.641130,5.378770,2.120066,-1.263425,-2.654893
32055,1.815499,-7.368734,5.948156,2.130653,-1.228754,-2.651075
32056,2.355677,-7.307060,6.349090,1.993237,-1.255371,-2.658708
32057,2.847948,-7.559136,6.517018,1.922662,-1.304710,-2.691515
32058,3.042863,-7.570929,6.345925,1.978598,-1.334669,-2.706699
32059,2.885303,-7.288380,6.205222,2.015594,-1.380330,-2.721629
32060,3.297415,-7.073736,6.096914,2.019860,-1.449636,-2.775926
32061,4.150218,-6.806103,6.006599,2.062860,-1.440134,-2.792438
32062,4.115805,-6.512055,6.235186,2.059052,-1.335975,-2.788987
32063,4.038339,-6.272037,6.713349,1.956050,-1.352743,-2.793299
32064,4.504697,-6.179007,6.945284,1.885742,-1.388179,-2.780741
32065,4.691321,-6.036838,7.252866,1.825289,-1.387053,-2.778683
32066,4.942151,-5.788066,7.263340,1.742676,-1.439183,-2.776653
32067,5.096523,-5.468068,6.954089,1.678051,-1.451781,-2.746658
32068,5.129992,-5.230551,6.690596,1.568141,-1.431730,-2.703407
32069,5.639823,-5.185846,6.563644,1.488078,-1.410172,-2.646156
32070,6.435711,-4.781548,6.754348,1.421911,-1.346961,-2.609880
32071,6.977202,-4.372323,7.209679,1.206579,-1.297514,-2.587054
32072,7.188150,-4.356291,7.038643,1.019224,-1.272591,-2.560292
32073,7.113794,-4.295305,7.375181,0.857170,-1.216783,-2.521726
32074,6.903809,-4.472827,7.639279,0.644912,-1.212354,-2.445523
32075,6.990888,-4.860591,7.453670,0.521740,-1.177415,-2.323364
32076,7.291392,-4.889132,7.388434,0.498852,-1.088893,-2.188304
32077,7.559799,-4.632681,7.478241,0.456526,-1.052436,-2.036730
32078,7.686673,-4.569771,7.055658,0.433132,-1.022644,-1.914804
32079,7.495495,-4.315764,7.022937,0.419570,-0.982566,-1.841270
32080,7.551437,-3.978817,7.297560,0.283631,-1.008236,-1.755574
32081,7.780535,-4.105691,6.944135,0.155985,-1.012805,-1.639082
32082,7.860433,-4.483243,6.747854,0.116663,-0.923343,-1.522385
32083,7.767063,-4.836541,6.709234,0.099992,-0.823887,-1.405882
32084,7.527545,-4.834102,6.972328,0.187312,-0.785245,-1.269427
32085,7.394900,-4.527761,7.008348,0.254744,-0.817405,-1.104854
32086,7.518131,-4.369530,6.326202,0.333649,-0.882552,-0.942846
32087,7.940679,-4.001966,5.941246,0.440098,-0.891021,-0.806336
32088,8.149898,-3.503358,6.183752,0.432809,-0.861390,-0.703180
32089,8.242553,-3.300355,6.285078,0.313885,-0.831667,-0.610125
32090,8.239986,-3.152389,6.285287,0.220532,-0.763360,-0.514504
32091,8.057932,-2.916157,6.657116,0.083405,-0.703508,-0.420289
32092,7.936448,-2.914139,6.782690,-0.065388,-0.691624,-0.304137
32093,7.823927,-2.931775,6.692729,-0.107174,-0.690482,-0.200830
32094,7.797267,-2.901466,6.407878,-0.144529,-0.672241,-0.115672
32095,7.912113,-2.929788,6.030262,-0.195744,-0.651869,-0.059782
32096,8.173244,-2.971208,5.680698,-0.228419,-0.640243,-0.008649
32097,8.392957,-2.957150,5.494075,-0.189146,-0.617259,0.015604
32098,8.461983,-2.606762,5.773686,-0.131670,-0.595083,0.017857
32099,8.500186,-2.411522,5.753864,-0.193146,-0.594756,0.040609
32100,8.383128,-2.555374,5.508344,-0.220431,-0.569790,0.054596
32101,8.322274,-2.300998,5.695084,-0.169177,-0.519532,0.055289
32102,8.225835,-1.990431,5.962214,-0.230523,-0.478665,0.051237
32103,8.190564,-1.901582,6.035425,-0.345547,-0.448510,0.066137
32104,8.284676,-1.926670,6.025622,-0.464558,-0.452755,0.098306
32105,8.470720,-2.217348,5.716192,-0.587325,-0.472572,0.160303
32106,8.600408,-2.538778,5.318017,-0.570278,-0.471822,0.207435
32107,8.693817,-2.521260,5.314782,-0.443520,-0.442159,0.219011
32108,8.711257,-2.356952,5.590759,-0.357336,-0.425185,0.212123
32109,8.701634,-2.239771,5.831979,-0.337413,-0.399484,0.199321
32110,8.579678,-2.214615,6.004046,-0.315371,-0.365982,0.188484
32111,8.489001,-2.300594,5.928586,-0.321000,-0.325776,0.197095
32112,8.518281,-2.470454,5.623116,-0.286347,-0.291810,0.216464
32113,8.550133,-2.623400,5.267632,-0.207996,-0.280640,0.235653
32114,8.623315,-2.668763,4.935868,-0.109676,-0.282816,0.252408
32115,8.748364,-2.655812,4.649844,0.001477,-0.290294,0.263600
32116,8.815069,-2.534586,4.647603,0.089902,-0.300730,0.271978
32117,8.783104,-2.434494,4.661638,0.115136,-0.308772,0.276762
32118,8.671491,-2.260473,4.868113,0.128206,-0.286356,0.259664
32119,8.517980,-1.917347,5.217970,0.140634,-0.248959,0.229851
32120,8.343008,-1.485930,5.578897,0.111480,-0.205306,0.199625
32121,8.276719,-1.274620,5.658039,-0.007197,-0.194231,0.184889
32122,8.384308,-1.405137,5.384530,-0.140656,-0.204279,0.187056
32123,8.585709,-1.728466,4.979367,-0.200788,-0.203490,0.200716
32124,8.798168,-2.015868,4.731272,-0.191667,-0.189834,0.205386
32125,8.891194,-2.364560,4.659522,-0.130023,-0.161018,0.206369
32126,8.827076,-2.708746,4.597930,-0.029568,-0.134557,0.207334
32127,8.631350,-2.828709,4.539112,0.065955,-0.137274,0.209401
32128,8.549391,-2.853289,4.427913,0.137161,-0.142511,0.217634
32129,8.437638,-2.878742,4.348596,0.202686,-0.147517,0.219595
32130,8.377620,-2.724915,4.321398,0.249158,-0.155344,0.211987
32131,8.263024,-2.514821,4.245646,0.269509,-0.158262,0.199518
32132,8.234671,-2.339046,4.326527,0.247485,-0.162280,0.176524
32133,8.201049,-2.159767,4.281329,0.210086,-0.166452,0.163897
32134,8.195488,-2.053815,4.331638,0.160791,-0.177550,0.156264
32135,8.239475,-2.184616,4.247295,0.106374,-0.194089,0.152242
32136,8.264492,-2.309658,4.105249,0.091391,-0.196361,0.156042
32137,8.359328,-2.372485,4.074973,0.097371,-0.198244,0.153940
32138,8.403212,-2.320443,4.045509,0.119595,-0.187711,0.133082
32139,8.329430,-2.181682,4.184728,0.150213,-0.175347,0.094076
32140,8.301783,-1.982066,4.274486,0.149766,-0.174367,0.062161
32141,8.385163,-1.919989,4.339947,0.132682,-0.172031,0.039574
32142,8.443490,-1.895019,4.281322,0.092907,-0.166503,0.028697
32143,8.486494,-1.941292,4.260856,0.051626,-0.161958,0.036250
32144,8.527676,-1.958962,4.201327,0.014894,-0.172930,0.037247
32145,8.648776,-2.026958,4.191135,-0.024425,-0.181734,0.037735
32146,8.683049,-2.088179,4.253514,-0.061709,-0.179533,0.037303
32147,8.601937,-2.148181,4.229042,-0.078475,-0.163954,0.023115
32148,8.539218,-2.199743,4.242588,-0.094841,-0.152293,0.013618
32149,8.493035,-2.290108,4.192275,-0.098446,-0.149548,0.001427
32150,8.548953,-2.313877,4.221011,-0.091245,-0.149012,-0.016780
32151,8.626689,-2.301349,4.214367,-0.122444,-0.149274,-0.017623
32152,8.733469,-2.440321,4.239640,-0.154597,-0.161286,-0.011828
32153,8.783439,-2.603586,4.152483,-0.134226,-0.168183,-0.007843
32154,8.740971,-2.586272,4.091704,-0.088006,-0.166642,-0.021210
32155,8.713687,-2.418371,4.057970,-0.056859,-0.163947,-0.039922
32156,8.737017,-2.328757,4.177439,-0.060535,-0.161160,-0.052079
32157,8.853228,-2.280408,4.224848,-0.085907,-0.152709,-0.055652
32158,8.809614,-2.347883,4.348082,-0.119055,-0.130407,-0.045987
32159,8.723358,-2.308786,4.407086,-0.147588,-0.107191,-0.043551
32160,8.724155,-2.261211,4.564572,-0.186002,-0.096485,-0.048341
32161,8.806208,-2.313848,4.634144,-0.238049,-0.089378,-0.041762
32162,8.854885,-2.495593,4.567633,-0.282337,-0.080913,-0.026739
32163,8.912749,-2.699354,4.450261,-0.296401,-0.072765,-0.019181
32164,8.938007,-2.903543,4.398539,-0.276115,-0.059869,-0.025002
32165,8.907697,-3.036771,4.250840,-0.210633,-0.038300,-0.019780
32166,8.839536,-2.934586,4.211409,-0.107958,-0.023226,-0.037103
32167,8.769949,-2.811380,4.156963,-0.052487,-0.019217,-0.059659
32168,8.724909,-2.818074,4.149412,-0.017280,-0.013137,-0.060638
32169,8.682261,-2.809252,4.090661,0.019258,-0.008460,-0.060484
32170,8.593968,-2.703246,4.022895,0.051465,0.003141,-0.064781
32171,8.491361,-2.574358,4.040738,0.065497,0.012066,-0.074417
32172,8.473437,-2.572472,4.006327,0.066560,0.004058,-0.077458
32173,8.521239,-2.583450,3.858242,0.075196,-0.000528,-0.071489
32174,8.536204,-2.503169,3.823471,0.090264,0.008973,-0.079185
32175,8.590229,-2.406935,3.862665,0.090585,0.007606,-0.094050
32176,8.613396,-2.403972,3.920504,0.069877,0.006360,-0.098044
32177,8.587633,-2.396815,3.954122,0.046573,0.006614,-0.094566
32178,8.543987,-2.414637,3.968536,0.011400,-0.000240,-0.085625
32179,8.591714,-2.381157,3.954716,-0.026438,-0.004286,-0.078986
32180,8.682410,-2.336910,3.979114,-0.062359,-0.005827,-0.065962
32181,8.758309,-2.425866,3.956003,-0.095414,-0.010247,-0.069128
32182,8.773636,-2.475386,3.939922,-0.105235,-0.006976,-0.062776
32183,8.769536,-2.532125,3.887072,-0.094613,-0.007704,-0.072512
32184,8.821570,-2.503593,3.836476,-0.074179,-0.012360,-0.080601
32185,8.847812,-2.492536,3.836612,-0.041878,-0.009847,-0.094183
32186,8.888485,-2.423037,3.819788,0.011449,0.001233,-0.119812
32187,8.856902,-2.349803,4.005467,0.037000,0.020027,-0.148171
32188,8.725143,-2.248291,4.127543,0.062661,0.037482,-0.172883
32189,8.606224,-2.225416,4.309150,0.057861,0.048230,-0.200220
32190,8.592125,-2.381652,4.391981,0.037868,0.057302,-0.194663
32191,8.590759,-2.544026,4.373045,0.033347,0.072654,-0.200113
32192,8.499891,-2.594357,4.233891,0.059563,0.084812,-0.216440
32193,8.426459,-2.343994,4.186797,0.127639,0.089808,-0.256565
32194,8.429867,-1.965887,4.301444,0.154827,0.120755,-0.313363
32195,8.564813,-1.682236,4.351896,0.086624,0.126136,-0.342134
32196,8.788095,-1.647361,4.182198,-0.019901,0.113901,-0.342347
32197,8.945829,-1.936307,4.002819,-0.071344,0.105922,-0.332298
32198,9.037315,-2.247382,3.587600,-0.008017,0.083148,-0.282725
32199,8.988339,-2.444571,3.474749,0.099822,-0.017226,-0.218560
32200,8.916136,-2.796929,3.514435,0.206344,-0.197252,-0.178094
32201,9.239060,-3.300427,3.655061,0.331716,-0.368094,-0.232459
32202,9.595855,-3.394242,3.508704,0.551319,-0.429095,-0.374270
32203,9.761879,-2.732693,3.486355,0.769771,-0.349548,-0.535718
32204,9.535935,-1.795300,3.506604,0.817853,-0.220677,-0.649179
32205,9.224718,-1.077095,3.640103,0.768878,-0.110859,-0.696251
32206,8.936518,-0.489141,3.822855,0.695855,-0.030824,-0.707653
32207,8.680391,-0.063429,4.093510,0.584751,0.015052,-0.700302
32208,8.450652,0.280366,4.268411,0.418844,0.016230,-0.705658
32209,8.250515,0.389636,4.326992,0.188481,-0.023093,-0.715193
32210,8.228482,0.306001,4.247229,-0.060891,-0.085234,-0.731229
32211,8.341374,-0.054407,4.031429,-0.249596,-0.130663,-0.742886
32212,8.460141,-0.427830,3.864607,-0.337238,-0.141218,-0.759555
32213,8.512053,-0.821386,3.722733,-0.359452,-0.135973,-0.770214
32214,8.565188,-1.136038,3.606303,-0.316302,-0.126403,-0.780530
32215,8.671450,-1.369834,3.505926,-0.227424,-0.119415,-0.800292
32216,8.785709,-1.586014,3.318915,-0.077989,-0.113582,-0.833931
32217,8.916363,-1.715531,3.252383,0.114930,-0.098981,-0.875221
32218,8.911600,-1.625709,3.192289,0.328164,-0.093935,-0.921462
32219,8.788847,-1.392647,3.232256,0.525252,-0.101457,-0.959480
32220,8.700110,-0.941090,3.326753,0.658550,-0.122214,-0.987537
32221,8.620433,-0.539409,3.526369,0.693171,-0.157011,-0.983589
32222,8.628673,-0.207459,3.614382,0.631575,-0.182437,-0.971773
32223,8.710092,-0.049050,3.739808,0.495178,-0.225273,-0.929786
32224,8.832660,-0.018352,3.703683,0.351569,-0.255308,-0.890556
32225,8.946353,-0.080976,3.638179,0.231581,-0.279392,-0.850103
32226,9.057511,-0.184543,3.486522,0.146996,-0.301484,-0.822320
32227,9.130391,-0.213151,3.337242,0.092216,-0.318305,-0.806487
32228,9.204076,-0.243729,3.185923,0.049428,-0.337295,-0.796740
32229,9.300108,-0.324744,3.144630,0.018233,-0.358764,-0.781793
32230,9.331768,-0.493220,3.156747,-0.003806,-0.363143,-0.758616
32231,9.341982,-0.572454,3.207998,-0.007390,-0.369373,-0.715829
32232,9.420354,-0.675064,3.283853,-0.006699,-0.383658,-0.663329
32233,9.456775,-0.699437,3.275336,0.014236,-0.397972,-0.612098
32234,9.461702,-0.717167,3.192063,0.046990,-0.408456,-0.566056
32235,9.481573,-0.666566,3.118763,0.092924,-0.427159,-0.533652
32236,9.549245,-0.509881,3.158607,0.142631,-0.432501,-0.512924
32237,9.703562,-0.356019,3.223418,0.194049,-0.404378,-0.515919
32238,9.584480,-0.222603,3.412404,0.259234,-0.367352,-0.509093
32239,9.330680,-0.102201,3.524771,0.307251,-0.400245,-0.491487
32240,9.302375,-0.067500,3.519591,0.346476,-0.455949,-0.473163
32241,9.434623,0.079349,3.455401,0.426182,-0.468716,-0.449478
32242,9.473319,0.236923,3.434105,0.472659,-0.469860,-0.417867
32243,9.417923,0.444635,3.329700,0.486701,-0.475659,-0.403578
32244,9.414471,0.699290,3.169135,0.538903,-0.444276,-0.418165
32245,9.387036,1.047142,3.258272,0.578874,-0.382647,-0.431038
32246,9.211613,1.354494,3.419672,0.515541,-0.327175,-0.440802
32247,8.934181,1.540552,3.526529,0.382425,-0.349230,-0.460892
32248,9.042537,1.564795,3.391673,0.299036,-0.393578,-0.514267
32249,9.483194,1.371763,3.369627,0.272300,-0.391577,-0.472253
32250,9.342066,0.569667,3.091072,0.238977,-0.404698,-0.337101
32251,9.468042,-0.382145,2.702255,0.230712,-0.479306,-0.208596
32252,9.730944,-0.782149,2.168530,0.240121,-0.554775,-0.153771
32253,10.125378,-0.735265,1.944091,0.338566,-0.538440,-0.132382
32254,10.171786,-0.247489,2.206158,0.571754,-0.395805,-0.109549
32255,9.777023,0.630682,2.545183,0.731593,-0.271028,-0.096144
32256,9.430463,1.560233,2.821940,0.693707,-0.221474,-0.102358
32257,9.332061,2.376993,3.028384,0.472316,-0.199119,-0.100192
32258,9.333149,2.903965,3.186797,0.105603,-0.174449,-0.094360
32259,9.216128,2.928517,3.275659,-0.319766,-0.168053,-0.097118
32260,9.221502,2.446564,3.257318,-0.624686,-0.182125,-0.114879
32261,9.238677,1.833549,3.101534,-0.772540,-0.209470,-0.112640
32262,9.396053,1.211062,2.797235,-0.825913,-0.222829,-0.107568
32263,9.632899,0.760730,2.629334,-0.747462,-0.208185,-0.088844
32264,9.669263,0.534586,2.597041,-0.589024,-0.180220,-0.076813
32265,9.753124,0.448879,2.525097,-0.437053,-0.152103,-0.063199
32266,9.854627,0.464178,2.440531,-0.293474,-0.104123,-0.051767
32267,9.876420,0.534495,2.528900,-0.168622,-0.033696,-0.048998
32268,9.757341,0.540321,2.563770,-0.086069,0.001352,-0.064475
32269,9.724658,0.668039,2.530581,-0.025451,0.024506,-0.067784
32270,9.592229,0.820237,2.566341,0.049065,0.036778,-0.072315
32271,9.538901,0.989210,2.598848,0.086492,0.033817,-0.075835
32272,9.474010,1.154951,2.508960,0.086726,0.027551,-0.071224
32273,9.410887,1.344995,2.588804,0.081032,0.017132,-0.066764
32274,9.439048,1.397173,2.599642,0.027531,0.004227,-0.059278
32275,9.458235,1.312790,2.473016,-0.030398,-0.004786,-0.049620
32276,9.549466,1.184680,2.438850,-0.064275,-0.013050,-0.045257
32277,9.540786,1.011649,2.307313,-0.057840,-0.008661,-0.048918
32278,9.530075,1.026659,2.287906,0.006964,-0.005468,-0.041809
32279,9.489207,1.147964,2.410020,0.066023,-0.002917,-0.034451
32280,9.497819,1.230073,2.450134,0.075714,0.003912,-0.028034
32281,9.407421,1.281696,2.495532,0.080130,-0.000079,-0.015561
32282,9.447075,1.266747,2.461932,0.071059,-0.000977,-0.014076
32283,9.465939,1.331075,2.486632,0.083502,0.002995,-0.010904
32284,9.444308,1.403415,2.475508,0.078312,0.000266,-0.011120
32285,9.463931,1.420227,2.471755,0.047600,-0.011294,-0.008383
32286,9.483250,1.431239,2.434118,0.036989,-0.000185,-0.008438
32287,9.463200,1.470393,2.498249,0.032214,0.007003,-0.002049
32288,9.443377,1.399348,2.404744,-0.013049,0.000367,-0.006028
32289,9.445731,1.269030,2.389804,-0.013050,0.000367,-0.006028
32290,9.474421,1.309339,2.366235,0.022021,0.005089,-0.002126
32291,9.452736,1.379321,2.356380,0.032222,0.012165,0.000448
32292,9.442087,1.448568,2.433903,0.032044,0.008647,0.000064
32293,9.471575,1.446687,2.417368,0.005769,0.016138,0.007236
32294,9.463091,1.379051,2.446189,0.000744,0.006614,0.002404
32295,9.462929,1.378911,2.446894,0.003508,0.008906,0.001663
32296,9.511722,1.385828,2.394151,-0.005595,0.015475,0.002267
32297,9.502444,1.365254,2.451343,-0.015832,0.015847,-0.001162
32298,9.511305,1.333030,2.335573,-0.020281,0.014583,-0.001484
32299,9.491039,1.313121,2.305451,-0.013023,0.015850,0.001447
32300,9.472073,1.256254,2.315581,-0.015353,0.010854,0.007163
32301,9.484029,1.155241,2.313707,-0.002278,-0.002122,0.011556
32302,9.536594,0.988909,2.251020,-0.015493,-0.000108,0.007625
32303,9.487472,0.860621,2.078506,-0.003528,-0.003799,0.015467
32304,9.426125,0.942106,2.065881,0.048194,-0.005395,0.014160
32305,9.433178,1.155319,2.154649,0.071384,-0.001577,0.016948
32306,9.351394,1.322459,2.233384,0.049137,-0.007887,0.015332
32307,9.380895,1.424341,2.338636,-0.000994,-0.007889,0.008503
32308,9.412125,1.384271,2.361357,-0.052155,-0.008331,0.009324
32309,9.425466,1.245309,2.399595,-0.086659,-0.009938,0.007427
32310,9.477928,1.071645,2.302268,-0.081314,-0.021551,0.018575
32311,9.558267,1.089040,2.332375,-0.031253,-0.011821,0.021184
32312,9.516659,1.235693,2.379383,0.016212,-0.006023,0.022412
32313,9.545778,1.325856,2.416820,0.019925,-0.006216,0.022825
32314,9.596602,1.351706,2.498627,0.028702,-0.004345,0.028927
32315,9.625856,1.441472,2.536024,0.038381,-0.002671,0.032838
32316,9.605909,1.466560,2.531461,0.028201,0.000584,0.035260
32317,9.604764,1.547505,2.518666,0.018145,0.004485,0.032223
32318,9.575839,1.500032,2.508532,-0.006223,0.001947,0.024565
32319,9.576928,1.403560,2.453632,-0.027806,0.006859,0.018659
32320,9.546957,1.345970,2.376414,-0.028219,0.014726,0.016179
32321,9.497831,1.284611,2.370195,-0.016508,0.017230,0.019436
32322,9.487322,1.293441,2.352975,-0.008859,0.018059,0.024001
32323,9.477445,1.312579,2.404045,0.003757,0.020367,0.025064
32324,9.476544,1.352087,2.399704,0.000782,0.022013,0.024567
32325,9.516539,1.336485,2.403046,-0.002747,0.013117,0.022897
32326,9.517145,1.292590,2.410881,-0.014312,0.016422,0.016680
32327,9.496754,1.266199,2.346325,-0.021943,0.008147,0.012963
32328,9.506984,1.253145,2.366813,-0.020445,0.016201,0.015293
32329,9.467485,1.170429,2.311358,-0.049208,0.015305,0.013145
32330,9.488441,1.046673,2.261548,-0.031198,0.016370,0.015695
32331,9.477769,1.108137,2.306357,0.012214,0.020398,0.018265
32332,9.486530,1.178988,2.314661,0.015021,0.020389,0.020878
32333,9.535621,1.241686,2.358877,0.010146,0.021852,0.015573
32334,9.555413,1.207569,2.330692,-0.003765,0.020167,0.015068
32335,9.525636,1.213484,2.383946,0.000667,0.016260,0.012893
32336,9.495427,1.209477,2.368431,-0.006612,0.009866,0.007446
32337,9.515665,1.180911,2.373342,-0.022390,0.005707,0.005476
32338,9.516372,1.143308,2.414805,-0.016103,0.011724,0.003920
32339,9.496961,1.029535,2.328210,-0.005539,0.008031,0.003139
