// Start Time: Unknown
// Update Rate: 100.0Hz
// Filter Profile: human (46.1)
// Firmware Version: 4.3.5
PacketCounter,Acc_X,Acc_Y,Acc_Z,Gyr_X,Gyr_Y,Gyr_Z
20850,9.367012,-2.830168,1.333393,-0.006517,0.012137,-0.018086
20851,9.398643,-2.850478,1.364884,0.000779,0.011950,-0.014980
20852,9.425077,-2.815254,1.324103,0.005263,0.009198,-0.015178
20853,9.417921,-2.835750,1.317082,0.006680,0.008211,-0.011591
20854,9.398559,-2.791965,1.368717,0.009607,0.007624,-0.010219
20855,9.415941,-2.790424,1.352235,0.007434,0.005153,-0.009150
20856,9.416046,-2.789706,1.352981,0.007295,0.006330,-0.003993
20857,9.391549,-2.811371,1.362947,0.003774,0.004257,-0.009092
20858,9.384906,-2.766725,1.323699,0.005053,0.004448,-0.000345
20859,9.398211,-2.734128,1.372670,0.001533,0.002375,-0.005444
20860,9.416374,-2.787693,1.354847,-0.004393,0.004136,-0.005612
20861,9.400768,-2.776427,1.339998,-0.000804,0.005621,-0.003092
20862,9.423880,-2.765134,1.363601,-0.006613,0.004229,-0.005191
20863,9.439536,-2.775775,1.379374,-0.004629,0.010441,-0.001752
20864,9.410626,-2.796935,1.316009,-0.010273,0.003333,-0.005133
20865,9.416547,-2.786147,1.356823,-0.003733,0.006207,-0.004467
20866,9.416611,-2.785763,1.357170,-0.006614,0.004229,-0.005193
20867,9.384794,-2.829303,1.358585,0.003161,-0.000376,-0.009591
20868,9.409715,-2.805808,1.349410,0.012817,-0.001828,-0.012059
20869,9.398761,-2.794433,1.407467,0.015105,-0.002509,-0.015061
20870,9.373737,-2.760464,1.417955,0.018004,0.001444,-0.017566
20871,9.402762,-2.767966,1.343504,0.015735,0.004099,-0.017797
20872,9.394943,-2.733357,1.336842,0.000341,0.003565,-0.020007
20873,9.426726,-2.753333,1.367798,-0.001998,0.006809,-0.017657
20874,9.449540,-2.806779,1.423309,-0.013804,0.007759,-0.017348
20875,9.452317,-2.848727,1.390457,-0.006578,0.008171,-0.011657
20876,9.436910,-2.836670,1.375864,0.003077,0.006724,-0.014126
20877,9.420036,-2.835765,1.393825,0.013492,0.002223,-0.014150
20878,9.420429,-2.834101,1.394551,0.018658,0.003522,-0.016428
20879,9.412539,-2.799601,1.387997,0.013559,0.001632,-0.016734
20880,9.412926,-2.797962,1.388676,0.007510,0.006539,-0.014976
20881,9.372907,-2.808375,1.383590,0.002153,0.008982,-0.008188
20882,9.373013,-2.807578,1.384492,0.002152,0.008982,-0.008189
20883,9.318093,-2.862485,1.363427,-0.001715,0.009852,-0.000387
20884,9.340962,-2.851423,1.387716,0.003380,0.011743,-0.000084
20885,9.365394,-2.828841,1.379628,0.008597,0.010480,-0.001710
20886,9.382566,-2.827898,1.363508,0.012376,0.008227,-0.003699
20887,9.428553,-2.805213,1.411423,0.014489,0.013262,-0.005426
20888,9.430234,-2.792629,1.380463,0.007353,0.014224,-0.016939
20889,9.449218,-2.779247,1.332296,-0.003916,0.020392,-0.013560
20890,9.449303,-2.778163,1.333954,-0.005374,0.017429,-0.010690
20891,9.424830,-2.799630,1.344652,-0.015670,0.018770,-0.012607
20892,9.434778,-2.820214,1.320755,-0.015815,0.019950,-0.007447
20893,9.410160,-2.842293,1.331227,-0.018710,0.015995,-0.004941
20894,9.394419,-2.831298,1.316881,-0.008363,0.012091,-0.002370
20895,9.352570,-2.854077,1.344200,0.002840,0.006518,-0.003162
20896,9.402673,-2.863549,1.325804,0.011572,0.007340,0.000324
20897,9.409985,-2.841197,1.334799,0.016935,0.004899,-0.006462
20898,9.434625,-2.817994,1.326579,0.030156,0.002979,-0.003164
20899,9.416424,-2.763164,1.345547,0.017714,0.003817,-0.007248
20900,9.416539,-2.762351,1.346410,0.008785,0.006738,-0.006225
20901,9.416557,-2.761932,1.347142,-0.007528,0.008446,-0.002504
20902,9.417558,-2.816402,1.347050,-0.017167,0.011856,-0.003281
20903,9.392920,-2.838873,1.356828,-0.020115,0.010464,-0.001427
20904,9.369231,-2.916389,1.365632,-0.012077,0.005271,0.007386
20905,9.351680,-2.917761,1.383151,0.006365,0.002093,0.009069
20906,9.401614,-2.928101,1.364175,0.012421,-0.002810,0.007321
20907,9.408565,-2.907283,1.372332,0.026185,-0.006011,0.020819
20908,9.430978,-2.897973,1.395644,0.028434,-0.010636,0.024284
20909,9.444940,-2.856494,1.411419,0.015700,-0.007432,0.030521
20910,9.442402,-2.871055,1.443675,0.004384,-0.005206,0.040355
20911,9.449471,-2.907980,1.450669,-0.009913,0.000167,0.048152
20912,9.446218,-2.924781,1.482914,-0.020601,0.002496,0.062352
20913,9.482806,-2.931308,1.521190,-0.034909,0.007871,0.070131
20914,9.526340,-2.917381,1.567558,-0.047181,0.012361,0.085863
20915,9.571820,-2.828191,1.549492,-0.080937,0.019264,0.104311
20916,9.557763,-2.795123,1.436118,-0.106556,0.026283,0.119239
20917,9.554982,-2.918794,1.433550,-0.142765,0.029908,0.146995
20918,9.594141,-3.132116,1.401886,-0.150385,0.029479,0.180862
20919,9.738228,-3.263906,1.479558,-0.153736,0.034136,0.241305
20920,9.771221,-3.349905,1.589653,-0.188359,0.069558,0.309668
20921,9.774013,-3.642383,1.738899,-0.229569,0.095327,0.399261
20922,9.783718,-4.027538,1.656857,-0.259221,0.115728,0.509662
20923,9.720014,-4.140384,1.617231,-0.290782,0.126672,0.618233
20924,9.748052,-4.048172,1.643604,-0.340572,0.136059,0.718786
20925,9.673474,-3.945916,1.707078,-0.447561,0.149982,0.835389
20926,9.705806,-3.943299,1.669984,-0.590707,0.168270,0.946570
20927,9.697324,-4.247830,1.625603,-0.711904,0.187200,1.057159
20928,9.754455,-4.916815,1.724729,-0.795774,0.233460,1.186048
20929,9.734779,-5.555730,1.829444,-0.822149,0.274674,1.305185
20930,9.644669,-5.810852,1.803385,-0.821753,0.302400,1.409414
20931,9.501618,-5.810535,1.692688,-0.823635,0.313600,1.508790
20932,9.402761,-5.917656,1.564807,-0.836603,0.330790,1.604919
20933,9.196513,-6.154372,1.368932,-0.833194,0.331931,1.694783
20934,9.238841,-6.703683,1.567289,-0.773508,0.323134,1.809840
20935,9.383795,-7.344370,1.944525,-0.673658,0.363842,1.939810
20936,9.385367,-7.458908,2.132332,-0.555161,0.395812,2.018763
20937,9.267202,-7.306382,2.185814,-0.467318,0.429270,2.085220
20938,8.914406,-6.888466,1.994282,-0.425940,0.451775,2.135523
20939,8.319521,-6.521776,1.489845,-0.430153,0.445102,2.168201
20940,7.901367,-6.707693,1.202992,-0.429385,0.429812,2.207475
20941,7.788979,-7.326264,1.370656,-0.322543,0.407876,2.245341
20942,7.959721,-8.198667,1.941373,-0.111048,0.410561,2.292680
20943,8.053629,-8.489826,2.477285,0.155073,0.445794,2.319998
20944,7.862470,-8.127239,2.720648,0.379611,0.482000,2.308064
20945,7.465992,-7.519282,2.655567,0.503440,0.492034,2.284255
20946,7.066950,-7.004693,2.315836,0.544325,0.487156,2.264855
20947,6.723665,-6.889879,1.984916,0.528640,0.458720,2.239694
20948,6.500463,-6.981557,1.697293,0.517265,0.427620,2.210377
20949,6.203704,-7.319648,1.537940,0.554677,0.390395,2.174417
20950,6.101172,-7.693858,1.751727,0.672650,0.348976,2.118739
20951,5.995668,-7.724552,1.900706,0.821659,0.315121,2.048566
20952,6.068333,-7.750395,2.297397,0.942403,0.280303,1.975461
20953,5.946142,-7.559433,2.512329,1.039419,0.285598,1.879358
20954,5.635586,-7.218910,2.530946,1.099634,0.279235,1.801690
20955,5.281738,-6.824570,2.199904,1.102051,0.286060,1.726418
20956,4.916279,-6.817339,1.916519,1.076345,0.277256,1.647695
20957,4.544067,-6.828842,1.461842,1.059832,0.250198,1.553548
20958,4.236583,-6.638952,1.337669,1.034944,0.205029,1.469921
20959,4.103734,-6.299723,1.493494,0.968122,0.164813,1.378560
20960,4.272656,-6.190180,1.907639,0.842289,0.140994,1.298859
20961,4.558390,-6.216487,2.470065,0.689774,0.158281,1.222988
20962,4.782112,-6.323337,2.887592,0.524411,0.179918,1.150169
20963,4.896310,-6.428716,3.077259,0.363399,0.211782,1.079120
20964,4.700480,-6.673764,2.755375,0.240492,0.231453,1.023334
20965,4.426698,-6.815526,2.329643,0.187774,0.222387,0.954837
20966,4.237707,-6.970424,2.011143,0.169440,0.190311,0.884671
20967,4.329469,-6.918367,1.997160,0.150388,0.149592,0.821841
20968,4.463208,-6.821017,2.155062,0.109558,0.121417,0.742597
20969,4.607592,-6.773289,2.362364,0.068074,0.103873,0.653932
20970,4.727350,-6.698234,2.592915,0.015791,0.095561,0.571480
20971,4.908028,-6.725873,2.719554,-0.038629,0.103126,0.504134
20972,4.894544,-6.869367,2.640348,-0.092509,0.102096,0.445687
20973,4.948367,-7.102709,2.367339,-0.119512,0.095629,0.399015
20974,4.816353,-7.402337,2.167984,-0.106760,0.062444,0.350242
20975,4.619187,-7.709753,1.993222,-0.020632,0.007356,0.295370
20976,4.478079,-7.855426,1.903984,0.121227,-0.075967,0.238315
20977,4.610280,-7.791856,2.145533,0.266153,-0.138244,0.191962
20978,4.838460,-7.493481,2.440256,0.378645,-0.178353,0.131017
20979,5.031285,-7.253975,2.709579,0.396108,-0.198480,0.088310
20980,5.220557,-7.191852,2.840407,0.375787,-0.197893,0.038650
20981,5.306288,-7.310164,2.902196,0.327974,-0.186799,0.012402
20982,5.393726,-7.428203,2.961521,0.280819,-0.178318,-0.011185
20983,5.449123,-7.576783,3.057954,0.232555,-0.155458,-0.023916
20984,5.294372,-7.562104,3.011716,0.212341,-0.137065,-0.040097
20985,5.093571,-7.621275,2.899721,0.202357,-0.143598,-0.054374
20986,5.031407,-7.847460,2.895296,0.197338,-0.160394,-0.051254
20987,5.031697,-8.013639,2.943175,0.218919,-0.190548,-0.043271
20988,5.080299,-8.180183,2.956781,0.231243,-0.214256,-0.020053
20989,5.395522,-8.165268,3.710004,0.214106,-0.233943,0.006496
20990,5.544376,-8.802181,3.069819,0.179550,-0.292704,0.078202
20991,6.145518,-9.545648,2.871832,0.219635,-0.373900,0.154714
20992,6.110758,-9.227448,2.896820,0.154234,-0.317627,0.286266
20993,6.318564,-9.261447,3.509348,-0.063539,-0.337557,0.444281
20994,6.647121,-10.533668,3.768184,-0.260600,-0.300300,0.612495
20995,6.720633,-11.696819,3.677853,-0.270643,-0.280532,0.776419
20996,6.894613,-12.232574,4.283365,-0.219303,-0.202065,0.921081
20997,6.962942,-13.267938,4.599267,-0.076904,-0.153905,1.091026
20998,6.671436,-14.263822,4.797013,0.227319,-0.125125,1.287815
20999,6.177272,-14.670687,4.650908,0.605521,-0.153608,1.498789
21000,5.603144,-14.253120,4.394431,0.919008,-0.162509,1.728645
21001,4.898007,-13.301061,4.322842,1.047844,-0.180916,1.931974
21002,4.341178,-12.636232,4.374181,1.000984,-0.194936,2.132113
21003,4.046073,-12.618737,4.604422,0.874343,-0.196532,2.327629
21004,3.892020,-12.837995,4.860078,0.747951,-0.185296,2.514261
21005,3.606551,-13.254472,5.041978,0.676536,-0.170653,2.700115
21006,3.240604,-13.538340,5.201869,0.709176,-0.158781,2.869333
21007,2.733695,-13.772837,5.331265,0.828435,-0.138369,3.027649
21008,2.186184,-13.643343,5.308461,1.000896,-0.137531,3.167360
21009,1.859332,-13.143385,5.380495,1.140019,-0.122728,3.308449
21010,1.583804,-12.852789,5.489521,1.207192,-0.103617,3.454082
21011,1.432287,-12.571762,5.554772,1.251580,-0.076084,3.579385
21012,1.280890,-12.165378,5.641686,1.251552,-0.048152,3.680940
21013,1.026919,-11.643078,5.794182,1.225314,-0.033260,3.772232
21014,0.698123,-11.468102,5.780242,1.120037,-0.041515,3.881635
21015,0.618454,-11.143897,5.678728,1.068181,-0.065337,3.970003
21016,0.319306,-10.831471,5.582844,1.057454,-0.083418,4.022700
21017,-0.088082,-10.841076,5.615735,1.091943,-0.109788,4.090007
21018,-0.419898,-10.782223,5.568854,1.219069,-0.145270,4.138744
21019,-0.615547,-10.708690,5.671053,1.356596,-0.172567,4.166659
21020,-0.839751,-10.221979,5.639461,1.467687,-0.191159,4.208885
21021,-1.255591,-9.565790,5.665035,1.512918,-0.193087,4.215737
21022,-1.695783,-8.829295,5.862810,1.509996,-0.194150,4.214958
21023,-2.267985,-8.286071,5.974023,1.458406,-0.209776,4.195422
21024,-2.805110,-8.224909,5.890531,1.403743,-0.264801,4.202309
21025,-3.106528,-8.121183,5.696172,1.430181,-0.327090,4.158980
21026,-3.347087,-8.353536,5.536955,1.487857,-0.385066,4.113516
21027,-3.416047,-8.544802,5.435728,1.614115,-0.422415,4.092716
21028,-3.516160,-8.195653,5.518945,1.805761,-0.451147,4.040552
21029,-3.687352,-7.595841,5.731892,2.028317,-0.465251,3.965182
21030,-3.894637,-6.977131,5.854113,2.228719,-0.466960,3.895504
21031,-4.099127,-6.286959,5.926890,2.414102,-0.445701,3.810835
21032,-4.464770,-5.705161,5.870338,2.561983,-0.447211,3.714008
21033,-4.509974,-5.285924,5.742953,2.700498,-0.456166,3.610112
21034,-4.415331,-4.873679,5.841119,2.820736,-0.453626,3.489598
21035,-4.163779,-4.405455,6.079355,2.898078,-0.406408,3.395399
21036,-4.218411,-3.855131,6.178533,2.942716,-0.368002,3.287431
21037,-4.396100,-3.546771,6.060547,2.933245,-0.338810,3.185165
21038,-4.615631,-3.199101,5.849251,2.990154,-0.299007,3.071349
21039,-4.731594,-2.875098,5.802433,3.066377,-0.284584,2.924473
21040,-4.664838,-2.675116,5.769158,3.159001,-0.276018,2.803170
21041,-4.468145,-2.371437,5.706305,3.250395,-0.260832,2.674131
21042,-4.350249,-2.064867,5.677940,3.322659,-0.239918,2.554696
21043,-4.119139,-1.677576,5.571568,3.386698,-0.203366,2.443991
21044,-4.173503,-1.111679,5.559044,3.389279,-0.151996,2.332855
21045,-4.219431,-0.449017,5.597647,3.281927,-0.117088,2.243754
21046,-4.232309,0.281544,5.494334,3.128887,-0.075516,2.133415
21047,-4.230911,0.848234,5.387881,2.913761,-0.053425,2.033570
21048,-4.133928,1.209052,5.166457,2.679896,-0.028685,1.940040
21049,-3.948962,1.344146,5.078455,2.456462,-0.011299,1.851445
21050,-3.710933,1.232326,5.093476,2.261483,0.017554,1.768484
21051,-3.656268,1.098519,4.912823,2.161172,0.037843,1.683032
21052,-3.780294,1.143403,4.858814,2.118040,0.040369,1.606905
21053,-3.792789,1.421399,4.952976,2.100807,0.044090,1.544183
21054,-3.654857,1.897050,5.016781,2.078077,0.046062,1.466134
21055,-3.450694,2.299393,5.041490,2.020578,0.054665,1.395655
21056,-3.374291,2.621927,4.882904,1.935243,0.079414,1.336500
21057,-3.463638,2.827025,4.650426,1.840307,0.094507,1.275802
21058,-3.557217,2.841140,4.321721,1.750422,0.094197,1.228687
21059,-3.568370,2.813717,4.126035,1.673224,0.076233,1.185911
21060,-3.540258,2.777878,4.378922,1.624763,0.073858,1.133245
21061,-3.451886,2.824728,4.747869,1.604895,0.080730,1.091148
21062,-3.334256,3.070363,4.863518,1.600204,0.087367,1.055748
21063,-3.249195,3.347200,4.754681,1.564209,0.105358,1.015019
21064,-3.172454,3.600881,4.444407,1.493514,0.124245,0.976114
21065,-3.163691,3.909749,4.149357,1.396619,0.155647,0.944003
21066,-3.207079,4.206074,4.069754,1.294277,0.167648,0.907988
21067,-3.263288,4.525991,4.262542,1.211243,0.161029,0.879390
21068,-3.266515,4.706895,4.406739,1.127616,0.147748,0.838636
21069,-3.277991,4.877448,4.519881,1.058983,0.133552,0.803111
21070,-3.297099,5.175768,4.556948,0.976460,0.134424,0.761218
21071,-3.300716,5.646380,4.531315,0.869527,0.135257,0.714887
21072,-3.370050,6.094040,4.379011,0.728011,0.145964,0.662637
21073,-3.486363,6.405472,4.306878,0.554723,0.130607,0.607190
21074,-3.507564,6.558186,4.267501,0.388783,0.110170,0.537444
21075,-3.430708,6.645646,4.190903,0.238871,0.073326,0.451043
21076,-3.320082,6.659524,4.192611,0.105956,0.051567,0.355545
21077,-3.156205,6.623572,4.125087,-0.029874,0.033616,0.256207
21078,-3.012254,6.584579,4.106318,-0.154531,0.023214,0.146058
21079,-2.954050,6.617687,3.996142,-0.275205,0.017129,0.032913
21080,-2.997583,6.620605,3.985806,-0.382797,0.015567,-0.083709
21081,-3.057547,6.562457,3.927511,-0.482528,0.006521,-0.204969
21082,-3.014272,6.430798,3.997384,-0.565844,-0.014676,-0.333055
21083,-3.009175,6.276369,4.048424,-0.663689,-0.015664,-0.447976
21084,-3.062748,6.092444,4.238466,-0.753165,-0.026640,-0.561085
21085,-3.160311,5.852104,4.364080,-0.848936,-0.038378,-0.662249
21086,-3.306214,5.632685,4.533049,-0.944904,-0.057356,-0.755888
21087,-3.392585,5.346027,4.611306,-1.062372,-0.073591,-0.845224
21088,-3.529152,5.056652,4.628646,-1.178614,-0.096597,-0.928603
21089,-3.392044,4.832747,4.644798,-1.300898,-0.127312,-1.020580
21090,-3.235465,4.650821,4.681924,-1.431718,-0.139158,-1.113074
21091,-3.160840,4.463337,4.798492,-1.584731,-0.144216,-1.194168
21092,-3.305306,4.329553,5.052323,-1.756281,-0.145429,-1.260689
21093,-3.612951,4.078425,5.211297,-1.938688,-0.155089,-1.319720
21094,-3.791913,3.744576,5.187392,-2.102518,-0.173209,-1.380795
21095,-3.886939,3.393826,5.140171,-2.237911,-0.191552,-1.448444
21096,-3.880448,3.043121,5.132762,-2.351433,-0.214831,-1.524990
21097,-3.820057,2.652634,5.127639,-2.446809,-0.228069,-1.598831
21098,-3.821647,2.168907,5.551768,-2.494597,-0.232088,-1.658731
21099,-3.979986,1.640138,5.734495,-2.508596,-0.243233,-1.711513
21100,-4.244555,1.353267,5.764210,-2.463674,-0.271329,-1.767907
21101,-4.400419,1.198354,5.716268,-2.417456,-0.296292,-1.827194
21102,-4.530824,1.154307,5.478199,-2.402053,-0.320104,-1.895811
21103,-4.433496,1.236607,5.074948,-2.447521,-0.344966,-1.971338
21104,-4.040810,1.208674,5.387601,-2.532439,-0.356967,-2.055998
21105,-3.566199,0.804475,5.834444,-2.640820,-0.325516,-2.132910
21106,-3.382462,0.193665,6.194166,-2.682054,-0.280949,-2.191157
21107,-3.734285,-0.368111,6.395042,-2.639214,-0.223201,-2.256179
21108,-4.292634,-0.850005,6.536820,-2.551701,-0.218021,-2.322478
21109,-4.692738,-1.144511,6.355416,-2.483123,-0.220966,-2.390418
21110,-4.871136,-1.196619,6.243352,-2.492047,-0.223844,-2.455910
21111,-4.907376,-1.070009,6.062997,-2.587051,-0.225784,-2.518000
21112,-4.628244,-0.978225,6.227676,-2.747613,-0.211000,-2.566448
21113,-4.392332,-1.490919,6.728814,-2.912493,-0.157804,-2.603254
21114,-4.160750,-2.484625,7.324420,-3.001318,-0.095480,-2.630710
21115,-4.054785,-3.602776,7.602759,-2.954020,-0.021486,-2.646794
21116,-4.251861,-4.405492,7.497946,-2.774696,0.045124,-2.657994
21117,-4.670509,-4.838531,7.094898,-2.542298,0.080711,-2.683349
21118,-5.137735,-5.040205,6.544085,-2.330743,0.099120,-2.728756
21119,-5.174502,-4.967731,6.151028,-2.182652,0.096841,-2.775710
21120,-4.793081,-4.643947,5.991250,-2.161404,0.096728,-2.805274
21121,-4.345968,-4.274520,6.190608,-2.245232,0.110539,-2.815719
21122,-3.803161,-4.210224,6.780499,-2.390522,0.154534,-2.836419
21123,-3.553687,-4.890921,7.114350,-2.526854,0.213924,-2.838054
21124,-3.567108,-6.011975,7.024466,-2.576688,0.281086,-2.831535
21125,-3.903837,-7.127095,6.567890,-2.507504,0.331650,-2.829333
21126,-4.142786,-7.961320,6.079159,-2.316250,0.342884,-2.840371
21127,-4.174626,-8.334754,5.683473,-2.037475,0.337479,-2.862461
21128,-4.208132,-8.124771,5.504073,-1.759624,0.297878,-2.874402
21129,-4.189766,-7.528323,5.628451,-1.573086,0.219889,-2.880663
21130,-3.919720,-6.904825,5.951051,-1.473315,0.124924,-2.900194
21131,-3.540155,-6.834724,6.364571,-1.467514,0.074170,-2.937087
21132,-3.243673,-7.421774,6.434670,-1.534441,0.057700,-2.931387
21133,-3.053893,-8.324744,6.272373,-1.561280,0.067948,-2.922706
21134,-2.904462,-9.301478,6.139193,-1.508585,0.058654,-2.907423
21135,-2.876972,-9.916358,6.150766,-1.459598,0.027309,-2.859776
21136,-2.803400,-9.854099,6.289906,-1.413117,-0.002055,-2.778966
21137,-2.607383,-9.294977,6.343129,-1.371363,-0.021542,-2.745266
21138,-2.372835,-8.901300,6.426999,-1.380962,-0.043363,-2.726263
21139,-2.231448,-8.967444,6.363298,-1.370881,-0.040824,-2.717788
21140,-2.163424,-9.496566,6.212836,-1.265135,-0.040714,-2.734101
21141,-2.060411,-10.279640,6.056995,-1.033972,-0.055693,-2.735534
21142,-1.709067,-11.250360,6.147285,-0.756686,-0.074142,-2.683062
21143,-1.027873,-11.938553,6.117906,-0.492318,-0.094469,-2.577306
21144,-0.397865,-11.733601,6.190238,-0.330870,-0.102369,-2.470977
21145,0.172141,-10.944948,6.359136,-0.333935,-0.096673,-2.341529
21146,0.535789,-9.940943,6.404758,-0.434930,-0.064103,-2.273495
21147,0.611954,-9.400581,6.288674,-0.612147,-0.029581,-2.205096
21148,0.557599,-9.731356,5.951390,-0.720940,0.010594,-2.162440
21149,0.379173,-10.541231,5.541955,-0.636099,0.021068,-2.148239
21150,0.172383,-11.046575,5.449654,-0.358213,0.002857,-2.144445
21151,0.350895,-11.013497,5.638766,-0.094529,-0.022189,-2.109713
21152,0.843280,-10.378143,5.898664,0.043974,-0.026589,-2.063301
21153,1.347637,-9.569988,5.746010,-0.037937,-0.004395,-2.008537
21154,1.670222,-8.916965,5.468457,-0.236937,0.046411,-1.972559
21155,1.828335,-8.715920,5.205797,-0.467767,0.113416,-1.955448
21156,1.817382,-8.824096,4.728932,-0.606071,0.168684,-1.945935
21157,1.803644,-9.233274,4.289124,-0.592131,0.195653,-1.964782
21158,1.752551,-9.748480,3.893981,-0.431458,0.184492,-1.986889
21159,2.194454,-10.383952,3.982538,-0.222265,0.139304,-1.966549
21160,3.043656,-10.800671,4.175302,-0.097675,0.104964,-1.871002
21161,3.958162,-10.685269,4.467266,-0.164904,0.096361,-1.737775
21162,4.557733,-10.054067,4.653779,-0.401123,0.139367,-1.611889
21163,4.593467,-9.696826,4.574033,-0.706329,0.201154,-1.498123
21164,4.406921,-9.803189,4.380603,-0.901894,0.250162,-1.408606
21165,4.280354,-10.240557,4.312518,-0.925860,0.259512,-1.330553
21166,4.269189,-10.726045,4.211363,-0.790350,0.240652,-1.266353
21167,4.168838,-10.836790,4.083664,-0.552203,0.205144,-1.223496
21168,4.132910,-10.392533,4.038386,-0.330104,0.168600,-1.186830
21169,4.099781,-9.672244,4.176773,-0.218971,0.143543,-1.155022
21170,4.191242,-9.129035,4.222833,-0.249514,0.114352,-1.093930
21171,4.507358,-9.037458,4.296063,-0.349915,0.106909,-1.042559
21172,4.631539,-9.344794,4.320733,-0.457116,0.112330,-0.972273
21173,4.745690,-9.526695,4.250279,-0.497801,0.109176,-0.911203
21174,4.598547,-9.410732,4.137933,-0.472401,0.102474,-0.867838
21175,4.533007,-9.282309,4.004970,-0.438799,0.092156,-0.826554
21176,4.570036,-9.427669,3.908829,-0.397176,0.086166,-0.771214
21177,4.547640,-9.534717,3.756969,-0.314285,0.071552,-0.732324
21178,4.479351,-9.509917,3.776236,-0.218430,0.054836,-0.694707
21179,4.497837,-9.215149,3.941262,-0.143265,0.035435,-0.657766
21180,4.501149,-8.988175,3.998298,-0.121215,0.023838,-0.618568
21181,4.492779,-8.844682,3.963212,-0.116265,0.015930,-0.591100
21182,4.514694,-8.705751,3.923274,-0.105691,0.012581,-0.566636
21183,4.595604,-8.655841,3.779269,-0.103716,0.009908,-0.542493
21184,4.615387,-8.674689,3.742758,-0.098764,-0.003298,-0.509901
21185,4.719462,-8.634233,3.774698,-0.119572,-0.006054,-0.473639
21186,4.708970,-8.696259,3.707342,-0.125442,-0.027551,-0.437808
21187,4.707892,-8.816448,3.625707,-0.094826,-0.039146,-0.409471
21188,4.666003,-8.737800,3.644159,-0.017839,-0.057958,-0.397572
21189,4.791481,-8.427857,3.641227,0.060980,-0.070923,-0.390338
21190,4.822148,-8.150345,3.626627,0.123467,-0.079081,-0.392815
21191,5.027789,-8.039118,3.680447,0.165442,-0.086950,-0.396639
21192,5.223085,-8.115855,3.529025,0.203995,-0.084450,-0.403890
21193,5.256688,-8.168718,3.449502,0.258426,-0.099195,-0.404462
21194,5.180527,-7.959934,3.370252,0.315087,-0.123649,-0.413644
21195,5.351030,-7.256184,3.384633,0.347006,-0.158892,-0.402603
21196,6.014131,-7.628332,4.417344,0.068588,-0.100344,-0.274781
21197,5.364456,-8.167378,4.491885,-0.175267,-0.015246,-0.260035
21198,5.025646,-8.269211,4.233172,-0.161974,-0.021465,-0.277113
21199,5.199549,-7.982152,4.132670,-0.075118,-0.023751,-0.254433
21200,5.168431,-7.363866,4.131148,-0.066669,-0.005910,-0.247706
21201,5.027292,-7.356597,3.808079,-0.096961,-0.020678,-0.256499
21202,5.062788,-7.905290,3.560869,-0.049608,-0.031108,-0.269847
21203,4.940970,-8.208795,3.466067,0.105407,-0.071521,-0.289997
21204,5.203469,-8.217972,3.417196,0.324434,-0.110507,-0.328916
21205,5.503910,-8.134361,3.470067,0.523999,-0.136506,-0.356201
21206,5.625171,-7.462025,3.653609,0.630649,-0.144505,-0.385730
21207,5.865205,-6.561263,3.911409,0.548802,-0.118880,-0.403747
21208,6.174649,-5.760944,3.701771,0.301124,-0.072028,-0.421138
21209,6.548640,-5.843461,3.503404,0.004680,-0.008386,-0.408297
21210,6.719175,-6.442244,3.146845,-0.255961,0.044077,-0.375244
21211,6.667531,-7.071705,2.497437,-0.302737,0.075159,-0.416621
21212,6.685780,-7.261740,2.515544,-0.219456,0.078080,-0.426404
21213,6.812538,-6.631770,2.715033,-0.172044,0.093224,-0.431581
21214,6.846327,-6.017991,2.923058,-0.253321,0.131187,-0.423657
21215,6.545651,-5.932641,2.686962,-0.399580,0.153791,-0.420626
21216,6.241751,-6.422112,2.023118,-0.467906,0.128935,-0.431563
21217,6.152872,-6.684240,1.784954,-0.387659,0.072299,-0.454578
21218,6.145940,-6.440877,1.906373,-0.289334,-0.003596,-0.466447
21219,6.257514,-6.041359,2.244912,-0.238393,-0.070857,-0.501726
21220,6.299524,-5.670201,2.575180,-0.204215,-0.129458,-0.550480
21221,6.228236,-5.493712,2.686984,-0.211898,-0.188263,-0.597912
21222,6.120459,-5.566042,2.583377,-0.248883,-0.248818,-0.640534
21223,6.007171,-5.562272,2.346849,-0.260725,-0.313471,-0.705107
21224,5.873509,-5.952626,2.091021,-0.229083,-0.407775,-0.758778
21225,5.916623,-6.465233,2.101954,-0.137547,-0.507110,-0.806017
21226,6.088897,-6.460587,2.315943,-0.017579,-0.613404,-0.880777
21227,6.261953,-6.077467,2.498954,0.069563,-0.697138,-0.963185
21228,6.272440,-5.833546,2.740370,0.069371,-0.756647,-1.037445
21229,6.339397,-5.804531,2.921656,0.033645,-0.801485,-1.112558
21230,6.332433,-5.748451,2.984158,-0.024907,-0.817000,-1.189285
21231,6.254457,-5.900052,3.039198,-0.060083,-0.823433,-1.271673
21232,6.196804,-6.354395,2.925650,-0.019619,-0.852905,-1.348215
21233,6.227481,-6.675023,2.758734,0.116494,-0.901010,-1.427579
21234,6.258836,-6.721315,2.676053,0.283368,-0.950638,-1.501444
21235,6.371286,-6.587416,2.600515,0.419791,-1.005769,-1.574001
21236,6.524448,-6.323736,2.565231,0.483740,-1.057224,-1.630364
21237,6.594924,-6.115165,2.519582,0.482032,-1.088720,-1.664243
21238,6.799805,-6.151997,2.581983,0.445818,-1.108840,-1.684687
21239,7.047640,-6.281071,2.778283,0.406080,-1.118541,-1.700572
21240,7.340392,-6.276574,3.004372,0.371809,-1.116240,-1.726511
21241,7.540524,-6.220066,3.245151,0.320987,-1.108927,-1.737770
21242,7.816078,-6.269245,3.464519,0.248434,-1.069937,-1.738611
21243,7.890346,-6.377688,3.537639,0.186998,-1.022419,-1.728652
21244,8.041118,-6.309688,3.514846,0.112788,-0.960764,-1.711986
21245,8.163216,-6.160916,3.460490,0.028823,-0.888512,-1.693905
21246,8.259105,-5.979422,3.441348,-0.073466,-0.819184,-1.667549
21247,8.365498,-5.863390,3.539336,-0.197459,-0.741000,-1.634563
21248,8.464981,-5.770697,3.390338,-0.311234,-0.665543,-1.591253
21249,8.577082,-5.822905,3.140355,-0.434464,-0.587543,-1.545703
21250,8.714582,-6.036031,2.873487,-0.514955,-0.524938,-1.481753
21251,8.857855,-6.203214,2.802268,-0.556321,-0.476274,-1.398261
21252,8.981132,-6.229485,2.590286,-0.587401,-0.418041,-1.334241
21253,9.011574,-6.010714,2.006423,-0.584381,-0.379040,-1.270414
21254,9.022155,-5.930143,1.774303,-0.559074,-0.376275,-1.195106
21255,9.222162,-5.899206,1.881686,-0.513155,-0.349013,-1.108863
21256,9.418106,-5.556654,2.076632,-0.448510,-0.311493,-1.050151
21257,9.595371,-5.105768,2.140201,-0.399263,-0.260078,-0.994847
21258,9.614415,-4.883056,2.032393,-0.347891,-0.197556,-0.953935
21259,9.446010,-4.684471,1.906601,-0.284365,-0.147415,-0.927172
21260,9.329916,-4.327498,1.939323,-0.272222,-0.123561,-0.894479
21261,9.343828,-4.003010,1.940106,-0.346341,-0.092870,-0.850245
21262,9.379952,-4.061042,1.877336,-0.459040,-0.056691,-0.802954
21263,9.441625,-4.245234,1.827398,-0.555411,-0.008464,-0.761002
21264,9.358801,-4.380902,1.799767,-0.592241,0.017083,-0.699618
21265,9.292843,-4.237894,1.773201,-0.621473,0.026777,-0.637227
21266,9.281647,-4.040290,1.726396,-0.659597,0.046828,-0.579698
21267,9.223047,-3.960620,1.657638,-0.713411,0.063345,-0.518347
21268,9.256185,-3.990832,1.657198,-0.751585,0.077284,-0.469981
21269,9.230066,-4.081676,1.642508,-0.765787,0.086418,-0.414315
21270,9.243155,-4.120309,1.658343,-0.761354,0.089136,-0.363603
21271,9.271980,-4.204438,1.593189,-0.754737,0.081052,-0.301857
21272,9.266049,-4.336528,1.532875,-0.730100,0.070723,-0.233973
21273,9.274642,-4.374114,1.478321,-0.684199,0.049450,-0.178134
21274,9.279949,-4.432610,1.490669,-0.605538,0.026632,-0.127060
21275,9.228827,-4.422555,1.415360,-0.480867,0.006426,-0.095938
21276,9.210287,-4.468922,1.311498,-0.315826,-0.028139,-0.073812
21277,9.286961,-4.247102,1.287009,-0.132137,-0.062368,-0.067608
21278,9.311737,-3.821005,1.375339,0.024376,-0.097146,-0.060459
21279,9.424741,-3.413093,1.516041,0.095630,-0.107696,-0.048424
21280,9.513758,-3.126549,1.640931,0.084682,-0.105675,-0.040831
21281,9.498519,-2.912205,1.672708,0.031835,-0.083418,-0.032592
21282,9.443582,-2.856723,1.643568,-0.030395,-0.063226,-0.014923
21283,9.427708,-2.864610,1.688269,-0.106261,-0.033102,-0.014706
21284,9.346882,-2.779201,1.668845,-0.166990,-0.013481,-0.012822
21285,9.378724,-2.756016,1.724347,-0.217700,0.006549,-0.012818
21286,9.403343,-2.737250,1.707878,-0.264889,0.031149,-0.019655
21287,9.396181,-2.688740,1.628465,-0.314307,0.051956,-0.030546
21288,9.388492,-2.767433,1.621492,-0.353059,0.077840,-0.042964
21289,9.383302,-2.862031,1.484273,-0.375954,0.086446,-0.044843
21290,9.425976,-2.877044,1.388584,-0.386566,0.096620,-0.054829
21291,9.426515,-2.931799,1.388659,-0.392206,0.105487,-0.055723
21292,9.413235,-3.001108,1.275648,-0.404377,0.105129,-0.049924
21293,9.455552,-3.024607,1.213590,-0.394115,0.113961,-0.047371
21294,9.399774,-3.015451,1.160175,-0.379349,0.114255,-0.046298
21295,9.449232,-3.026602,1.138901,-0.368880,0.107748,-0.039645
21296,9.416731,-3.071415,1.141839,-0.343963,0.111745,-0.027140
21297,9.424589,-3.105081,1.149833,-0.308451,0.104875,-0.029527
21298,9.431741,-3.148796,1.191350,-0.259006,0.102656,-0.031509
21299,9.449172,-3.137922,1.142711,-0.215273,0.095200,-0.028846
21300,9.466871,-3.125962,1.095032,-0.170622,0.091922,-0.039075
21301,9.450371,-3.123690,1.116727,-0.124491,0.090280,-0.046281
21302,9.378193,-3.055024,1.086926,-0.080419,0.089511,-0.061312
21303,9.298236,-2.951839,1.050463,-0.042064,0.082254,-0.077006
21304,9.258787,-2.901185,1.052050,-0.013273,0.076520,-0.090059
21305,9.243105,-2.902868,1.109249,0.012737,0.071520,-0.115393
21306,9.247619,-2.934989,1.083802,0.043642,0.068878,-0.126980
21307,9.337331,-2.832794,1.142090,0.066654,0.065076,-0.151120
21308,9.357111,-2.762051,1.132572,0.078524,0.064934,-0.171111
21309,9.399507,-2.689069,1.178818,0.072598,0.071291,-0.186239
21310,9.419806,-2.680437,1.202808,0.061561,0.077685,-0.204874
21311,9.458632,-2.724739,1.209609,0.046772,0.082429,-0.215026
21312,9.522110,-2.745897,1.206498,0.025312,0.088038,-0.221258
21313,9.512493,-2.769264,1.200277,-0.008008,0.092493,-0.212764
21314,9.478656,-2.816211,1.203293,-0.037474,0.091480,-0.208242
21315,9.492028,-2.830418,1.218017,-0.066266,0.087308,-0.190223
21316,9.488367,-2.770294,1.183652,-0.073681,0.082148,-0.181092
21317,9.457160,-2.766538,1.256639,-0.078805,0.074344,-0.171730
21318,9.479971,-2.805592,1.243807,-0.079574,0.068941,-0.163911
21319,9.485756,-2.845891,1.247824,-0.077344,0.062382,-0.157314
21320,9.504954,-2.951705,1.193903,-0.054763,0.061039,-0.149020
21321,9.470829,-3.005481,1.192640,-0.039463,0.059790,-0.143770
21322,9.458287,-2.982288,1.182171,0.000149,0.054505,-0.134224
21323,9.407772,-2.840028,1.174979,0.043395,0.056144,-0.145676
21324,9.405264,-2.727324,1.214363,0.054442,0.054559,-0.153231
21325,9.391726,-2.712754,1.238394,0.064005,0.052577,-0.158542
21326,9.411589,-2.706587,1.260452,0.059549,0.054716,-0.172204
21327,9.424987,-2.842032,1.234831,0.054148,0.059767,-0.177256
21328,9.382882,-2.859825,1.228630,0.051877,0.059176,-0.179592
21329,9.408453,-2.885138,1.185639,0.054021,0.057144,-0.176906
21330,9.435341,-2.856132,1.215265,0.043745,0.053068,-0.166413
21331,9.491976,-2.782777,1.242076,0.035755,0.047003,-0.153032
21332,9.484871,-2.746483,1.272625,0.034776,0.050608,-0.153039
21333,9.516145,-2.708033,1.341909,0.036752,0.052393,-0.145729
21334,9.514048,-2.705341,1.307353,0.036071,0.048962,-0.141045
21335,9.488254,-2.726786,1.282469,0.035017,0.052506,-0.129845
21336,9.485882,-2.725629,1.247863,0.024735,0.051657,-0.128503
21337,9.500573,-2.724291,1.195723,0.015004,0.052850,-0.114804
21338,9.490375,-2.758782,1.185622,0.000337,0.050107,-0.098017
21339,9.457471,-2.807571,1.152052,-0.007220,0.051879,-0.082093
21340,9.452779,-2.823177,1.148539,-0.008193,0.039284,-0.062532
21341,9.460152,-2.795485,1.159410,-0.002828,0.032965,-0.051625
21342,9.466168,-2.779508,1.202663,0.012890,0.024953,-0.041437
21343,9.433753,-2.711585,1.279871,0.029299,0.019101,-0.041323
21344,9.428390,-2.729968,1.274943,0.050700,0.014593,-0.032360
21345,9.418069,-2.704745,1.302309,0.051717,0.009714,-0.037741
21346,9.436149,-2.699552,1.287622,0.055872,0.013429,-0.034079
21347,9.392389,-2.720954,1.244236,0.062460,0.013297,-0.035435
21348,9.451118,-2.691102,1.202922,0.065571,0.009627,-0.035998
21349,9.468036,-2.696918,1.220977,0.053844,0.008987,-0.029663
21350,9.469594,-2.627920,1.262949,0.033141,0.011697,-0.019598
21351,9.489206,-2.548305,1.254562,0.012444,0.014409,-0.009523
21352,9.455908,-2.538653,1.257589,-0.010935,0.014451,-0.014013
21353,9.469925,-2.624736,1.267079,-0.017525,0.012633,0.001900
21354,9.468746,-2.691179,1.228117,-0.005785,0.011981,0.001511
21355,9.500903,-2.710426,1.260250,0.012081,0.006551,-0.000651
21356,9.472395,-2.689858,1.303224,0.028355,0.003267,-0.001230
21357,9.496917,-2.654925,1.262059,0.045151,0.004005,-0.004011
21358,9.481805,-2.577981,1.288162,0.049934,0.010489,-0.007816
21359,9.505192,-2.553287,1.280644,0.044073,0.010171,-0.004645
