// Start Time: Unknown
// Update Rate: 100.0Hz
// Filter Profile: human (46.1)
// Firmware Version: 4.3.5
PacketCounter,Acc_X,Acc_Y,Acc_Z,Gyr_X,Gyr_Y,Gyr_Z
19834,9.419933,-1.681803,1.470279,-0.136494,-0.044449,-0.081006
19835,9.423113,-1.726451,1.741281,-0.286290,0.014225,-0.101497
19836,9.336058,-1.677728,1.928878,-0.389250,0.055673,-0.123533
19837,9.179216,-1.615709,2.059745,-0.447433,0.054376,-0.148598
19838,9.233537,-1.643969,2.222644,-0.473417,0.029673,-0.167197
19839,9.377714,-1.731492,2.250165,-0.493243,0.025566,-0.173018
19840,9.462539,-1.632532,2.241048,-0.501751,0.027442,-0.185352
19841,9.688726,-1.630902,2.472634,-0.515952,0.041437,-0.204111
19842,9.811718,-1.660278,2.740295,-0.541727,0.093098,-0.218658
19843,9.748673,-1.785841,2.909104,-0.562984,0.134400,-0.234248
19844,9.794750,-1.996947,2.902583,-0.577165,0.150877,-0.234503
19845,9.719553,-2.166063,2.752683,-0.576644,0.171663,-0.236194
19846,9.617340,-2.125720,2.516191,-0.586237,0.182146,-0.245385
19847,9.502886,-2.166651,2.304356,-0.613191,0.210208,-0.254004
19848,9.389157,-2.226407,2.149970,-0.635836,0.240927,-0.246583
19849,9.321997,-2.255210,2.167604,-0.649785,0.278848,-0.238220
19850,9.259832,-2.449473,2.382024,-0.650259,0.319879,-0.214098
19851,9.161567,-2.629671,2.539636,-0.627708,0.336310,-0.187349
19852,9.046802,-2.765908,2.532310,-0.589984,0.334062,-0.170342
19853,9.104494,-2.962795,2.671899,-0.527774,0.309795,-0.143729
19854,9.224071,-3.365176,2.911668,-0.443870,0.296305,-0.099637
19855,9.395627,-3.631838,3.273934,-0.319713,0.309428,-0.054718
19856,9.449127,-3.740201,3.598920,-0.148927,0.330457,0.002992
19857,9.506723,-3.486728,3.573714,0.000557,0.341880,0.037705
19858,9.494452,-2.965123,3.187057,0.083689,0.342902,0.038194
19859,9.510558,-2.478763,2.711359,0.093410,0.349717,0.014201
19860,9.461572,-2.367171,2.393102,0.052616,0.381274,-0.008691
19861,9.283175,-2.395272,2.121489,-0.027581,0.390180,-0.001991
19862,9.258099,-2.504446,2.003818,-0.090453,0.392444,0.005209
19863,9.125351,-2.431073,2.009286,-0.110205,0.388608,-0.008790
19864,9.023664,-2.285718,1.773146,-0.102959,0.367107,-0.037353
19865,8.942660,-2.181020,1.570128,-0.099508,0.314524,-0.065271
19866,8.961986,-2.350021,1.685416,-0.103007,0.267073,-0.055598
19867,9.057999,-2.608323,2.403183,-0.095890,0.248914,-0.018774
19868,9.247537,-2.950715,3.452069,-0.070828,0.291169,0.043416
19869,9.196085,-2.886900,4.038016,-0.046115,0.347266,0.102514
19870,9.150076,-2.723790,4.228906,-0.055181,0.383082,0.149804
19871,9.078570,-2.721769,4.051346,-0.090853,0.403971,0.182129
19872,8.952934,-2.790371,3.429758,-0.110072,0.417667,0.197523
19873,8.894060,-2.797040,2.675509,-0.117987,0.419701,0.199043
19874,8.750499,-3.081198,2.272883,-0.119328,0.417210,0.217889
19875,8.610194,-3.479243,2.069383,-0.049736,0.377789,0.245159
19876,8.623377,-3.502490,2.004346,0.087166,0.335017,0.234943
19877,8.574238,-3.147658,1.722314,0.205612,0.288983,0.200178
19878,8.569662,-2.738299,1.657228,0.237867,0.222265,0.174073
19879,8.734586,-2.561222,2.166403,0.234197,0.158111,0.162575
19880,9.084764,-2.507803,3.182030,0.218151,0.159031,0.177350
19881,9.236227,-2.548461,4.119399,0.173084,0.220456,0.206601
19882,9.286835,-2.473979,4.666727,0.116148,0.284682,0.238605
19883,9.249328,-2.545825,4.707320,0.033773,0.341565,0.282791
19884,9.123316,-2.692789,4.246859,-0.054984,0.389022,0.321985
19885,8.883221,-2.793419,3.477274,-0.097801,0.383561,0.335423
19886,8.723575,-3.125563,2.846258,-0.115256,0.363186,0.346887
19887,8.611453,-3.442755,2.494420,-0.053637,0.317826,0.361862
19888,8.488227,-3.627980,2.311721,0.065117,0.275705,0.350981
19889,8.491366,-3.446360,2.165432,0.191131,0.242400,0.323845
19890,8.550586,-3.143302,1.999313,0.213405,0.232840,0.310196
19891,8.586872,-3.096873,2.244641,0.157059,0.214281,0.325054
19892,8.702332,-3.359131,3.212409,0.133883,0.199244,0.364008
19893,8.889269,-3.387853,4.212619,0.102129,0.238791,0.410696
19894,8.908493,-3.174719,4.898466,0.044956,0.294969,0.453774
19895,8.904578,-2.963629,5.380068,0.005489,0.355406,0.484738
19896,8.838680,-3.014434,5.385122,-0.030449,0.425474,0.511684
19897,8.762468,-3.149494,5.132302,-0.043156,0.467655,0.536530
19898,8.694516,-3.312019,4.634781,-0.083163,0.523266,0.556805
19899,8.474672,-3.610451,3.914111,-0.123349,0.552792,0.579744
19900,8.284025,-3.929789,3.328437,-0.160550,0.543107,0.591265
19901,8.246874,-4.294404,3.035704,-0.148790,0.525013,0.600425
19902,8.137463,-4.132550,2.671610,-0.072749,0.482801,0.579263
19903,8.151065,-4.092816,2.489668,-0.023846,0.438968,0.548031
19904,8.338620,-4.163618,2.807170,0.043215,0.407023,0.549918
19905,8.479325,-4.296195,3.389524,0.045131,0.404875,0.601882
19906,8.600822,-4.191640,4.165840,0.069418,0.403971,0.661695
19907,8.682823,-3.748124,5.105279,0.027207,0.446166,0.715185
19908,8.685733,-3.495182,5.616520,-0.079805,0.533194,0.751358
19909,8.561140,-3.411505,5.838194,-0.171893,0.612135,0.789150
19910,8.457209,-3.641081,5.840152,-0.243144,0.699001,0.828604
19911,8.299115,-4.005376,5.480124,-0.295596,0.763371,0.866609
19912,8.065794,-4.500912,4.721395,-0.339594,0.787587,0.900957
19913,7.862725,-4.850332,3.718043,-0.339587,0.755789,0.920947
19914,7.708572,-5.222616,3.010065,-0.312656,0.694315,0.922639
19915,7.503098,-5.384972,2.853237,-0.186803,0.612682,0.897911
19916,7.419105,-5.128010,2.877347,-0.056173,0.537585,0.851431
19917,7.329331,-4.866598,3.133917,0.058209,0.484392,0.815546
19918,7.409908,-4.768484,3.895487,0.118684,0.453368,0.817630
19919,7.633188,-4.843427,4.613654,0.112661,0.472755,0.868546
19920,7.770634,-4.698748,5.121779,0.055276,0.506902,0.935063
19921,7.909450,-4.540187,5.678219,-0.054109,0.557508,0.995975
19922,7.901965,-4.596095,5.967249,-0.170216,0.639114,1.038961
19923,7.681621,-4.787510,5.895182,-0.285759,0.706645,1.064404
19924,7.459861,-5.043845,5.602143,-0.338648,0.740272,1.085241
19925,7.271707,-5.479997,5.182817,-0.357223,0.763867,1.110933
19926,6.961107,-5.834144,4.465926,-0.340323,0.748961,1.110458
19927,6.773279,-6.179774,3.938129,-0.250912,0.705645,1.101211
19928,6.609285,-6.440534,3.765806,-0.114831,0.667059,1.095604
19929,6.408002,-6.384918,3.682293,0.002224,0.616615,1.089334
19930,6.298851,-6.144058,3.521243,0.085703,0.550091,1.089270
19931,6.355619,-5.852104,3.445225,0.110674,0.489749,1.080652
19932,6.356148,-5.629990,3.472311,0.069691,0.456578,1.070012
19933,6.416025,-5.524289,3.838462,-0.004351,0.434900,1.059196
19934,6.443369,-5.560299,4.766736,-0.090089,0.471069,1.063725
19935,6.374164,-5.704054,6.125874,-0.172506,0.543380,1.085629
19936,6.574117,-5.872842,7.075310,-0.283258,0.677165,1.163519
19937,6.457831,-5.778561,6.907146,-0.430146,0.756825,1.253716
19938,6.565682,-5.850073,6.454307,-0.568332,0.779437,1.319577
19939,6.611560,-6.370179,6.114273,-0.645248,0.805788,1.342834
19940,6.394370,-7.021974,5.697110,-0.659992,0.829164,1.325451
19941,5.935894,-7.403772,5.193387,-0.612914,0.815551,1.276143
19942,5.515066,-7.496688,4.720846,-0.477394,0.734568,1.224434
19943,5.203840,-7.665343,4.420801,-0.306255,0.645622,1.198860
19944,5.034490,-7.647295,4.418124,-0.096536,0.554277,1.203386
19945,4.941397,-7.354268,4.447622,0.085315,0.455663,1.201185
19946,4.963391,-6.927684,4.344349,0.200078,0.394593,1.194221
19947,4.819621,-6.701278,4.353900,0.262645,0.337528,1.180187
19948,4.733568,-6.932046,4.451371,0.261016,0.296519,1.186259
19949,4.732992,-7.291617,4.922889,0.249437,0.269983,1.217352
19950,4.842801,-7.508596,5.578798,0.225876,0.291221,1.251475
19951,4.960457,-7.389286,6.152100,0.246152,0.345609,1.286092
19952,5.030745,-7.001668,6.561145,0.225776,0.422549,1.314753
19953,4.909388,-6.738267,6.532780,0.100468,0.500656,1.341589
19954,4.694960,-7.009697,6.194979,-0.035959,0.534000,1.342649
19955,4.458258,-7.412457,5.727418,-0.088435,0.530930,1.328897
19956,4.266772,-7.795041,5.350942,-0.040695,0.509945,1.299668
19957,4.236376,-7.891993,5.062686,0.004764,0.500059,1.265912
19958,3.903294,-7.654067,4.702740,0.050056,0.484166,1.220086
19959,3.679430,-7.333182,4.517000,0.205065,0.414867,1.161067
19960,3.757756,-7.037032,4.509365,0.351578,0.352985,1.116265
19961,3.620299,-6.982684,4.415916,0.404472,0.307481,1.087954
19962,3.301011,-7.342346,4.070617,0.418207,0.225328,1.077612
19963,3.253358,-7.723890,4.254670,0.470734,0.125471,1.088597
19964,3.531255,-7.878500,4.880812,0.517716,0.082359,1.113992
19965,3.563489,-7.627788,5.609922,0.559796,0.121987,1.139109
19966,3.449649,-7.150188,6.269266,0.523148,0.196615,1.141736
19967,3.406935,-6.924219,6.667490,0.379271,0.261292,1.152671
19968,3.251848,-7.197099,6.660820,0.211107,0.322241,1.183904
19969,2.989588,-7.762319,6.411955,0.085016,0.343920,1.222758
19970,2.815013,-8.447634,6.163727,0.037656,0.311311,1.266381
19971,2.640407,-8.965707,5.866088,0.114392,0.253794,1.292065
19972,2.469521,-8.907270,5.634525,0.288569,0.170932,1.268753
19973,2.373357,-8.609347,5.461528,0.462611,0.101725,1.254750
19974,2.282309,-8.434080,5.308267,0.609631,0.067771,1.237276
19975,2.031026,-8.072033,5.068708,0.706380,0.047442,1.223218
19976,1.871482,-7.447222,4.710466,0.771024,0.002906,1.168375
19977,1.896039,-6.850549,4.472868,0.874991,-0.028519,1.082743
19978,1.730472,-6.155608,4.107264,0.896364,-0.055163,0.970494
19979,1.640324,-5.826092,3.871839,0.793520,-0.125992,0.891042
19980,1.814482,-6.219707,4.316300,0.701961,-0.142923,0.878578
19981,1.793790,-6.562489,5.180048,0.643353,-0.067732,0.883853
19982,1.533168,-6.538630,5.750238,0.532668,0.011287,0.891300
19983,1.309904,-6.416247,6.144593,0.425299,0.052685,0.884527
19984,1.386534,-6.243535,6.575532,0.242476,0.085445,0.897213
19985,1.611984,-6.255625,6.877666,0.034264,0.137286,0.893941
19986,1.766199,-6.273474,6.996529,-0.092637,0.158704,0.851140
19987,1.869399,-6.576919,7.159038,-0.159091,0.140256,0.793352
19988,1.842073,-7.067087,7.022512,-0.065057,0.088771,0.748185
19989,1.740336,-7.129717,6.241961,0.166236,-0.020718,0.674664
19990,1.617730,-6.889462,5.242720,0.349677,-0.128118,0.600235
19991,1.436263,-6.811688,4.227978,0.511200,-0.263520,0.534106
19992,1.569760,-6.581108,3.916189,0.744229,-0.357129,0.452574
19993,1.682862,-6.066805,4.443011,0.977364,-0.385104,0.359674
19994,1.608561,-5.082429,5.086992,1.045887,-0.428142,0.278875
19995,2.072786,-3.983404,5.749911,0.906748,-0.394354,0.209768
19996,2.587506,-3.003161,6.510560,0.611455,-0.258248,0.136259
19997,2.974695,-2.320608,7.030456,0.133717,-0.146572,0.054343
19998,3.045638,-2.304073,7.236622,-0.356779,-0.045316,-0.064938
19999,2.643539,-3.600906,7.449884,-0.751463,0.021593,-0.155231
20000,2.019745,-5.527355,7.228905,-0.980482,0.038979,-0.176086
20001,1.489989,-6.837012,6.852689,-0.886653,-0.001868,-0.160717
20002,1.378043,-7.720836,7.713940,-0.690445,0.005171,-0.116709
20003,1.421179,-8.821702,9.098078,-0.437548,0.071843,-0.069406
20004,1.172000,-9.299112,9.607393,-0.047756,0.089544,-0.045330
20005,1.057493,-9.035788,8.735074,0.331948,0.021799,-0.026983
20006,1.102260,-8.730693,7.034128,0.597048,-0.105490,-0.024328
20007,1.648147,-8.050717,5.612985,0.806753,-0.235318,-0.082711
20008,2.040710,-7.057208,4.991319,0.924702,-0.287972,-0.164854
20009,2.318798,-5.797184,5.081426,0.928691,-0.279665,-0.278593
20010,2.275914,-4.378652,5.485789,0.818255,-0.213912,-0.404022
20011,2.230632,-3.197980,6.472275,0.526894,-0.144706,-0.492080
20012,2.148935,-3.031900,7.349573,0.112396,-0.046076,-0.524987
20013,2.081692,-3.922235,8.064398,-0.257816,0.077774,-0.501806
20014,1.867152,-5.101840,8.306102,-0.524582,0.208476,-0.439377
20015,1.838727,-5.995314,7.979829,-0.566990,0.262279,-0.407973
20016,2.141474,-6.584926,8.179996,-0.526961,0.308558,-0.415437
20017,2.436324,-7.009568,8.388832,-0.418223,0.350681,-0.475886
20018,2.443981,-7.098847,7.878046,-0.216028,0.346182,-0.567885
20019,2.307409,-6.908102,7.002994,0.001515,0.268807,-0.649848
20020,2.399212,-6.732168,6.339679,0.191230,0.177008,-0.735609
20021,2.584012,-6.428590,6.239571,0.337053,0.120048,-0.822010
20022,2.625093,-5.987636,6.228032,0.418012,0.089957,-0.912282
20023,2.681942,-5.481388,6.177101,0.431477,0.076573,-0.989181
20024,2.701989,-5.169913,6.407423,0.356036,0.104490,-1.044505
20025,2.744775,-5.086643,6.895826,0.220099,0.148038,-1.078939
20026,2.859162,-5.480081,7.556427,0.060888,0.243226,-1.068186
20027,2.747156,-6.068539,8.023055,-0.086598,0.336496,-1.007289
20028,2.564950,-6.389626,7.880358,-0.211280,0.366747,-0.938539
20029,2.378037,-6.649551,7.237381,-0.295434,0.358223,-0.881251
20030,2.274582,-7.185587,6.742127,-0.332609,0.318038,-0.868386
20031,2.293196,-7.844234,6.739613,-0.310314,0.296376,-0.895477
20032,2.418231,-8.680519,6.993074,-0.191434,0.310271,-0.915957
20033,2.231756,-8.892797,6.682186,0.011369,0.311580,-0.904639
20034,1.978287,-8.349023,5.879288,0.227745,0.259142,-0.879002
20035,1.903572,-7.429392,5.183265,0.354964,0.163171,-0.878283
20036,2.071903,-6.430315,4.781643,0.365288,0.047608,-0.936926
20037,2.445577,-5.467852,4.926751,0.368401,-0.061812,-1.066197
20038,3.048349,-5.365633,6.144896,0.350721,-0.042632,-1.164486
20039,3.199035,-5.560413,7.033680,0.242035,0.059704,-1.171334
20040,3.247983,-5.448351,7.605299,0.178585,0.179708,-1.119903
20041,3.240283,-5.391045,8.919959,0.088251,0.307884,-1.047740
20042,3.329983,-5.602786,9.798058,-0.060857,0.418484,-0.973192
20043,3.356144,-5.791314,9.291277,-0.163863,0.518589,-0.931197
20044,3.118304,-5.852740,7.795297,-0.270698,0.572497,-0.936265
20045,2.803234,-6.194545,6.107186,-0.380809,0.551108,-0.990325
20046,2.723218,-6.768692,4.988328,-0.329441,0.427619,-1.078879
20047,2.860892,-7.135624,4.637221,-0.122148,0.246585,-1.181994
20048,3.373014,-7.483799,5.189699,0.166636,0.131693,-1.236164
20049,3.435153,-7.265101,5.384401,0.375788,0.099029,-1.235976
20050,3.211291,-6.505215,5.218661,0.499886,0.038851,-1.243564
20051,3.108995,-5.931030,5.596391,0.526311,-0.005660,-1.257330
20052,3.229341,-5.764148,6.426572,0.484061,-0.053008,-1.260926
20053,3.620943,-5.563044,7.618335,0.359826,-0.044788,-1.253832
20054,3.842341,-5.467891,8.676227,0.160916,0.030299,-1.235557
20055,3.917039,-5.677577,9.086394,0.007377,0.143331,-1.205086
20056,3.510001,-5.633280,8.162012,-0.060222,0.259955,-1.162075
20057,2.982138,-5.627744,6.752161,-0.139329,0.287883,-1.110213
20058,3.009344,-6.117924,5.583796,-0.242468,0.213538,-1.046749
20059,3.302849,-6.253846,4.713369,-0.260930,0.081833,-1.044671
20060,3.699210,-5.890977,4.326642,-0.208850,-0.060459,-1.140433
20061,4.054877,-5.831231,4.678537,-0.093714,-0.189613,-1.266038
20062,4.135070,-6.534863,5.445908,0.011187,-0.213014,-1.375283
20063,3.906115,-7.075328,5.880175,0.105398,-0.147450,-1.387794
20064,3.788549,-6.857229,6.360470,0.146446,-0.110522,-1.321216
20065,4.163281,-6.009939,7.548501,0.085266,-0.115160,-1.221842
20066,4.931411,-4.996200,8.664120,-0.067068,-0.116226,-1.142364
20067,5.568849,-4.278994,9.014982,-0.270974,-0.063675,-1.115381
20068,5.674956,-4.309894,8.423709,-0.479759,0.016216,-1.135655
20069,5.205727,-5.006566,7.082424,-0.629335,0.070839,-1.193320
20070,4.721714,-5.746033,5.855289,-0.584009,0.029796,-1.267626
20071,4.536930,-6.148112,5.205801,-0.391343,-0.085425,-1.304468
20072,4.241704,-6.078380,5.027858,-0.120994,-0.243556,-1.356294
20073,4.113193,-5.634478,5.255524,0.128197,-0.401807,-1.431880
20074,4.205027,-5.415353,5.683904,0.332228,-0.511271,-1.484754
20075,4.567263,-5.076914,6.069217,0.445556,-0.567204,-1.500177
20076,5.208572,-4.619329,6.763504,0.424659,-0.569993,-1.477539
20077,5.986311,-4.262873,7.563117,0.341886,-0.557111,-1.447195
20078,6.506175,-3.904832,8.179882,0.202098,-0.458570,-1.452958
20079,6.308372,-3.767842,7.850076,0.027870,-0.337419,-1.481431
20080,5.660835,-4.007963,6.941566,-0.108621,-0.271011,-1.513444
20081,5.566248,-4.840167,6.099384,-0.213621,-0.255449,-1.477642
20082,5.548652,-5.564811,5.438360,-0.195045,-0.317758,-1.402865
20083,5.718607,-5.859467,5.274344,-0.069875,-0.441692,-1.398307
20084,5.880698,-5.672815,5.032055,0.078057,-0.562178,-1.476675
20085,6.101588,-5.168795,4.730364,0.187896,-0.692130,-1.586938
20086,6.461534,-4.785499,4.779451,0.223301,-0.780580,-1.697323
20087,6.834843,-4.338747,5.455954,0.239358,-0.844174,-1.790114
20088,7.055637,-3.979329,6.531958,0.208918,-0.858349,-1.852578
20089,6.981454,-3.752327,7.562480,0.161072,-0.751548,-1.857285
20090,6.610240,-3.482252,7.726438,0.078375,-0.635223,-1.774395
20091,6.279083,-3.492462,7.427100,-0.005782,-0.603568,-1.649477
20092,6.471071,-3.995277,6.962492,-0.064566,-0.628344,-1.548147
20093,6.952005,-4.393282,6.262377,-0.121720,-0.676296,-1.490421
20094,6.978241,-4.532095,5.346743,-0.108135,-0.765248,-1.478394
20095,6.470190,-4.734936,4.714870,-0.023157,-0.932872,-1.506614
20096,5.963565,-5.520784,4.598700,0.137878,-1.196214,-1.517785
20097,6.256666,-6.218795,4.858448,0.320872,-1.354505,-1.520544
20098,6.612505,-6.211523,4.710173,0.519488,-1.242724,-1.515900
20099,6.266885,-5.168053,4.970001,0.704974,-1.073410,-1.464128
20100,6.080534,-4.123345,5.318338,0.658731,-0.974369,-1.350376
20101,6.250677,-3.162636,5.577119,0.334408,-0.835972,-1.212842
20102,6.279417,-2.648971,5.828551,-0.119012,-0.725939,-1.095688
20103,6.454867,-2.847768,6.151457,-0.384602,-0.751313,-0.951639
20104,7.065183,-3.423471,5.991494,-0.413912,-0.781239,-0.762052
20105,7.373115,-3.906271,5.283736,-0.293261,-0.781028,-0.613143
20106,7.404336,-4.104584,4.648167,-0.089180,-0.813408,-0.550850
20107,7.553377,-4.049506,4.405875,0.154503,-0.942342,-0.556556
20108,8.013711,-3.611012,4.488992,0.316685,-1.028059,-0.602272
20109,8.264820,-3.075886,4.858734,0.320244,-1.016150,-0.629381
20110,8.407572,-2.656759,5.294335,0.260534,-0.970311,-0.620475
20111,8.589991,-1.942171,5.790148,0.225093,-0.943855,-0.606713
20112,8.802068,-1.499098,6.759910,0.124167,-0.896202,-0.563913
20113,9.102375,-1.674428,7.300869,-0.024373,-0.792701,-0.468786
20114,8.914966,-1.939624,6.865196,-0.041642,-0.682468,-0.348182
20115,8.503642,-2.492452,6.109372,-0.096822,-0.675924,-0.207300
20116,8.410216,-3.304009,5.121593,-0.131158,-0.713141,-0.106345
20117,8.374409,-3.421562,4.349111,-0.035434,-0.752233,-0.114895
20118,8.269979,-3.205788,3.676812,0.072113,-0.783617,-0.187355
20119,8.208639,-2.729492,2.893936,0.167600,-0.811579,-0.243259
20120,8.449453,-2.108948,2.507388,0.241415,-0.800408,-0.289312
20121,8.777056,-1.642615,3.140306,0.260423,-0.781271,-0.272611
20122,9.182016,-1.544471,4.149895,0.234635,-0.741938,-0.200115
20123,9.240035,-1.470107,5.133283,0.181437,-0.711102,-0.086803
20124,9.281885,-1.555112,5.784436,0.025897,-0.706531,0.019716
20125,9.501167,-1.805154,6.226697,-0.088963,-0.643347,0.062555
20126,9.353914,-1.726053,6.226770,-0.094250,-0.535214,0.018613
20127,9.104494,-1.417412,5.637604,-0.166902,-0.431386,-0.077644
20128,9.060050,-1.406115,4.852086,-0.271925,-0.347320,-0.133147
20129,8.964736,-1.645141,3.954690,-0.268050,-0.328688,-0.131967
20130,9.079788,-1.733306,3.341885,-0.185823,-0.380956,-0.100058
20131,9.221418,-1.961392,3.031247,-0.049072,-0.444707,-0.090642
20132,9.202912,-1.823551,2.579017,0.045045,-0.495108,-0.119624
20133,9.124027,-1.742068,2.495389,0.047123,-0.563311,-0.145978
20134,9.351195,-1.850331,2.824168,0.030660,-0.618902,-0.134577
20135,9.265208,-2.086517,3.605352,-0.009190,-0.579754,-0.104500
20136,8.991463,-2.360573,4.874253,-0.038009,-0.525272,-0.047590
20137,8.887184,-2.364008,5.811443,-0.042389,-0.470944,0.012421
20138,8.810057,-2.258261,5.935953,-0.093367,-0.392722,0.058458
20139,8.651767,-2.269810,5.242599,-0.134635,-0.337442,0.081484
20140,8.634886,-2.212760,3.978105,-0.103695,-0.308142,0.074938
20141,8.871691,-1.943366,2.739999,0.014344,-0.336756,0.031499
20142,9.266854,-1.515636,2.264662,0.199091,-0.354926,-0.021177
20143,9.587214,-0.817615,2.478525,0.376398,-0.320711,-0.089807
20144,9.709025,0.163057,2.840426,0.398895,-0.265376,-0.160997
20145,9.567073,0.667009,2.879901,0.127921,-0.236447,-0.186432
20146,9.485770,-0.044016,2.706524,-0.235938,-0.275578,-0.180403
20147,9.475063,-1.382285,2.708093,-0.426431,-0.276391,-0.126513
20148,9.376587,-2.528537,3.238224,-0.436011,-0.262567,-0.075522
20149,9.278850,-2.789798,4.084496,-0.290945,-0.253422,-0.045981
20150,9.122571,-2.355161,4.809629,-0.163017,-0.203707,-0.036952
20151,9.260740,-2.060184,4.743598,-0.144200,-0.160644,-0.021400
20152,9.577774,-2.456125,4.003937,-0.166272,-0.104091,-0.013474
20153,9.665817,-2.909895,2.540322,-0.060128,-0.075990,-0.005227
20154,9.599200,-2.533165,1.251119,0.123537,-0.123596,-0.028712
20155,9.600350,-1.884147,0.882300,0.173237,-0.195646,-0.046367
20156,9.354334,-1.047105,1.059972,0.178735,-0.282508,-0.086389
20157,9.260316,-0.341531,2.281776,0.197742,-0.320895,-0.152486
20158,8.967903,0.129769,3.427896,0.075231,-0.273599,-0.193091
20159,8.595849,-0.140109,4.073026,-0.186172,-0.255656,-0.185761
20160,8.659011,-1.246543,4.432022,-0.338495,-0.274050,-0.146868
20161,8.638644,-2.414033,4.644782,-0.340090,-0.218202,-0.087723
20162,8.683586,-3.116518,5.109885,-0.160760,-0.173902,-0.026548
20163,8.969247,-3.014392,5.220158,0.121265,-0.167986,0.024924
20164,9.464834,-2.246895,4.727733,0.344931,-0.164717,0.070090
20165,9.649009,-1.137098,3.312963,0.470906,-0.168661,0.062953
20166,9.629533,-0.055722,2.023460,0.431543,-0.178859,0.008463
20167,9.597625,0.090209,1.359769,0.237445,-0.194681,-0.031257
20168,9.554262,-0.434673,1.533051,0.107470,-0.179401,-0.082267
20169,9.341842,-0.884883,1.968259,-0.025909,-0.145957,-0.104333
20170,9.183421,-1.537725,2.157283,-0.108621,-0.178445,-0.082658
20171,9.206175,-2.045305,2.263235,-0.050946,-0.234891,-0.050776
20172,9.401257,-1.927107,2.965916,0.119807,-0.277773,-0.012197
20173,9.728651,-1.290652,4.144330,0.278092,-0.262158,0.002083
20174,10.079940,-0.446583,5.056793,0.315876,-0.213528,0.004408
20175,10.244949,-0.093173,4.836544,0.175333,-0.120339,-0.028110
20176,9.997834,-0.306670,3.829486,0.012297,-0.056883,-0.076105
20177,9.794900,-0.783725,2.786926,-0.055661,-0.042158,-0.120303
20178,9.567489,-1.219899,2.060058,-0.054850,-0.053223,-0.135240
20179,9.402246,-1.323955,1.708966,-0.020950,-0.082986,-0.142469
20180,9.342609,-1.010517,1.782228,-0.043433,-0.119086,-0.140441
20181,9.385440,-0.793477,1.906824,-0.074329,-0.128744,-0.153951
20182,9.295981,-0.346757,2.083447,-0.130915,-0.144362,-0.178463
20183,9.322219,-0.096986,2.599835,-0.223446,-0.137711,-0.217433
20184,9.433872,-0.338528,3.180020,-0.341043,-0.090029,-0.254680
20185,9.636097,-1.042528,3.644962,-0.473058,-0.024206,-0.281201
20186,9.944533,-2.346159,3.431794,-0.555374,0.097461,-0.252859
20187,9.668504,-3.512715,3.199914,-0.422663,0.198198,-0.197834
20188,9.369262,-3.590328,3.507211,-0.147360,0.171240,-0.147999
20189,9.580730,-2.696410,3.993042,0.097710,0.111934,-0.100577
20190,9.771816,-1.496395,3.731151,0.246893,0.079377,-0.062285
20191,9.779143,-0.628049,3.106059,0.266879,0.072721,-0.064183
20192,9.830457,-0.318338,2.802789,0.174774,0.080220,-0.100185
20193,9.668786,-0.357471,2.237203,0.013653,0.094950,-0.113201
20194,9.561125,-0.459651,1.659877,-0.097131,0.061625,-0.126924
20195,9.344318,-0.897427,1.157909,-0.165189,0.023463,-0.144661
20196,8.931321,-1.427757,0.992511,-0.159868,-0.040202,-0.138639
20197,8.680014,-1.843665,1.190621,-0.133588,-0.115600,-0.125100
20198,8.769466,-1.971704,1.825675,-0.029600,-0.167212,-0.098051
20199,8.933635,-1.723118,2.644617,0.062518,-0.187532,-0.079695
20200,9.280836,-1.360574,3.613823,0.089027,-0.161911,-0.060253
20201,9.570093,-1.284984,4.072969,0.079926,-0.105595,-0.044777
20202,9.558258,-1.116228,3.802523,0.065377,-0.053701,-0.040447
20203,9.552821,-1.229616,3.259031,0.007342,-0.027594,-0.043087
20204,9.459175,-1.365927,2.403510,-0.001284,-0.025740,-0.041371
20205,9.318459,-1.397123,1.779454,0.017487,-0.050979,-0.035367
20206,9.278548,-1.563376,1.629704,0.025669,-0.075277,-0.027705
20207,9.182883,-1.650902,1.809604,0.072962,-0.119163,-0.011921
20208,9.314407,-1.335886,2.070727,0.108688,-0.170704,-0.000072
20209,9.463477,-1.030911,2.357140,0.120409,-0.173616,-0.001640
20210,9.424618,-0.693619,2.531764,0.090141,-0.175896,-0.013505
20211,9.493915,-0.789052,2.609567,0.019734,-0.167209,-0.020165
20212,9.470878,-1.057276,2.635718,-0.040148,-0.150079,-0.013116
20213,9.439490,-1.296680,2.783789,-0.045319,-0.128254,-0.007932
20214,9.492513,-1.329258,2.856322,-0.041646,-0.131214,-0.000034
20215,9.574446,-1.319071,2.781607,-0.019867,-0.124259,0.006896
20216,9.560674,-1.306373,2.617110,0.024178,-0.119580,0.016631
20217,9.540130,-1.209971,2.719565,0.073306,-0.108036,0.022328
20218,9.646180,-0.936092,3.004111,0.102907,-0.098853,0.023273
20219,9.817648,-0.523127,2.966348,0.066310,-0.080780,0.007076
20220,9.826613,-0.493426,2.734793,0.012166,-0.067098,-0.007246
20221,9.803858,-0.672245,2.465764,-0.026205,-0.063938,-0.019721
20222,9.752638,-0.894296,2.345213,-0.079980,-0.043604,-0.019618
20223,9.603207,-1.030013,2.251914,-0.094346,-0.046603,-0.021473
20224,9.512708,-1.029700,2.131646,-0.109649,-0.061252,-0.022419
20225,9.358018,-1.361855,2.049496,-0.102402,-0.083366,-0.017721
20226,9.172317,-1.505129,1.970479,-0.061614,-0.111714,0.005593
20227,9.159740,-1.529994,2.106471,-0.040985,-0.134511,0.022277
20228,9.309635,-1.511259,2.288719,-0.009193,-0.133958,0.026480
20229,9.476677,-1.301178,2.386305,0.040212,-0.111663,0.029911
20230,9.651412,-1.013649,2.680085,0.034647,-0.075526,0.031631
20231,9.742389,-0.817940,2.970506,0.005374,-0.046394,0.016462
20232,9.872469,-0.899509,3.092533,-0.035281,-0.010687,0.005132
20233,9.797402,-1.332058,2.592969,-0.061376,0.015968,0.002793
20234,9.626166,-1.565280,2.163858,-0.037262,0.016689,0.009034
20235,9.643222,-1.632022,2.023741,-0.015100,0.012013,0.015606
20236,9.538669,-1.487146,2.121357,0.033063,-0.001388,0.023079
20237,9.546991,-1.210002,2.200604,0.042002,-0.017419,0.024850
20238,9.558613,-1.106178,2.316837,0.035646,-0.023306,0.019992
20239,9.521969,-1.114228,2.334783,0.017404,-0.017743,0.023508
20240,9.437803,-1.178350,2.275653,0.005576,-0.014304,0.022580
20241,9.429427,-1.232779,2.302080,0.000998,-0.008189,0.020595
20242,9.435546,-1.294550,2.233001,0.003782,0.002018,0.023655
20243,9.441016,-1.301798,2.333787,0.024088,0.003254,0.025906
20244,9.530695,-1.246718,2.492853,0.041668,0.009140,0.030116
20245,9.631856,-1.111103,2.548915,0.056451,0.009290,0.030901
20246,9.621468,-0.935277,2.559672,0.063144,0.001960,0.029361
20247,9.657020,-0.870563,2.436944,0.049240,0.003070,0.022294
20248,9.592414,-0.916705,2.332095,0.025357,0.001716,0.018622
20249,9.660603,-1.045136,2.327962,-0.002104,0.000232,0.013531
20250,9.569540,-1.189518,2.201590,-0.021461,0.006213,0.010753
20251,9.512693,-1.384976,2.183199,-0.029316,-0.001938,0.010990
20252,9.489002,-1.572402,2.168997,-0.021327,0.003141,0.017218
20253,9.468708,-1.591565,2.216398,0.018620,-0.011296,0.025524
20254,9.477899,-1.430242,2.377633,0.037849,-0.015187,0.031844
20255,9.480350,-1.319519,2.417512,0.060802,-0.024580,0.026386
20256,9.511642,-1.138515,2.381541,0.064635,-0.024192,0.020337
20257,9.495794,-1.042198,2.320667,0.059939,-0.015013,0.011871
20258,9.501557,-0.901688,2.285155,0.039820,-0.002470,0.001073
20259,9.555328,-0.904874,2.294027,0.001089,0.006030,-0.014098
20260,9.568430,-1.082577,2.261986,-0.017186,0.017118,-0.020949
20261,9.525747,-1.227789,2.318265,-0.033209,0.018505,-0.014468
20262,9.555015,-1.387748,2.262989,-0.032486,0.025410,-0.007552
20263,9.515812,-1.535851,2.295532,-0.013365,0.020087,-0.007335
20264,9.470738,-1.508566,2.312885,0.014996,0.012893,0.002228
20265,9.480176,-1.399646,2.307126,0.047548,0.007793,0.004393
20266,9.505184,-1.186482,2.394512,0.062100,0.008589,0.002614
20267,9.552017,-1.099693,2.421311,0.061240,0.012730,-0.001512
20268,9.609041,-1.104330,2.408193,0.037298,0.024863,-0.006292
20269,9.566211,-1.133742,2.382741,0.031856,0.035142,-0.012415
20270,9.560683,-1.185777,2.390220,0.021259,0.037100,-0.020605
20271,9.570365,-1.275488,2.353760,0.014954,0.040687,-0.010071
20272,9.622114,-1.334804,2.346268,0.019392,0.041138,-0.004907
20273,9.608479,-1.354959,2.350326,0.027404,0.041724,0.001680
20274,9.550058,-1.348462,2.369679,0.036796,0.033257,0.007867
20275,9.538458,-1.227201,2.361175,0.054588,0.023527,0.009648
20276,9.534892,-1.139363,2.355852,0.053869,0.015665,0.012755
20277,9.494484,-1.057640,2.369638,0.051177,0.016777,0.005052
20278,9.464628,-1.067093,2.343200,0.033673,0.017795,-0.003440
20279,9.465617,-1.150580,2.228864,0.028034,0.020713,-0.021393
20280,9.455286,-1.227272,2.187291,0.014807,0.033255,-0.021952
20281,9.414401,-1.370960,2.097567,0.012090,0.033447,-0.019635
20282,9.397561,-1.387757,2.124356,0.025802,0.024017,-0.014351
20283,9.394370,-1.298386,2.118223,0.031997,0.008170,-0.010156
20284,9.424989,-1.259421,2.220093,0.033472,0.005033,-0.004836
20285,9.463251,-1.225290,2.273261,0.036426,-0.005704,0.006199
20286,9.495538,-1.273117,2.257280,0.027548,-0.012025,0.006268
20287,9.492872,-1.214610,2.300972,0.027536,-0.003085,0.005483
20288,9.496644,-1.216682,2.277064,0.025185,-0.001203,0.006432
20289,9.455806,-1.220661,2.320916,0.031863,0.000400,0.004163
20290,9.480351,-1.263785,2.353866,0.035342,-0.000921,-0.000508
20291,9.445393,-1.413013,2.361933,0.058332,-0.006847,0.003724
20292,9.404709,-1.415904,2.405804,0.092820,-0.009048,0.009471
20293,9.459940,-1.391491,2.486695,0.113377,-0.024434,0.019354
20294,9.474029,-1.313331,2.505810,0.126770,-0.026685,0.025187
20295,9.514868,-1.279896,2.408838,0.131031,-0.030105,0.028151
20296,9.490547,-1.235846,2.375375,0.133669,-0.019336,0.028502
20297,9.523571,-1.198039,2.327326,0.134227,-0.015402,0.023149
20298,9.514329,-1.191761,2.251349,0.132536,-0.008103,0.024827
20299,9.528021,-1.113650,2.271868,0.125395,0.000530,0.021138
20300,9.524028,-1.110775,2.297092,0.105478,-0.001868,0.024057
20301,9.509893,-1.188301,2.278770,0.093853,-0.003465,0.026086
20302,9.485321,-1.174245,2.299184,0.083939,0.000124,0.035176
20303,9.497865,-1.183602,2.352548,0.079738,-0.001887,0.042592
20304,9.506131,-1.134214,2.324577,0.074422,0.000891,0.043290
20305,9.529857,-1.151639,2.305969,0.072459,-0.000031,0.043262
20306,9.526937,-1.094892,2.349785,0.066894,-0.001055,0.041830
20307,9.543228,-1.107203,2.378937,0.061699,-0.000403,0.039018
20308,9.538796,-1.078844,2.351075,0.042833,0.006814,0.037409
20309,9.536892,-1.138165,2.333045,0.036878,0.004145,0.037373
20310,9.538652,-1.200340,2.291116,0.026203,0.009790,0.038796
20311,9.525217,-1.224364,2.292284,0.027447,0.002854,0.042002
20312,9.600934,-1.304295,2.263800,0.019260,0.012540,0.048117
20313,9.540730,-1.302400,2.156424,-0.002463,0.026661,0.051913
20314,9.559753,-1.320597,2.163781,-0.031888,0.036590,0.058224
20315,9.558114,-1.355290,2.219911,-0.047880,0.045060,0.060341
20316,9.528251,-1.344615,2.267152,-0.059890,0.050811,0.062902
20317,9.494415,-1.331881,2.338720,-0.075490,0.056456,0.064048
20318,9.493796,-1.283357,2.362132,-0.094066,0.058530,0.065377
20319,9.506466,-1.358709,2.375983,-0.100706,0.061403,0.067203
20320,9.475822,-1.378041,2.476722,-0.094301,0.065634,0.065829
20321,9.451245,-1.430515,2.457898,-0.082091,0.065704,0.068873
20322,9.407725,-1.441839,2.506214,-0.059879,0.059138,0.069356
20323,9.445957,-1.474883,2.520086,-0.027382,0.054195,0.068995
20324,9.456110,-1.489710,2.577530,0.002645,0.053281,0.073094
20325,9.470026,-1.506326,2.611601,0.038165,0.056336,0.072149
20326,9.492145,-1.498802,2.545751,0.052101,0.057965,0.072691
20327,9.490148,-1.475397,2.499727,0.070288,0.061566,0.065834
20328,9.499321,-1.487388,2.435126,0.079946,0.068657,0.066852
20329,9.481522,-1.453236,2.486152,0.087583,0.070402,0.068276
20330,9.459271,-1.416361,2.436705,0.095573,0.069348,0.068749
20331,9.445545,-1.500441,2.401705,0.083116,0.071971,0.066550
20332,9.442852,-1.504863,2.409516,0.089927,0.065909,0.071175
20333,9.414941,-1.522279,2.364393,0.099633,0.061926,0.069560
20334,9.345752,-1.542221,2.362275,0.110342,0.059682,0.077716
20335,9.373638,-1.508013,2.344835,0.130000,0.044514,0.074039
20336,9.351363,-1.498665,2.346099,0.146476,0.041927,0.070149
20337,9.364700,-1.424284,2.370482,0.155190,0.035210,0.068742
20338,9.370990,-1.432465,2.328252,0.158424,0.036464,0.064988
20339,9.375556,-1.380540,2.328309,0.155107,0.032053,0.056543
20340,9.382103,-1.387806,2.285966,0.142246,0.040507,0.048738
20341,9.413866,-1.381628,2.296253,0.126319,0.038060,0.048123
