// Start Time: Unknown
// Update Rate: 100.0Hz
// Filter Profile: human (46.1)
// Firmware Version: 4.3.5
PacketCounter,Acc_X,Acc_Y,Acc_Z,Gyr_X,Gyr_Y,Gyr_Z
46461,9.774616,-1.398662,0.088708,0.043219,0.007204,0.044582
46462,9.780299,-1.439337,0.049266,0.061553,0.008119,0.061201
46463,9.714578,-1.452246,0.002512,0.083990,-0.001654,0.068297
46464,9.783821,-1.375555,0.058303,0.112024,-0.011647,0.068209
46465,9.830039,-1.364084,0.079262,0.122839,-0.016648,0.068551
46466,9.888587,-1.379343,0.037842,0.133413,-0.009890,0.072825
46467,9.827715,-1.310114,0.110092,0.141054,0.011808,0.065632
46468,9.826294,-1.203016,0.161482,0.148318,0.035343,0.049334
46469,9.766083,-1.175542,0.219106,0.165048,0.057226,0.032316
46470,9.728825,-1.165110,0.386892,0.184651,0.079267,0.029798
46471,9.762626,-1.077482,0.498247,0.178614,0.077466,0.039656
46472,9.821231,-1.067384,0.475479,0.143049,0.082766,0.048728
46473,9.751736,-1.125216,0.225909,0.108823,0.080803,0.070625
46474,9.664181,-1.039495,0.003210,0.068203,0.071953,0.104440
46475,9.637036,-0.793063,-0.300699,-0.026851,0.059698,0.146242
46476,9.673666,-0.400367,-0.390800,-0.196392,0.053492,0.182713
46477,9.810994,0.109571,-0.320015,-0.445316,0.067943,0.205080
46478,10.022897,0.434502,0.004098,-0.760775,0.104590,0.221608
46479,10.192209,0.457654,0.283869,-1.102197,0.178060,0.234401
46480,10.246050,0.231155,0.516648,-1.413731,0.268503,0.242309
46481,10.168459,-0.440197,0.651388,-1.617501,0.349862,0.245673
46482,10.119859,-0.998540,0.696708,-1.677167,0.392683,0.241380
46483,10.030563,-1.726471,0.685828,-1.600642,0.407322,0.216321
46484,9.947214,-2.217088,0.950808,-1.350543,0.402954,0.163587
46485,9.960371,-2.452788,1.462109,-1.002961,0.382227,0.057336
46486,10.102067,-2.745670,1.638434,-0.564149,0.392263,-0.065870
46487,9.954115,-2.770390,1.428927,-0.063712,0.441110,-0.199707
46488,9.495962,-2.572204,0.712069,0.477684,0.433057,-0.331674
46489,9.126904,-2.056381,0.138425,0.978161,0.322765,-0.420023
46490,9.154724,-1.163595,-0.224674,1.263920,0.165705,-0.471770
46491,9.474043,-0.286127,-0.320956,1.270486,0.039624,-0.490337
46492,9.862721,0.438539,-0.240698,1.029985,-0.008105,-0.493459
46493,10.190424,0.789495,-0.124530,0.617762,0.011174,-0.474773
46494,10.241306,0.819233,-0.141441,0.136556,0.076697,-0.438273
46495,10.149211,0.574225,-0.272809,-0.352701,0.143719,-0.378885
46496,9.926226,0.051438,-0.465737,-0.802110,0.189741,-0.296182
46497,9.842590,-0.801105,-0.442462,-1.167899,0.213493,-0.179146
46498,9.778015,-1.646429,-0.048202,-1.410588,0.234123,-0.056820
46499,9.951005,-2.352687,0.873615,-1.531432,0.279217,0.042748
46500,10.342869,-2.874321,1.959711,-1.531950,0.396432,0.108329
46501,10.615056,-3.271017,2.514280,-1.391011,0.579773,0.144575
46502,10.289009,-3.654490,2.314736,-1.095222,0.768889,0.149740
46503,9.264284,-4.230212,1.640735,-0.609714,0.820492,0.157668
46504,8.303727,-4.445452,0.925864,0.009643,0.652181,0.159981
46505,8.345136,-4.322432,0.386159,0.608723,0.351954,0.168432
46506,9.076975,-3.871089,-0.065801,1.113381,0.093175,0.191934
46507,9.561224,-3.110995,-0.431678,1.481678,-0.024568,0.217834
46508,9.339671,-2.205623,-0.888638,1.673300,-0.084830,0.241949
46509,8.839465,-1.315419,-1.313064,1.689295,-0.205634,0.272972
46510,8.540771,-0.552956,-1.644916,1.506071,-0.399831,0.325402
46511,8.781602,0.111259,-1.564210,1.138578,-0.591814,0.410347
46512,9.531411,0.669275,-1.030392,0.616558,-0.671542,0.500354
46513,10.257203,1.203987,0.099088,0.001373,-0.553219,0.564806
46514,10.746202,1.566847,1.678593,-0.662056,-0.275292,0.576669
46515,11.272604,1.588769,2.818729,-1.309001,0.085103,0.559448
46516,11.415672,1.191327,3.446814,-1.860274,0.496141,0.502028
46517,11.070124,0.193219,3.408712,-2.230091,0.815900,0.421358
46518,10.560295,-1.373934,2.780870,-2.338659,1.005990,0.379697
46519,9.921426,-3.342407,1.916797,-2.093246,1.014801,0.382250
46520,9.251699,-5.139516,0.909352,-1.524367,0.859822,0.426390
46521,8.457357,-6.344150,-0.063717,-0.737352,0.583036,0.472511
46522,7.786950,-6.739345,-0.775145,0.100634,0.226868,0.491881
46523,7.668878,-6.417679,-1.265652,0.867395,-0.152981,0.510081
46524,8.026972,-5.578473,-1.585602,1.479067,-0.475494,0.533147
46525,8.479436,-4.191562,-1.695207,1.896692,-0.706524,0.561221
46526,9.002645,-2.591613,-1.436794,2.047550,-0.840784,0.590470
46527,9.640012,-1.023542,-0.849379,1.878727,-0.878939,0.614616
46528,10.318978,0.464202,0.214290,1.406338,-0.759991,0.640034
46529,10.729033,1.765238,1.893627,0.696637,-0.479501,0.625812
46530,11.248692,2.797045,3.969967,-0.201934,-0.088718,0.585573
46531,11.918163,3.271251,5.125786,-1.202452,0.413368,0.537459
46532,11.843355,2.914903,5.035755,-2.117390,0.904714,0.470214
46533,11.455304,1.275507,3.733840,-2.727858,1.232847,0.457943
46534,10.674998,-1.563379,2.180829,-2.890686,1.398852,0.500668
46535,9.971966,-4.658579,0.997960,-2.625305,1.331169,0.574631
46536,9.454926,-7.346685,0.008001,-2.002461,1.117124,0.640645
46537,8.567009,-9.069736,-0.771697,-1.076163,0.834115,0.651040
46538,7.513123,-9.526507,-1.498435,0.037293,0.481530,0.611934
46539,6.704757,-8.846625,-1.966571,1.153219,0.079092,0.579573
46540,6.598150,-7.409211,-2.123210,2.066373,-0.344656,0.584287
46541,7.404092,-5.632817,-1.945711,2.622030,-0.731772,0.655029
46542,8.734160,-3.812354,-1.582594,2.794258,-0.958072,0.748153
46543,10.046171,-1.957373,-0.838298,2.615227,-0.987606,0.794785
46544,10.736099,-0.190314,0.161161,2.147434,-0.840825,0.777643
46545,10.778404,1.416554,1.683021,1.453652,-0.591334,0.697449
46546,10.961773,2.593189,3.605923,0.570379,-0.306188,0.613488
46547,11.680993,2.933502,4.840577,-0.456931,0.130187,0.575158
46548,11.834606,2.452806,4.892361,-1.412975,0.689997,0.530221
46549,11.309028,1.092407,3.999708,-2.126381,1.158607,0.517146
46550,10.361110,-1.121534,2.693663,-2.496872,1.411546,0.537014
46551,9.406224,-3.679139,1.479837,-2.499369,1.409573,0.583683
46552,8.793904,-6.179592,0.384744,-2.182975,1.231759,0.623215
46553,8.085128,-8.182026,-0.619270,-1.553218,0.978446,0.637091
46554,7.015194,-9.224703,-1.276538,-0.668405,0.664324,0.600204
46555,6.169886,-9.329515,-1.813815,0.328766,0.244261,0.569595
46556,6.002125,-8.551586,-2.221717,1.260169,-0.232463,0.578347
46557,6.602906,-7.236700,-2.352376,1.965483,-0.698752,0.617056
46558,7.845228,-5.731431,-1.991140,2.373283,-1.065804,0.674730
46559,9.332117,-3.947982,-1.231062,2.406690,-1.238516,0.718980
46560,10.359724,-2.022029,0.038608,2.100286,-1.154234,0.720410
46561,10.722027,-0.041649,2.601509,1.517728,-0.895007,0.653685
46562,11.470952,1.661148,5.374264,0.626113,-0.469651,0.583420
46563,12.089527,2.477881,6.541515,-0.433599,0.198653,0.510221
46564,11.703265,2.065568,6.015997,-1.358313,0.864105,0.439929
46565,10.518873,0.332310,4.462591,-1.972880,1.317266,0.448451
46566,9.153421,-2.329864,2.813539,-2.224257,1.435702,0.547319
46567,8.563583,-5.267168,1.490015,-2.165703,1.275469,0.669193
46568,8.364823,-8.026208,0.206013,-1.818856,1.045162,0.765711
46569,7.725049,-10.004632,-0.985187,-1.145622,0.826579,0.777293
46570,6.592707,-10.905691,-1.813156,-0.210082,0.559832,0.737129
46571,5.513941,-10.818579,-2.349911,0.814207,0.152015,0.700886
46572,5.094482,-9.851011,-2.819983,1.729928,-0.385307,0.707401
46573,5.530708,-8.321868,-2.970845,2.390957,-0.967499,0.747478
46574,6.811348,-6.495016,-2.666075,2.708873,-1.445887,0.799723
46575,8.772748,-4.450048,-1.782183,2.589552,-1.668837,0.861512
46576,10.571542,-2.219359,-0.287598,2.069807,-1.553579,0.894510
46577,11.352900,-0.153329,2.162133,1.269165,-1.188384,0.860320
46578,11.893349,1.407642,5.296575,0.182536,-0.677016,0.795804
46579,12.408762,2.119856,7.131067,-1.138993,0.011387,0.722253
46580,12.025973,1.621947,6.852825,-2.356943,0.723185,0.634115
46581,10.831786,-0.072274,5.429430,-3.195405,1.247628,0.570120
46582,9.366300,-2.776316,3.601831,-3.561015,1.479433,0.587477
46583,8.213460,-6.092559,1.745086,-3.482292,1.447350,0.661605
46584,7.296397,-9.436518,-0.060116,-2.969260,1.224911,0.749674
46585,6.222068,-12.213663,-1.382123,-2.017943,0.900765,0.793097
46586,5.031535,-13.619735,-2.122455,-0.750655,0.462547,0.777648
46587,4.316495,-13.645271,-2.687830,0.635035,-0.077321,0.754075
46588,4.179962,-12.378577,-3.119495,1.949247,-0.639375,0.766239
46589,4.894782,-10.486615,-3.089983,3.009030,-1.191878,0.804836
46590,6.422604,-8.225947,-2.446311,3.620461,-1.596576,0.880683
46591,8.459625,-5.782633,-1.127239,3.704013,-1.737363,0.948330
46592,10.196010,-3.093745,0.948877,3.319864,-1.529618,0.976825
46593,11.105349,-0.608912,3.728344,2.561163,-1.069864,0.926242
46594,11.586788,1.215476,6.151470,1.500464,-0.435261,0.821228
46595,11.582111,1.887953,7.034941,0.318514,0.289014,0.690152
46596,10.885053,1.155237,6.082530,-0.754511,0.944532,0.588534
46597,9.386230,-0.747740,4.246499,-1.558061,1.381026,0.556665
46598,7.891993,-3.471720,2.532410,-2.017938,1.483221,0.611486
46599,7.126461,-6.629834,0.979401,-2.161622,1.354401,0.726390
46600,6.386869,-9.601135,-0.546789,-1.923535,1.144027,0.832240
46601,5.429307,-11.662486,-1.675517,-1.304969,0.881074,0.883407
46602,4.309255,-12.766389,-2.456342,-0.409851,0.522095,0.896884
46603,3.447326,-12.862052,-2.902454,0.630416,0.015156,0.908651
46604,3.386720,-11.860957,-2.862821,1.598785,-0.577587,0.939358
46605,4.525493,-10.139565,-2.218642,2.284652,-1.120564,1.003875
46606,6.561805,-7.988054,-0.888827,2.558925,-1.417769,1.080275
46607,8.553740,-5.494304,0.789310,2.384710,-1.358364,1.118067
46608,9.661394,-3.094091,2.809033,1.847893,-1.014895,1.090524
46609,10.035990,-1.174990,5.034472,1.027874,-0.544109,0.998210
46610,10.220100,-0.180028,6.654212,-0.026162,0.021491,0.891076
46611,9.895425,-0.497525,6.571380,-1.089815,0.622706,0.808256
46612,8.875385,-2.054456,5.348780,-1.858073,1.094832,0.784297
46613,7.755471,-4.509569,3.968810,-2.283412,1.334731,0.836819
46614,6.856978,-7.391409,2.669037,-2.393155,1.339765,0.942422
46615,6.166283,-10.268912,1.236865,-2.177385,1.192349,1.042731
46616,5.342346,-12.591421,-0.144704,-1.553504,0.988904,1.094679
46617,4.159597,-13.915172,-1.296822,-0.589782,0.710334,1.095794
46618,3.057548,-14.284937,-2.217149,0.559434,0.280927,1.092528
46619,2.559644,-13.765506,-2.856304,1.711628,-0.257903,1.108769
46620,2.776735,-12.341033,-2.958637,2.648754,-0.860668,1.152919
46621,3.856550,-10.562701,-2.552175,3.182105,-1.401428,1.220202
46622,5.373631,-8.345206,-1.596580,3.238641,-1.715271,1.288510
46623,7.110823,-5.781611,-0.292446,2.817721,-1.711309,1.345330
46624,8.156751,-3.087687,1.123926,2.013044,-1.429318,1.344698
46625,8.271809,-0.707302,2.454444,0.957754,-1.043702,1.270865
46626,8.285178,0.833252,4.556055,-0.286901,-0.642227,1.152926
46627,8.879135,1.276340,6.777463,-1.788581,-0.110418,1.047869
46628,9.443264,0.458291,7.397560,-3.354554,0.622165,0.959174
46629,8.941079,-1.454594,6.314831,-4.552464,1.352654,0.865521
46630,7.531398,-4.572478,4.212769,-5.154233,1.853925,0.808629
46631,5.484863,-8.845461,1.931341,-4.996230,2.045924,0.822492
46632,3.611640,-13.436055,0.471390,-4.125439,1.861578,0.907731
46633,2.352140,-17.626349,-1.103615,-2.726307,1.370090,1.006737
46634,1.220706,-20.028124,-2.533921,-0.849874,0.700914,1.023013
46635,0.297223,-19.884202,-3.410503,1.209943,-0.068064,0.973321
46636,0.406206,-17.803471,-3.957911,3.075804,-0.854625,0.923639
46637,1.470809,-14.840407,-4.203260,4.507172,-1.499243,0.925774
46638,2.996548,-11.933161,-3.838021,5.360442,-1.874224,0.993282
46639,4.639781,-9.063375,-2.262350,5.564672,-1.954076,1.114008
46640,6.307679,-5.836201,0.079785,5.032564,-1.776228,1.272103
46641,7.462879,-2.390262,2.363459,3.843384,-1.340959,1.385846
46642,7.542343,0.434969,3.796533,2.253195,-0.828745,1.384804
46643,7.172974,1.982686,4.761341,0.454298,-0.396116,1.277368
46644,7.073440,1.817824,5.474426,-1.401744,0.032950,1.129775
46645,7.347292,0.127674,5.518642,-3.129456,0.607779,1.010605
46646,7.058216,-2.405543,4.414769,-4.501135,1.283886,0.966970
46647,5.610739,-5.727193,2.818466,-5.333549,1.854628,0.989058
46648,3.500311,-9.768738,1.857285,-5.517247,2.126548,1.117577
46649,1.248216,-14.164573,1.634082,-5.081537,2.031792,1.340088
46650,-0.238501,-18.262150,1.438752,-3.969564,1.589689,1.552893
46651,-0.591484,-21.120664,0.931322,-2.238432,0.965706,1.670699
46652,-0.272126,-22.520691,-0.473831,-0.041843,0.334078,1.699319
46653,0.330944,-22.213399,-2.646348,2.490060,-0.248607,1.651145
46654,0.844879,-20.066155,-5.028775,5.006169,-0.799917,1.556884
46655,1.369219,-16.651026,-6.662970,7.096046,-1.301850,1.405610
46656,2.016349,-12.727146,-6.181802,8.369063,-1.656219,1.240866
46657,3.076730,-8.566160,-3.916113,8.575146,-1.842012,1.195821
46658,4.548964,-3.730948,-0.130645,7.466525,-1.734143,1.358166
46659,4.989962,1.840124,3.178201,5.223079,-1.241002,1.517119
46660,4.286453,6.649185,4.739890,2.383621,-0.633178,1.437197
46661,3.957653,8.809264,4.825959,-0.420793,-0.236736,1.174183
46662,4.901562,7.807005,4.413894,-2.962733,0.111827,0.956779
46663,5.793451,4.062217,3.687258,-5.120828,0.625553,0.867843
46664,5.745986,-0.517961,2.340938,-6.711196,1.185136,0.859037
46665,5.033265,-5.139169,1.311242,-7.634410,1.677636,0.945111
46666,3.533099,-9.648233,1.238762,-7.941322,2.036100,1.134886
46667,0.139407,-15.355202,0.992500,-7.507739,2.081147,1.274987
46668,-3.220532,-22.436126,-0.414902,-5.593580,1.569214,1.107915
46669,-4.487412,-27.571783,-2.864812,-2.080149,0.631503,0.741814
46670,-3.659376,-27.634696,-4.463537,2.206593,-0.445107,0.516686
46671,-1.876862,-22.242351,-4.899379,5.722573,-1.296685,0.403474
46672,0.427520,-15.551253,-4.086358,7.703353,-1.711743,0.369011
46673,2.345150,-10.034706,-2.783341,8.336794,-1.708687,0.426907
46674,3.082842,-5.443277,-0.833200,7.966145,-1.468032,0.551655
46675,2.811604,-1.392953,2.219798,6.680996,-1.128126,0.692487
46676,1.912072,2.424508,5.113651,4.543501,-0.774065,0.769271
46677,1.308360,4.848164,6.110053,1.767493,-0.532601,0.764198
46678,1.810048,4.728944,5.167015,-1.067840,-0.406640,0.692376
46679,3.163330,1.982338,3.691555,-3.418666,-0.148671,0.599406
46680,4.000536,-2.318180,2.559502,-4.969977,0.357720,0.537734
46681,3.566406,-6.915520,1.903601,-5.831316,0.955475,0.586204
46682,1.656037,-12.086426,1.583403,-5.937426,1.364653,0.733363
46683,-1.590290,-17.460471,1.274557,-4.968156,1.382393,0.767475
46684,-4.024287,-21.843900,0.915797,-2.825915,0.858976,0.644461
46685,-3.735375,-22.896772,-0.711394,0.237930,-0.018927,0.498486
46686,-2.069580,-19.485270,-1.230590,3.134755,-0.683045,0.414825
46687,-0.489265,-13.878236,-0.620462,4.888947,-1.023303,0.317898
46688,0.708428,-9.125737,0.674459,5.411685,-1.082503,0.344793
46689,0.864131,-5.736306,1.488483,5.027735,-0.945733,0.430517
46690,0.439046,-3.031263,2.745482,3.895259,-0.832800,0.587027
46691,0.070532,-0.597003,4.645166,2.107219,-0.697053,0.759076
46692,0.223399,1.803838,5.665303,-0.237370,-0.547339,0.832802
46693,1.231557,2.493453,4.698290,-2.737840,-0.436146,0.817721
46694,2.780953,0.622824,2.876076,-4.778965,-0.246904,0.755382
46695,3.607309,-3.344613,1.181308,-5.971089,0.115437,0.615858
46696,3.525031,-8.175937,0.685898,-6.378312,0.511069,0.520742
46697,2.391900,-13.427635,0.884609,-6.083306,0.894491,0.536444
46698,-0.362669,-18.368358,1.519250,-4.932530,1.095609,0.566655
46699,-3.304695,-22.370009,2.065406,-2.811796,0.868740,0.527736
46700,-4.764247,-23.355868,1.880844,0.099953,0.203376,0.411458
46701,-3.560873,-21.382060,1.121370,3.008130,-0.590910,0.350298
46702,-1.236607,-18.413843,-0.430029,5.354993,-1.103092,0.279230
46703,0.158473,-15.710613,-2.738552,6.966528,-1.238785,0.141700
46704,0.494300,-12.681814,-3.924254,7.831004,-1.154278,-0.010187
46705,0.920527,-7.276527,-2.391148,7.739392,-0.842020,-0.058655
46706,0.815957,-0.155552,1.744387,6.373096,-0.238594,0.108832
46707,-0.523600,6.447552,5.663339,3.613681,0.282747,0.313087
46708,-0.954818,9.079031,6.909782,0.162983,0.357660,0.398416
46709,0.730176,6.917531,6.175855,-2.908916,0.262645,0.496994
46710,2.417086,2.131785,4.870266,-5.149062,0.369544,0.637298
46711,2.089484,-3.354096,3.022433,-6.466968,0.615294,0.733334
46712,0.181546,-10.085508,1.593575,-6.602454,0.681671,0.767314
46713,-1.761333,-18.155785,1.218123,-5.356379,0.549121,0.716239
46714,-2.773081,-25.302961,1.191513,-2.697802,0.339938,0.535389
46715,-2.901172,-28.003105,0.614529,0.935057,0.066621,0.240285
46716,-2.247694,-25.347100,-0.550100,4.532624,-0.291929,-0.047617
46717,-1.086211,-18.819348,-2.029403,7.193403,-0.579688,-0.366423
46718,0.168590,-11.090751,-2.280253,8.472166,-0.575559,-0.658686
46719,1.049649,-3.419486,-0.450547,8.368004,-0.270782,-0.747950
46720,0.692708,3.395037,3.177406,6.760493,0.168909,-0.550540
46721,-0.537622,8.017339,6.468004,3.783739,0.473736,-0.173955
46722,-1.452521,9.850761,7.657129,0.050983,0.524908,0.158622
46723,-0.795262,8.012237,6.555178,-3.536501,0.390637,0.427837
46724,0.982745,3.902552,4.686749,-6.389356,0.408003,0.656065
46725,2.068465,-0.892590,2.068536,-8.337553,0.709846,0.823137
46726,1.127260,-5.859981,-0.849058,-9.269143,1.073842,0.790365
46727,-1.458907,-11.795094,-2.398834,-8.923257,1.160021,0.534177
46728,-3.114746,-20.473615,-1.518782,-7.104417,0.959244,0.335807
46729,-3.352958,-28.731812,-0.354008,-3.714347,0.599644,0.110615
46730,-3.207116,-30.235457,-0.006039,0.584293,0.212351,-0.243156
46731,-2.669617,-25.021246,-0.795250,4.660044,-0.294695,-0.583250
46732,-1.094504,-17.273065,-1.962324,7.496890,-0.700022,-0.868148
46733,0.229233,-10.108897,-1.885759,8.770599,-0.728043,-1.030589
46734,0.548355,-4.173376,-0.577170,8.642926,-0.542838,-0.988769
46735,0.224049,0.879898,1.629073,7.280499,-0.382252,-0.775002
46736,-0.521568,5.077956,4.180529,4.803625,-0.244834,-0.477007
46737,-1.262211,7.750068,5.571440,1.549240,-0.212173,-0.260563
46738,-0.881120,7.575751,4.851858,-1.786108,-0.361924,-0.227340
46739,1.281662,5.132096,3.609292,-4.598255,-0.410092,-0.330516
46740,3.165172,1.120415,1.826208,-6.634674,-0.045027,-0.498846
46741,3.734759,-3.704263,0.445836,-7.720652,0.516992,-0.623759
46742,3.624530,-8.960747,-0.243489,-7.870669,1.097982,-0.655882
46743,2.038980,-13.814936,-0.386217,-7.151890,1.560133,-0.712810
46744,-0.533972,-17.797008,-0.052025,-5.666509,1.725778,-0.914882
46745,-2.896389,-20.372826,0.131303,-3.480529,1.454997,-1.193112
46746,-3.826342,-20.608548,0.168971,-0.847748,0.828351,-1.415869
46747,-3.206221,-18.272854,-0.135107,1.648082,0.148854,-1.550823
46748,-2.035516,-14.934614,-0.523220,3.508415,-0.333898,-1.653668
46749,-1.012057,-11.891878,-0.388035,4.582231,-0.671079,-1.654851
46750,-0.076488,-9.606020,-0.116987,4.936349,-0.920046,-1.550289
46751,0.739981,-7.890224,0.484260,4.730273,-1.066027,-1.422051
46752,1.354421,-6.416778,1.971725,4.054332,-1.070484,-1.361192
46753,2.093610,-5.075547,4.006074,2.943791,-0.884416,-1.400345
46754,2.887445,-3.778162,5.617805,1.585158,-0.522876,-1.534471
46755,3.610426,-3.273739,6.047209,0.244987,-0.045085,-1.718835
46756,3.666613,-3.754959,5.515832,-0.811914,0.389838,-1.873625
46757,3.196636,-5.332969,4.426435,-1.607885,0.731954,-1.934729
46758,2.076596,-7.347492,3.085903,-2.066159,0.910743,-1.868168
46759,0.890095,-9.341871,1.888904,-2.310189,0.864388,-1.684984
46760,0.228906,-11.167146,0.698534,-2.371798,0.641728,-1.426446
46761,0.032546,-12.303161,-0.234838,-2.210816,0.315786,-1.173977
46762,0.371252,-12.456158,-0.458285,-1.898181,-0.035596,-0.986634
46763,1.047420,-11.829087,-0.241925,-1.591019,-0.335889,-0.932661
46764,2.285721,-10.843101,1.099092,-1.380182,-0.537312,-0.995706
46765,4.118230,-9.642930,3.689514,-1.404151,-0.549573,-1.076040
46766,6.242971,-8.709120,6.292092,-1.703416,-0.204483,-1.108776
46767,7.109132,-8.681482,6.796322,-1.880885,0.447104,-1.099224
46768,5.931920,-9.728459,5.562338,-1.544585,0.998645,-1.125498
46769,4.171026,-11.308012,4.440866,-0.885277,1.286815,-1.158813
46770,2.760725,-12.663999,3.539023,-0.151817,1.280827,-1.167010
46771,2.136317,-13.412339,1.719764,0.654511,1.056219,-1.179178
46772,1.586176,-13.498539,-0.458321,1.612646,0.710024,-1.184802
46773,0.948391,-13.229881,-1.950415,2.517576,0.258947,-1.165603
46774,0.545034,-12.551488,-2.349558,3.170127,-0.243984,-1.109348
46775,0.753866,-11.156478,-2.357610,3.494354,-0.708483,-1.021003
46776,1.438244,-9.089730,-1.856996,3.481506,-1.038937,-0.928140
46777,2.375910,-6.915881,-0.690617,3.139887,-1.236450,-0.841104
46778,3.656498,-4.789137,0.765167,2.463240,-1.298156,-0.784865
46779,5.080608,-2.858995,2.553053,1.475153,-1.238675,-0.774053
46780,6.711257,-1.380513,4.842794,0.194184,-1.024424,-0.794112
46781,8.155943,-0.695753,6.523281,-1.239803,-0.519704,-0.875675
46782,8.562289,-1.111569,6.691124,-2.527834,0.210231,-1.034359
46783,7.946454,-2.733252,5.756403,-3.470652,0.917237,-1.209458
46784,6.685713,-5.176282,4.580630,-3.989713,1.426182,-1.298248
46785,5.588457,-8.036345,3.329036,-4.152172,1.672914,-1.272614
46786,4.646908,-11.051345,1.697021,-3.894502,1.683524,-1.185387
46787,3.718264,-13.857032,-0.232198,-3.101484,1.481623,-1.112808
46788,2.556007,-15.962589,-1.770271,-1.815997,1.083509,-1.075168
46789,1.246614,-16.841483,-2.492946,-0.300201,0.495500,-1.060027
46790,0.596277,-16.296379,-2.797560,1.166054,-0.217154,-1.034810
46791,0.994748,-14.578615,-2.549178,2.345019,-0.922927,-0.971758
46792,2.378112,-12.269175,-1.877627,3.111659,-1.461573,-0.858217
46793,4.327740,-9.811369,-0.806464,3.459407,-1.744881,-0.741199
46794,6.033116,-7.122200,0.517482,3.385209,-1.757876,-0.665217
46795,7.146334,-4.356940,2.181320,2.902947,-1.605015,-0.665857
46796,8.008725,-2.039715,4.336960,2.006909,-1.324747,-0.707877
46797,8.519516,-0.516336,6.664073,0.806636,-0.845176,-0.833919
46798,9.028326,-0.072536,7.902894,-0.521281,-0.164122,-0.976084
46799,8.770554,-0.986229,7.234922,-1.685432,0.583451,-1.100515
46800,7.718338,-2.946306,5.650430,-2.462958,1.122941,-1.139625
46801,6.910017,-5.453360,4.099194,-2.909468,1.387276,-1.097547
46802,6.388092,-8.396379,2.126537,-2.993493,1.457270,-1.015966
46803,5.590773,-11.322290,-0.229505,-2.562946,1.346804,-0.969523
46804,4.270670,-13.682230,-1.994354,-1.645762,1.042969,-0.966431
46805,2.731680,-14.967877,-2.884455,-0.498475,0.521552,-0.972369
46806,1.821358,-14.944800,-3.144509,0.678989,-0.171971,-0.946742
46807,2.048150,-13.632857,-2.821092,1.699047,-0.855507,-0.858993
46808,3.269967,-11.445787,-2.134814,2.436486,-1.388516,-0.722346
46809,4.964435,-9.012467,-1.007101,2.828187,-1.668369,-0.584043
46810,6.502423,-6.401948,0.239379,2.823658,-1.722660,-0.492526
46811,7.674331,-3.862325,1.570431,2.412183,-1.629503,-0.476764
46812,8.463409,-1.664935,2.975438,1.661225,-1.463545,-0.536918
46813,9.074104,-0.121708,4.939181,0.631062,-1.179087,-0.674988
46814,9.994417,0.601159,6.781838,-0.573462,-0.723011,-0.838718
46815,10.494341,0.315768,7.277082,-1.774596,-0.003338,-1.024584
46816,9.884681,-1.096667,6.106784,-2.699710,0.722684,-1.168866
46817,8.494173,-3.407861,4.340811,-3.201353,1.233964,-1.222708
46818,7.114879,-6.303310,2.896248,-3.295754,1.440745,-1.173001
46819,6.401762,-9.304973,1.504710,-3.054521,1.378598,-1.066284
46820,6.063142,-12.031563,-0.058630,-2.416691,1.178572,-0.963791
46821,5.323617,-13.892575,-1.477194,-1.387447,0.855599,-0.919315
46822,4.375218,-14.561437,-2.511171,-0.100891,0.385954,-0.895547
46823,3.753891,-13.939023,-2.676341,1.171836,-0.203295,-0.883880
46824,4.034643,-12.328447,-2.337327,2.207258,-0.810708,-0.823716
46825,5.136587,-9.932538,-1.439667,2.899296,-1.268228,-0.729572
46826,6.676082,-7.330299,-0.238216,3.163121,-1.490147,-0.627967
46827,8.105613,-4.677966,1.171141,3.018486,-1.477027,-0.560485
46828,8.947881,-2.289208,2.683614,2.501078,-1.281879,-0.570282
46829,9.482239,-0.531312,4.620697,1.692207,-1.008870,-0.647272
46830,10.146839,0.642382,6.615138,0.648516,-0.622563,-0.788710
46831,10.889936,0.931436,7.492686,-0.504073,-0.077033,-0.951262
46832,11.223484,0.182356,6.759710,-1.461740,0.568881,-1.104443
46833,10.664606,-1.579340,5.369532,-2.061417,1.114826,-1.201724
46834,9.873849,-4.154664,4.043893,-2.300419,1.438315,-1.197768
46835,9.137097,-7.111652,2.098446,-2.207753,1.543262,-1.101712
46836,7.590443,-9.878535,-0.200891,-1.592831,1.522972,-0.998439
46837,5.562266,-12.031905,-2.084252,-0.539368,1.233245,-0.924227
46838,3.849967,-13.145627,-3.253960,0.716143,0.672657,-0.874825
46839,2.880797,-13.034752,-3.688688,1.883460,-0.085883,-0.830192
46840,3.331712,-11.400170,-3.615450,2.779054,-0.892794,-0.747251
46841,4.964997,-8.960851,-2.951155,3.291258,-1.499534,-0.623038
46842,6.881206,-6.189801,-1.690884,3.442577,-1.820503,-0.510126
46843,8.699496,-3.286984,0.081402,3.189470,-1.860848,-0.424904
46844,9.983989,-0.574124,2.089540,2.513730,-1.676688,-0.376490
46845,10.774103,1.736230,4.294819,1.470135,-1.331126,-0.406282
46846,11.578281,2.887756,6.026421,0.196891,-0.882366,-0.479121
46847,12.103145,2.985495,6.640636,-1.115243,-0.269624,-0.601245
46848,11.979755,1.912298,5.916766,-2.253307,0.377250,-0.743662
46849,11.151560,-0.159645,4.348384,-3.044792,0.920232,-0.834084
46850,9.917704,-2.750472,2.888803,-3.383915,1.220326,-0.845903
46851,9.189559,-5.564797,2.086726,-3.344880,1.283311,-0.774895
46852,8.716310,-8.248019,0.984045,-2.987028,1.237897,-0.658169
46853,7.477210,-10.242579,-0.481131,-2.229887,1.110420,-0.607183
46854,5.804168,-11.287393,-1.825522,-1.075154,0.779322,-0.630435
46855,4.547428,-11.343764,-2.453779,0.249667,0.230415,-0.671461
46856,4.182664,-10.504164,-2.519515,1.425579,-0.476806,-0.665246
46857,5.255749,-8.846251,-1.857590,2.240430,-1.154167,-0.573540
46858,7.100154,-6.691610,-0.774948,2.594753,-1.574127,-0.438581
46859,8.984082,-4.285647,0.284674,2.572838,-1.681530,-0.311321
46860,10.238607,-1.889192,1.568335,2.264322,-1.547120,-0.252399
46861,11.072756,-0.007976,3.326453,1.686092,-1.294211,-0.288891
46862,11.756258,1.157910,5.611987,0.836067,-0.930583,-0.385799
46863,12.597003,1.502919,7.125714,-0.241559,-0.374923,-0.510675
46864,12.597147,0.995904,6.627690,-1.246405,0.338732,-0.660494
46865,11.142125,-0.389704,4.828361,-1.826234,0.965418,-0.818226
46866,9.731854,-2.671524,3.432375,-1.913944,1.263413,-0.860704
46867,9.308178,-5.484350,2.911839,-1.695504,1.340028,-0.734391
46868,9.121989,-7.941493,2.310500,-1.292963,1.296065,-0.548602
46869,8.563226,-9.365286,1.035094,-0.636789,1.173847,-0.435411
46870,7.374540,-9.770941,-0.912151,0.343607,0.974046,-0.451731
46871,5.639802,-9.429829,-2.490919,1.599509,0.608596,-0.568023
46872,4.611424,-8.508735,-3.118997,2.824486,-0.019599,-0.648825
46873,4.923302,-7.260753,-2.922538,3.634888,-0.789760,-0.596520
46874,6.473501,-5.489705,-2.539483,3.911602,-1.432075,-0.431669
46875,8.213613,-3.281969,-1.810320,3.746020,-1.771192,-0.254469
46876,9.612398,-0.896872,-0.445572,3.254304,-1.843715,-0.131625
46877,10.846945,1.282211,1.814618,2.453945,-1.709856,-0.095662
46878,11.912009,2.945975,4.001003,1.309774,-1.351374,-0.090691
46879,12.505258,3.802499,5.388202,-0.004442,-0.788224,-0.143951
46880,12.470293,3.594199,5.489395,-1.261848,-0.150325,-0.246748
46881,12.002037,2.112329,4.541685,-2.269828,0.434017,-0.363235
46882,10.955919,-0.162417,3.062440,-2.814773,0.850528,-0.453402
46883,9.962873,-2.609514,2.137301,-2.875489,1.053055,-0.489391
46884,9.381472,-5.093079,1.935242,-2.651464,1.073725,-0.448391
46885,8.920492,-7.012085,1.479463,-2.212311,0.982460,-0.376642
46886,7.924788,-7.983790,0.151388,-1.512090,0.815695,-0.368400
46887,6.571753,-8.081188,-1.229571,-0.507066,0.515156,-0.432365
46888,5.493725,-7.493823,-2.439662,0.651470,-0.035824,-0.492107
46889,5.615962,-6.527476,-2.469640,1.615785,-0.752506,-0.452145
46890,6.868459,-5.214229,-1.815384,2.108053,-1.424176,-0.312550
46891,8.774947,-3.385742,-0.745699,2.030538,-1.792761,-0.093242
46892,10.378379,-1.538438,0.275354,1.536675,-1.788161,0.096679
46893,11.124165,0.253614,1.154797,0.913171,-1.549888,0.198947
46894,11.162066,1.441203,2.318317,0.210593,-1.250886,0.193539
46895,11.307389,1.882472,4.201633,-0.602937,-0.981713,0.137819
46896,12.358962,1.839078,5.908745,-1.611895,-0.591306,0.068016
46897,13.160100,1.373029,6.173867,-2.628207,0.093935,-0.071300
46898,12.276503,0.365728,4.421720,-3.222613,0.787018,-0.341315
46899,10.772548,-1.648247,2.407484,-3.224877,1.172195,-0.582115
46900,9.347350,-4.349979,1.083137,-2.733619,1.280381,-0.627224
46901,7.989387,-6.758730,0.289944,-1.890299,1.131222,-0.565950
46902,7.047694,-8.182961,-0.166331,-0.875491,0.764868,-0.511549
46903,6.710926,-8.405998,-0.709548,0.178045,0.272902,-0.501610
46904,6.996429,-7.318841,-1.210544,1.194654,-0.231238,-0.511104
46905,7.691476,-5.385142,-1.410112,2.014174,-0.657343,-0.497155
46906,8.440437,-3.321802,-1.154943,2.499240,-0.996234,-0.452557
46907,9.331318,-1.648977,-0.357797,2.575456,-1.220957,-0.379804
46908,10.402522,-0.227514,0.890833,2.262535,-1.257164,-0.324554
46909,11.492208,0.896717,2.111118,1.662619,-1.071964,-0.326195
46910,12.270104,1.651014,3.435372,0.961180,-0.685362,-0.423767
46911,12.575910,1.743080,3.631641,0.320758,-0.223034,-0.593906
46912,12.044814,1.507554,3.264991,-0.091142,0.254352,-0.828580
46913,11.177782,0.703784,2.689548,-0.264450,0.547367,-1.049077
46914,10.470231,-0.537905,2.294615,-0.304066,0.677434,-1.169893
46915,9.765778,-1.905711,1.866240,-0.232424,0.683297,-1.189513
46916,8.447739,-2.757401,0.542748,-0.023798,0.606719,-1.154540
46917,7.114349,-2.979518,-0.710958,0.325210,0.389770,-1.098405
46918,6.377023,-2.892491,-1.728395,0.667181,-0.057885,-1.013969
46919,7.215433,-2.793838,-1.922603,0.840659,-0.581763,-0.871820
46920,8.931599,-2.657005,-1.615386,0.766155,-0.909048,-0.642633
46921,9.924599,-2.187820,-1.210409,0.541277,-0.953795,-0.462456
46922,10.211663,-1.549241,-0.584834,0.316005,-0.861137,-0.376999
46923,10.262363,-0.824007,0.218137,0.061739,-0.781661,-0.335369
46924,10.631520,0.145779,1.646943,-0.303655,-0.701560,-0.327529
46925,11.622739,0.815103,3.162878,-0.819862,-0.488764,-0.358494
46926,12.421415,0.971103,4.090545,-1.425305,-0.036284,-0.434300
46927,12.219953,0.293482,3.779110,-1.862658,0.517097,-0.523492
46928,10.826818,-0.887966,2.384302,-1.950081,0.920943,-0.601515
46929,9.142332,-2.870217,0.823406,-1.649493,0.995141,-0.603774
46930,7.769965,-4.849411,-0.543080,-1.029538,0.711606,-0.534497
46931,7.096809,-5.910804,-1.283486,-0.236144,0.215599,-0.450999
46932,7.226001,-5.357715,-1.377731,0.549280,-0.313573,-0.404143
46933,8.295365,-3.541285,-0.944962,1.110755,-0.711347,-0.393113
46934,9.520746,-1.579894,-0.457100,1.305698,-0.871498,-0.353141
46935,10.206727,-0.068252,-0.080254,1.164202,-0.831254,-0.290036
46936,10.415209,0.838538,0.139831,0.818231,-0.715021,-0.212492
46937,10.633294,1.334298,0.646332,0.355443,-0.578013,-0.125854
46938,11.344669,1.612303,2.040093,-0.163582,-0.382306,-0.074499
46939,12.030595,1.583629,3.404085,-0.668330,-0.021695,-0.113491
46940,12.099476,0.925779,3.601618,-1.107532,0.457559,-0.178125
46941,10.667953,-0.533279,2.504613,-1.295217,0.862714,-0.191110
46942,8.787953,-2.392083,1.150085,-1.033658,0.906336,-0.137087
46943,8.396448,-4.040337,0.213587,-0.449856,0.610165,-0.055176
46944,8.944023,-4.944203,-0.428287,0.178014,0.268549,-0.020599
46945,8.852950,-4.486448,-1.069404,0.800653,0.006909,-0.079024
46946,8.608915,-3.270130,-1.365935,1.374603,-0.267636,-0.169637
46947,8.936714,-1.526054,-1.233325,1.683402,-0.577571,-0.185528
46948,9.734098,-0.068956,-0.828002,1.528966,-0.779734,-0.117226
46949,10.333323,0.928712,-0.395198,1.089861,-0.759156,-0.038369
46950,10.648837,1.809400,0.292135,0.530876,-0.592391,0.032976
46951,10.800529,2.087537,0.788236,-0.083574,-0.360644,0.112170
46952,10.864758,2.143350,1.462296,-0.706358,-0.121396,0.145490
46953,10.978682,1.503751,2.054023,-1.218069,0.139277,0.109565
46954,10.709096,0.319427,2.018889,-1.505644,0.377229,0.061433
46955,10.002253,-1.428875,1.576380,-1.549262,0.518815,0.044862
46956,8.949364,-3.048384,0.738085,-1.281941,0.499702,0.035067
46957,8.205975,-4.194304,-0.047246,-0.716248,0.283439,0.038356
46958,8.211142,-4.488791,-0.453732,-0.019444,-0.015316,0.034758
46959,8.711428,-3.812074,-0.409204,0.609142,-0.273877,0.007275
46960,9.186820,-2.698884,-0.143953,1.021592,-0.429158,-0.015305
46961,9.601699,-1.440185,0.047304,1.199952,-0.494751,-0.014899
46962,10.050989,-0.324195,0.185148,1.158767,-0.486274,0.015990
46963,10.437555,0.612762,0.265312,0.928612,-0.401582,0.059255
46964,10.524286,1.070667,0.341373,0.556949,-0.269695,0.081268
46965,10.409586,0.928357,0.367082,0.147897,-0.138423,0.107112
46966,10.188968,0.556430,0.510837,-0.188217,-0.037827,0.124908
46967,10.018696,0.136442,0.581204,-0.449502,0.013518,0.144225
46968,9.898398,-0.331114,0.569862,-0.637715,0.033372,0.161405
46969,9.813434,-0.783938,0.516489,-0.712843,0.026763,0.180135
46970,9.773220,-1.162542,0.553318,-0.681176,0.006070,0.189049
46971,9.722097,-1.524026,0.532902,-0.585978,-0.018341,0.183409
46972,9.562099,-1.815304,0.362991,-0.421866,-0.066484,0.152516
46973,9.501345,-1.939057,0.203755,-0.189840,-0.122596,0.120976
46974,9.533231,-1.751326,0.087000,0.052606,-0.166551,0.091562
46975,9.538330,-1.441355,0.064142,0.258495,-0.200605,0.063003
46976,9.670689,-0.993685,0.131890,0.392038,-0.226971,0.043667
46977,9.741625,-0.537602,0.232447,0.427076,-0.242438,0.030361
46978,9.916782,-0.115503,0.237002,0.370941,-0.241298,0.026954
46979,9.925418,0.197258,0.282454,0.239215,-0.224801,0.024692
46980,10.007303,0.388865,0.250229,0.071895,-0.199107,0.019027
46981,10.070260,0.436668,0.106881,-0.115458,-0.165849,0.021363
46982,10.089974,0.284408,-0.067104,-0.297057,-0.134622,0.027460
46983,10.034477,0.200414,-0.153668,-0.458176,-0.112972,0.011437
46984,10.057324,-0.088365,-0.080073,-0.592572,-0.109490,-0.003958
46985,10.184846,-0.512247,0.240318,-0.674265,-0.086478,-0.008220
46986,10.153223,-0.791825,0.681518,-0.708194,-0.029658,-0.011814
46987,10.033830,-1.102399,0.896324,-0.701628,0.019575,-0.012492
46988,9.918165,-1.401831,1.008860,-0.641973,0.052600,0.002369
46989,9.784862,-1.666504,0.828495,-0.537500,0.059921,0.015512
46990,9.689987,-1.856923,0.606858,-0.394988,0.037332,0.031290
46991,9.725380,-1.952720,0.381110,-0.208542,0.010760,0.038399
46992,9.844513,-1.783171,0.242807,-0.036557,0.004826,0.035071
46993,9.911095,-1.390032,0.133826,0.090596,0.002431,0.026056
46994,9.943811,-1.036449,0.052806,0.146530,0.006968,0.008257
46995,9.974259,-0.796969,0.058895,0.138308,0.018293,-0.001630
46996,9.923228,-0.766670,-0.022658,0.080175,0.033508,-0.003740
46997,9.818620,-0.805477,-0.011985,0.016789,0.033350,-0.000289
46998,9.771579,-0.880759,-0.028692,-0.055524,0.026368,-0.010514
46999,9.744003,-0.927091,-0.111154,-0.111644,0.026139,-0.013913
47000,9.697119,-1.001200,-0.129601,-0.144106,0.023221,-0.017606
47001,9.744050,-1.077647,-0.121590,-0.144685,0.020811,-0.013463
47002,9.737767,-1.085553,-0.099091,-0.142948,0.030790,-0.015895
47003,9.722845,-1.156830,-0.051868,-0.134859,0.027140,-0.028064
47004,9.723134,-1.230608,-0.057674,-0.105314,0.016564,-0.035414
47005,9.742594,-1.336860,-0.044941,-0.063331,0.013333,-0.031585
47006,9.717383,-1.387695,-0.049485,-0.033199,-0.009996,-0.030476
47007,9.736965,-1.417061,-0.032595,0.002611,-0.026991,-0.036686
47008,9.692609,-1.358687,-0.051955,0.033406,-0.041056,-0.019411
47009,9.656531,-1.315147,-0.103651,0.063579,-0.065719,0.003445
47010,9.733080,-1.231691,-0.104939,0.088061,-0.091186,0.022165
47011,9.988547,-1.311229,-0.125397,0.102943,-0.084783,0.038202
47012,10.262809,-1.502378,-0.130828,0.119690,-0.041548,0.058911
47013,10.180146,-1.856893,-0.141997,0.171819,0.003432,0.073984
47014,9.958399,-2.122427,-0.011853,0.249146,0.006150,0.082429
47015,9.788471,-1.988869,0.060436,0.352759,-0.029816,0.097803
47016,9.739435,-1.556929,0.266551,0.468337,-0.075842,0.117628
47017,9.757727,-1.098109,0.414782,0.541921,-0.105552,0.131623
47018,9.812628,-0.775536,0.510393,0.549381,-0.112311,0.143896
47019,9.805089,-0.618890,0.543527,0.514604,-0.096541,0.141990
47020,9.856350,-0.540812,0.453222,0.482122,-0.065479,0.133870
47021,9.806452,-0.545507,0.356433,0.455869,-0.041454,0.104876
47022,9.831643,-0.518022,0.267661,0.432696,-0.028274,0.066446
47023,9.835256,-0.510624,0.165124,0.410705,-0.009839,0.041656
47024,9.847883,-0.496071,0.122968,0.407488,0.005562,0.017356
47025,9.872060,-0.476451,0.221745,0.393901,0.017885,0.000423
47026,9.867437,-0.505963,0.240393,0.377180,0.038049,-0.017154
47027,9.804192,-0.593468,0.195074,0.372303,0.052711,-0.029372
47028,9.841486,-0.673385,0.155923,0.387404,0.059629,-0.049523
47029,9.899707,-0.806853,0.131562,0.401856,0.066988,-0.054069
47030,10.006934,-0.963968,0.114852,0.422067,0.072285,-0.055037
47031,10.002832,-0.988514,0.141147,0.444672,0.077078,-0.062006
47032,9.908070,-0.902976,0.044962,0.444072,0.065807,-0.068636
47033,9.876154,-0.725343,-0.004040,0.411656,0.047054,-0.080943
47034,9.841503,-0.601008,-0.048608,0.357211,0.033915,-0.092312
