// Start Time: Unknown
// Update Rate: 100.0Hz
// Filter Profile: human (46.1)
// Firmware Version: 4.3.5
PacketCounter,Acc_X,Acc_Y,Acc_Z,Gyr_X,Gyr_Y,Gyr_Z
52163,9.376331,-2.078727,2.529362,0.023351,0.006608,0.015999
52164,9.372189,-2.036421,2.563927,0.019986,0.009305,0.011589
52165,9.375400,-2.080075,2.531704,0.021544,0.005913,0.012485
52166,9.369796,-2.109116,2.551187,0.023633,0.004129,0.008148
52167,9.374821,-2.080416,2.533569,0.020246,0.005855,0.002547
52168,9.378878,-2.099102,2.506050,0.026064,0.002769,-0.000471
52169,9.354904,-2.096957,2.502193,0.021931,0.000738,-0.001075
52170,9.373619,-2.126413,2.525694,0.019759,-0.001354,-0.001496
52171,9.373154,-2.149761,2.520981,0.021338,-0.003776,0.000593
52172,9.377856,-2.144712,2.497878,0.025542,0.001165,0.004764
52173,9.396461,-2.174572,2.521463,0.021386,-0.001836,0.002972
52174,9.396948,-2.150327,2.526843,0.031411,0.000017,0.004126
52175,9.372922,-2.148548,2.522880,0.031032,-0.002344,0.006033
52176,9.373968,-2.100474,2.532995,0.032785,-0.004554,0.005981
52177,9.373930,-2.100245,2.533324,0.029078,-0.002284,0.005850
52178,9.369712,-2.080750,2.562031,0.029059,-0.003254,0.004662
52179,9.354680,-2.093551,2.505880,0.025114,-0.004106,0.003107
52180,9.379197,-2.070600,2.515585,0.027656,-0.000624,0.000429
52181,9.394859,-2.032864,2.577086,0.019568,-0.003509,-0.001727
52182,9.347078,-2.029455,2.568010,0.009582,-0.003420,-0.000503
52183,9.375277,-2.049768,2.544253,-0.001241,0.002836,-0.006376
52184,9.374774,-2.073293,2.539572,-0.009265,0.002865,-0.004968
52185,9.398749,-2.074525,2.544178,-0.014963,0.004223,-0.006473
52186,9.413766,-2.061258,2.600726,-0.020616,0.007524,-0.005603
52187,9.386510,-1.993024,2.634745,-0.035824,0.015214,-0.003040
52188,9.392250,-1.965931,2.743805,-0.054483,0.021710,-0.009645
52189,9.478183,-1.560914,2.944968,-0.101911,0.035552,-0.018301
52190,9.569214,-1.267779,2.949835,-0.246259,0.075315,-0.015227
52191,9.465835,-1.064067,3.029133,-0.447412,0.133397,-0.040874
52192,9.475982,-1.087455,3.089350,-0.655392,0.176818,-0.058876
52193,9.618507,-1.369341,3.149759,-0.851843,0.231405,-0.059272
52194,9.734446,-1.960050,3.109292,-0.973276,0.285711,-0.040145
52195,9.662838,-2.298410,2.954872,-0.999094,0.328148,-0.020229
52196,9.580150,-2.631057,2.975625,-0.971738,0.347116,0.012327
52197,9.594734,-3.084014,2.957717,-0.867610,0.348444,0.048639
52198,9.664052,-3.430476,2.822807,-0.708796,0.352750,0.092435
52199,9.573008,-3.805463,2.722861,-0.469566,0.346261,0.135004
52200,9.574142,-4.276738,2.622648,-0.140095,0.329098,0.173286
52201,9.576744,-4.675227,2.658612,0.260040,0.310939,0.212221
52202,9.730220,-5.063343,2.702724,0.763795,0.310446,0.231001
52203,9.876521,-5.215690,2.994219,1.332490,0.336016,0.216803
52204,10.189614,-4.424777,3.666596,1.850735,0.410361,0.170024
52205,10.533406,-2.491842,4.439164,2.032613,0.537902,0.118441
52206,10.789005,-0.056018,4.798057,1.693062,0.751878,0.076001
52207,10.308839,1.491360,4.544881,0.841752,0.998922,0.089063
52208,9.651331,1.761096,4.350308,-0.274922,1.154275,0.141715
52209,9.373126,0.829512,4.422727,-1.319690,1.268775,0.181117
52210,9.408778,-0.907716,4.391961,-2.035845,1.318723,0.278789
52211,9.665968,-2.524646,4.591592,-2.362897,1.351833,0.418606
52212,9.746801,-4.129213,4.499681,-2.316402,1.411988,0.530295
52213,9.382399,-6.293068,3.880813,-1.864924,1.424999,0.650819
52214,9.070415,-8.374432,3.419153,-0.984669,1.359418,0.739021
52215,9.111424,-9.936756,3.234615,0.264220,1.258556,0.817828
52216,9.094384,-10.338434,3.079834,1.652832,1.109463,0.914871
52217,9.137411,-8.904344,3.368875,2.926085,0.930519,1.054536
52218,9.201825,-5.789968,4.321904,3.780036,0.830983,1.156321
52219,9.475604,-1.968946,5.692526,4.009875,0.847372,1.189536
52220,9.899650,1.280258,7.360309,3.550436,1.011761,1.165643
52221,9.971938,3.345260,8.474664,2.532155,1.310813,1.071557
52222,9.448192,3.873783,8.406394,1.140451,1.609877,0.967862
52223,8.565293,2.828586,7.270602,-0.376922,1.869338,0.830512
52224,7.735978,0.674701,5.744275,-1.668293,2.043692,0.669458
52225,7.309379,-1.720106,5.120489,-2.427545,2.202345,0.460637
52226,7.198724,-3.832583,5.419552,-2.666710,2.282387,0.323468
52227,7.394735,-5.134943,5.851165,-2.576117,2.318819,0.304481
52228,7.026941,-7.175224,5.022748,-2.358795,2.307201,0.491064
52229,6.118349,-9.460292,4.460064,-1.829121,2.131756,0.833335
52230,5.389426,-10.329144,4.970194,-0.965214,1.838303,1.114866
52231,5.440706,-10.590102,5.526021,0.165513,1.425391,1.393242
52232,6.419832,-9.372299,6.130860,1.453917,1.045971,1.619743
52233,7.572842,-7.088631,6.197542,2.480350,0.846028,1.810843
52234,7.565149,-5.124809,5.748505,2.972278,0.799566,1.983381
52235,6.778729,-3.345071,5.715135,3.038162,0.756838,2.000068
52236,6.453315,-1.520406,6.720269,2.784419,0.775363,1.844261
52237,6.497763,-0.792803,7.385762,2.185675,0.943155,1.570660
52238,6.436555,-1.020536,7.183314,1.471585,1.159868,1.298653
52239,6.009523,-0.270074,7.418640,0.816973,1.415086,0.909411
52240,5.434592,1.125809,7.852479,0.061474,1.643621,0.502186
52241,5.168151,1.182259,7.945778,-0.854954,1.810052,0.262190
52242,5.212979,-0.285456,7.811862,-1.723619,1.918525,0.173317
52243,5.367267,-2.443146,7.518733,-2.299866,1.970434,0.152279
52244,5.504180,-5.263900,6.569957,-2.529822,1.982829,0.226049
52245,4.927495,-8.541989,5.166142,-2.333964,1.859612,0.468082
52246,4.176942,-10.555796,4.931182,-1.551505,1.581225,0.711383
52247,3.903639,-11.052201,5.358935,-0.414716,1.201018,0.954315
52248,4.268403,-10.108200,5.922692,0.778231,0.816796,1.195693
52249,4.904277,-8.082380,6.560431,1.723301,0.567929,1.375675
52250,5.279462,-5.830699,7.221259,2.312419,0.476214,1.462195
52251,5.393723,-3.755753,7.791611,2.501122,0.507107,1.408765
52252,5.366951,-2.426142,8.371486,2.309868,0.659447,1.248304
52253,5.092347,-1.942117,8.299472,1.780666,0.852112,1.029971
52254,4.702004,-0.892158,8.395364,1.109256,1.062810,0.717635
52255,4.401160,0.477578,8.912064,0.244488,1.313470,0.364822
52256,4.221451,0.838113,9.343054,-0.780037,1.524987,0.114931
52257,4.305300,0.060669,9.591144,-1.758202,1.714739,-0.045421
52258,4.426481,-2.244224,9.043131,-2.497426,1.868058,-0.104037
52259,4.116162,-6.209021,6.989177,-2.913002,1.902742,0.067801
52260,2.879525,-9.266190,5.642135,-2.749433,1.715395,0.375167
52261,2.117429,-10.479535,5.729016,-2.024339,1.343067,0.664557
52262,2.473253,-11.074046,5.922176,-0.940561,0.921581,0.964867
52263,3.025219,-10.989765,5.936346,0.339671,0.540173,1.241246
52264,3.287401,-9.403951,6.349802,1.564378,0.253397,1.447233
52265,3.490605,-6.796836,6.983664,2.448332,0.094063,1.530571
52266,3.579978,-4.271206,7.798972,2.827581,0.096377,1.476749
52267,3.415361,-2.479161,8.547830,2.734628,0.233549,1.305596
52268,2.972855,-1.462537,8.660976,2.218330,0.429444,1.084336
52269,2.364368,-0.223431,8.962877,1.462193,0.639893,0.780815
52270,2.029482,1.382778,9.729329,0.474013,0.837219,0.431338
52271,1.924613,1.909620,10.114342,-0.726718,1.012034,0.191343
52272,1.928190,0.671067,9.718412,-1.920011,1.133149,0.096451
52273,1.920797,-1.582922,8.715060,-2.859778,1.183512,0.102743
52274,1.636832,-4.228430,6.911925,-3.459811,1.143339,0.243135
52275,0.864390,-6.533922,5.613506,-3.645474,0.936329,0.489913
52276,0.117700,-9.619892,4.621188,-3.215482,0.614645,0.756867
52277,-0.136722,-12.762105,5.054257,-1.945130,0.140945,0.970291
52278,0.519059,-14.609777,5.606395,0.003412,-0.344978,1.110529
52279,1.127210,-14.677314,5.414860,2.063114,-0.751305,1.272280
52280,1.353003,-11.991865,5.540585,3.714803,-1.066552,1.422615
52281,1.781430,-7.467130,6.640629,4.638388,-1.291649,1.489889
52282,2.744846,-3.117237,8.730136,4.722624,-1.225790,1.381230
52283,3.291256,-0.048309,10.305094,4.112326,-0.894403,1.121436
52284,3.341325,1.751843,10.888871,3.020422,-0.436042,0.786571
52285,2.835957,2.814650,10.837104,1.625271,0.027813,0.429912
52286,2.254360,3.517068,11.011848,0.123822,0.415850,0.064328
52287,2.262208,2.865894,11.080975,-1.390300,0.748346,-0.232412
52288,2.759908,0.053794,10.366528,-2.636750,1.010451,-0.334914
52289,2.831441,-3.627222,9.166277,-3.360345,1.203598,-0.306863
52290,1.966933,-7.342022,7.523460,-3.491383,1.245399,-0.114259
52291,0.567078,-10.254743,6.348638,-2.955886,1.095226,0.115675
52292,-0.559095,-12.614999,6.054773,-1.756824,0.741617,0.352283
52293,-0.386441,-13.620592,6.609128,-0.034884,0.254595,0.550855
52294,0.703549,-12.565858,7.258032,1.756686,-0.164748,0.740667
52295,1.484774,-9.758552,7.510488,3.132052,-0.402977,0.891790
52296,1.312379,-6.368311,7.983763,3.833647,-0.473703,0.974332
52297,1.019455,-2.941815,9.048626,3.874474,-0.492652,0.935565
52298,1.214146,-0.352770,9.873584,3.303053,-0.360194,0.786176
52299,1.468852,1.207639,10.849034,2.378219,-0.094162,0.547799
52300,1.571675,2.097237,11.584450,1.257453,0.217819,0.270188
52301,1.430774,2.584744,11.866927,0.051649,0.532991,0.000475
52302,1.373877,1.750643,11.446634,-1.127807,0.840359,-0.240226
52303,1.505684,-0.732579,10.477409,-2.032368,1.063755,-0.376973
52304,1.430324,-3.289603,9.693916,-2.476016,1.205282,-0.454305
52305,1.422244,-5.078968,9.262306,-2.552137,1.240653,-0.463164
52306,1.128023,-6.919932,8.217443,-2.450692,1.196144,-0.307353
52307,0.174735,-8.810599,7.218165,-2.100459,1.045495,-0.035396
52308,-0.730576,-10.561194,6.692853,-1.339183,0.757735,0.236309
52309,-0.845017,-11.409150,7.169843,-0.149850,0.351761,0.449219
52310,-0.046181,-10.824045,7.675684,1.207666,-0.011075,0.629243
52311,0.522631,-9.011455,7.660443,2.316741,-0.275943,0.796724
52312,0.474299,-6.644036,7.944620,2.994521,-0.409036,0.914753
52313,0.305616,-4.334247,8.436141,3.216961,-0.481580,0.904977
52314,0.592697,-2.402845,9.311809,3.074637,-0.454692,0.812068
52315,1.115146,-0.426244,10.849428,2.623277,-0.289590,0.630024
52316,1.415470,1.373512,11.838097,1.825676,-0.005827,0.372458
52317,1.316130,2.526695,11.687044,0.654781,0.329292,0.126217
52318,0.937819,3.216209,11.560438,-0.716556,0.641525,-0.110336
52319,1.055263,2.475789,11.042792,-2.122553,0.939137,-0.305478
52320,1.434810,-0.423784,10.130330,-3.175657,1.214105,-0.397923
52321,1.192865,-4.171256,8.718562,-3.634101,1.394893,-0.361954
52322,-0.352860,-8.474357,6.650803,-3.468354,1.394814,-0.084742
52323,-2.746180,-11.747049,6.986731,-2.385851,1.120911,0.201967
52324,-3.342346,-13.326256,8.247084,-0.509572,0.586884,0.383250
52325,-1.442727,-12.237718,8.694093,1.602494,0.035532,0.517489
52326,0.003976,-8.756613,8.153175,3.155204,-0.227775,0.656987
52327,-0.214722,-5.452929,7.917284,3.885152,-0.314982,0.745588
52328,-0.656940,-3.575949,8.101414,3.932227,-0.398570,0.786459
52329,-0.183832,-3.036418,8.380794,3.568547,-0.471970,0.787841
52330,0.322269,-2.482040,9.386587,3.111518,-0.433542,0.705611
52331,0.539636,-1.149864,11.015105,2.665555,-0.324135,0.562705
52332,0.778650,1.115885,12.561390,2.077687,-0.160994,0.345718
52333,1.307009,3.053077,12.820531,1.104414,0.155389,0.073843
52334,1.048835,3.857985,11.425935,-0.238696,0.542968,-0.158120
52335,0.402795,3.586719,9.941394,-1.696358,0.836809,-0.353913
52336,0.384219,1.744823,8.883800,-2.947661,1.046055,-0.505960
52337,0.636923,-1.138796,8.453846,-3.726369,1.196112,-0.581921
52338,0.724856,-3.344887,8.222857,-4.020778,1.240651,-0.557320
52339,0.629510,-5.115209,7.754425,-3.998173,1.221935,-0.466598
52340,0.219719,-6.998877,7.201872,-3.672937,1.211501,-0.360098
52341,-1.019651,-9.627333,5.741376,-2.926365,1.064607,-0.209087
52342,-2.144740,-11.678260,5.005239,-1.626575,0.736540,-0.077651
52343,-2.819332,-12.875491,3.769084,0.006925,0.281429,0.070461
52344,-2.895673,-12.889017,4.328451,1.995471,-0.232207,0.188837
52345,-1.104296,-10.286400,5.228266,3.794111,-0.704870,0.199410
52346,0.840124,-6.119267,5.835759,4.827190,-0.886340,0.191977
52347,1.141355,-2.907256,6.957968,5.033644,-0.760417,0.152810
52348,0.452823,-0.637356,8.594209,4.650993,-0.594137,0.037158
52349,0.187225,1.607273,9.524559,3.706028,-0.413307,-0.155001
52350,0.041798,4.322394,9.124627,2.226473,-0.211452,-0.351108
52351,-0.161303,6.843158,8.689518,0.276867,-0.003499,-0.507380
52352,0.051750,7.615315,8.578037,-1.866008,0.155027,-0.645081
52353,0.573389,5.303806,8.109819,-3.759236,0.318183,-0.660809
52354,0.760289,1.474758,7.735064,-5.038903,0.409159,-0.607590
52355,0.584712,-2.882325,6.910353,-5.576894,0.426614,-0.519301
52356,-0.347590,-8.360369,7.346824,-5.121548,0.458410,-0.404488
52357,-1.709476,-14.117445,8.211226,-3.288344,0.300313,-0.391459
52358,-1.664018,-17.730112,7.084354,-0.373508,-0.132998,-0.364022
52359,-0.722086,-15.255525,6.584842,2.678895,-0.554298,-0.277179
52360,0.390691,-8.084641,5.962514,4.666706,-0.758638,-0.192542
52361,0.586056,-1.316006,6.092239,5.043830,-0.743221,-0.125825
52362,0.247661,3.875022,7.923065,4.156282,-0.572669,-0.082501
52363,-0.327038,7.022580,9.018494,2.168486,-0.234059,-0.127395
52364,-0.902957,7.538505,9.721700,-0.199964,0.067275,-0.134591
52365,-0.373110,6.358411,10.274214,-2.424548,0.311596,-0.144002
52366,0.405072,3.965662,10.579875,-4.171265,0.526846,-0.078820
52367,1.040109,2.306104,9.973329,-5.527579,0.688834,0.056758
52368,1.213375,0.598356,8.436483,-6.638127,0.829438,0.246517
52369,0.879467,-2.102292,6.946751,-7.275258,0.978771,0.414737
52370,0.499798,-5.562808,5.824454,-7.316041,1.059321,0.504814
52371,-0.451952,-11.446602,3.360415,-6.287024,1.137940,0.604137
52372,-3.303814,-18.721306,3.952927,-3.511072,1.018574,0.472836
52373,-4.545897,-22.962623,3.528562,0.404585,0.425819,0.290048
52374,-2.427994,-19.679175,3.183600,4.364268,-0.261316,0.232511
52375,0.096648,-11.405875,3.484454,6.919603,-0.576186,0.229228
52376,0.347755,-3.802497,4.621196,7.577371,-0.538169,0.220218
52377,-0.874800,2.657258,7.121787,6.857221,-0.431560,0.139568
52378,-1.589520,7.642072,10.115412,4.915917,-0.208209,0.012738
52379,-1.440556,9.023639,11.849684,2.207921,0.082857,-0.065545
52380,-0.397845,6.214487,12.126467,-0.452517,0.376071,-0.095458
52381,0.357525,2.155870,11.598535,-2.437659,0.617572,-0.082048
52382,0.239752,-0.149156,10.978305,-3.696744,0.808084,-0.052072
52383,-0.192962,-1.167730,9.887774,-4.556511,0.859134,0.005290
52384,0.320596,-2.357813,8.132977,-5.099036,0.925230,0.031637
52385,-0.021831,-5.588766,5.763080,-5.154595,1.087821,0.097351
52386,-1.875291,-11.248949,3.621463,-4.295060,1.139248,0.190603
52387,-3.120156,-17.031253,3.776563,-2.078009,0.827388,0.218099
52388,-1.689079,-19.456304,3.261906,1.023334,0.265377,0.344644
52389,0.396932,-15.705442,2.978405,3.990889,-0.201982,0.542588
52390,1.018745,-9.206672,2.732641,5.850910,-0.358548,0.710959
52391,0.328514,-2.902433,4.664626,6.484653,-0.322766,0.735699
52392,-0.371811,2.186684,7.299269,5.834027,-0.155468,0.658158
52393,-1.140495,4.945063,9.515273,4.208910,0.120998,0.530927
52394,-1.512082,5.319062,10.820379,2.075892,0.374553,0.385701
52395,-0.707839,4.262897,11.036828,-0.149180,0.643317,0.241033
52396,-0.177410,3.021250,10.780821,-2.111203,0.907826,0.129978
52397,0.545329,2.551437,10.539679,-3.728890,1.134667,0.000646
52398,1.576226,2.326395,9.036737,-5.184611,1.339315,-0.081191
52399,2.137730,0.966847,6.428013,-6.457932,1.587937,-0.068560
52400,0.142809,-4.216485,0.970153,-7.369357,1.830906,0.152619
52401,-5.788603,-12.771803,-1.144763,-6.739612,1.803014,0.415471
52402,-10.862751,-20.636206,1.142256,-4.092411,1.095566,0.357593
52403,-7.491190,-23.395639,3.621628,0.055967,-0.261001,0.423300
52404,-0.609157,-18.035850,3.545978,3.777961,-0.980863,0.585465
52405,0.326038,-10.716415,2.505455,6.020879,-1.051325,0.756573
52406,-0.419249,-4.626011,3.393490,6.869320,-1.106480,0.835319
52407,-0.198009,0.690708,6.019445,6.483582,-0.957858,0.758059
52408,-0.616825,3.795911,8.043598,5.056436,-0.581853,0.611357
52409,-1.885942,5.105335,9.935325,3.079805,-0.160275,0.388992
52410,-2.753449,5.561330,11.342788,0.782775,0.206683,0.079416
52411,-2.137844,5.191941,12.564387,-1.466050,0.497572,-0.270177
52412,-0.252934,4.507090,12.395962,-3.532645,0.827209,-0.612979
52413,1.270478,2.298300,10.017735,-5.340089,1.190954,-0.775211
52414,0.509899,-3.468350,3.250679,-6.689979,1.502507,-0.541425
52415,-5.444829,-10.982738,-0.327166,-6.629154,1.541590,-0.138041
52416,-11.217325,-16.681840,1.555223,-4.854181,0.897550,0.014463
52417,-9.131565,-20.237849,4.292614,-1.657737,-0.324488,0.214005
52418,-2.648592,-19.650916,3.808681,1.922376,-1.196199,0.496930
52419,-1.069315,-14.234634,3.022620,4.808112,-1.541518,0.743876
52420,-1.634741,-7.699086,4.321587,6.500301,-1.761351,0.848711
52421,-0.931322,-1.909321,7.021513,6.835303,-1.728213,0.795018
52422,-0.669908,1.940248,9.086420,5.946126,-1.347377,0.638517
52423,-1.575195,4.165138,10.589790,4.319620,-0.822198,0.379794
52424,-3.146793,6.219598,12.176727,2.218135,-0.346194,-0.047141
52425,-2.975424,7.174757,12.903219,-0.203239,-0.003884,-0.490233
52426,-1.840507,6.031142,12.731867,-2.538336,0.337632,-0.824862
52427,-0.463872,3.020265,11.058680,-4.436842,0.640528,-1.019132
52428,-0.739582,-2.819803,5.756160,-5.798344,0.884065,-0.848915
52429,-3.595507,-9.135821,2.537384,-5.918624,0.852535,-0.545825
52430,-6.720225,-13.977617,1.927353,-4.783836,0.454873,-0.312764
52431,-6.369186,-17.628373,2.622316,-2.383295,-0.438578,-0.093849
52432,-2.552689,-17.982967,3.845393,0.680064,-1.258408,0.201033
52433,-0.249063,-13.569140,4.987610,3.437745,-1.700863,0.488009
52434,-0.746593,-7.608477,6.527841,5.225820,-1.742446,0.582512
52435,-2.017492,-3.397646,7.705076,5.819471,-1.670818,0.557483
52436,-2.148455,-1.009471,8.589994,5.453810,-1.565134,0.482916
52437,-2.160991,0.972006,8.964139,4.521516,-1.254449,0.267411
52438,-2.452415,3.434204,10.555941,3.109153,-0.935274,-0.124307
52439,-1.991191,6.083847,12.574160,1.183858,-0.618339,-0.545190
52440,-0.908101,6.886581,13.400977,-1.080014,-0.271553,-0.806448
52441,-0.423634,4.821688,12.657058,-3.181384,0.084494,-0.900543
52442,-0.308000,0.110579,10.300879,-4.567621,0.354089,-0.963861
52443,-0.662796,-5.568470,6.554650,-5.051490,0.480523,-0.905919
52444,-2.335707,-10.667998,3.536306,-4.585775,0.360248,-0.705459
52445,-4.479298,-13.191419,3.259991,-3.184245,-0.053693,-0.520393
52446,-4.199574,-13.404839,4.757023,-1.336367,-0.681486,-0.354793
52447,-1.162345,-12.094862,6.473836,0.585479,-1.228168,-0.171852
52448,0.784034,-9.547489,7.560181,2.166818,-1.426535,0.016380
52449,0.441863,-6.527732,8.610523,3.244679,-1.401507,0.114802
52450,-0.664204,-4.080317,9.121287,3.689714,-1.339762,0.116817
52451,-1.327326,-2.337210,8.921866,3.462894,-1.286896,0.073096
52452,-1.809426,-0.829311,8.655250,2.788069,-1.084623,-0.114709
52453,-2.139355,1.337344,10.027934,1.787632,-0.904021,-0.460924
52454,-1.455915,3.500247,11.813614,0.368189,-0.692579,-0.813278
52455,-0.310600,3.992164,12.558184,-1.322424,-0.436843,-1.047296
52456,0.525670,1.751614,11.616292,-2.831331,-0.165066,-1.144462
52457,0.527453,-2.706129,8.979146,-3.804596,0.028124,-1.147780
52458,-0.616760,-7.481743,5.914186,-3.928328,0.009919,-1.007399
52459,-2.017501,-10.354191,4.567358,-3.257431,-0.212578,-0.856731
52460,-2.159097,-11.980221,4.786900,-1.954336,-0.693648,-0.683261
52461,-0.393080,-12.112503,5.590405,-0.372465,-1.203672,-0.492606
52462,1.465615,-10.934416,6.488452,1.160588,-1.550885,-0.256972
52463,2.088458,-8.589808,7.233971,2.397328,-1.717821,-0.081645
52464,1.752078,-5.836910,8.078770,3.173430,-1.742505,-0.041590
52465,1.079936,-3.619974,8.808711,3.364266,-1.675579,-0.067428
52466,0.464387,-1.925769,9.218070,3.049378,-1.566720,-0.161249
52467,0.017553,-0.067876,9.744552,2.309689,-1.341665,-0.387411
52468,-0.124441,1.886448,10.515302,1.182633,-1.142049,-0.705521
52469,0.509187,3.002406,11.153997,-0.295601,-0.913860,-1.006971
52470,1.428426,2.292130,11.100143,-1.809846,-0.658810,-1.207752
52471,2.157120,-0.500008,10.067076,-2.949504,-0.461300,-1.315495
52472,2.501420,-4.198261,8.095541,-3.528344,-0.345634,-1.323315
52473,1.693033,-8.314719,5.391333,-3.469347,-0.368908,-1.152157
52474,0.101213,-10.976665,4.166162,-2.678890,-0.629549,-0.934768
52475,-0.335699,-12.016038,4.651359,-1.361625,-1.104042,-0.738783
52476,1.379956,-11.719075,5.896236,0.197124,-1.639918,-0.538632
52477,3.322625,-10.468033,6.560171,1.636531,-1.973862,-0.317955
52478,3.687148,-8.539250,6.909435,2.757358,-2.157578,-0.088479
52479,3.342082,-5.108621,8.839852,3.519384,-2.199889,-0.051673
52480,3.167644,-2.825673,9.376367,3.587942,-2.112682,-0.087916
52481,2.633301,-1.617080,9.208487,3.118441,-1.937943,-0.148725
52482,1.871582,-0.041475,9.495412,2.270803,-1.724998,-0.340575
52483,1.583926,1.986177,10.433460,1.067025,-1.540323,-0.622592
52484,2.458401,3.203808,11.387079,-0.347358,-1.331998,-0.918046
52485,3.668994,2.517768,11.483610,-1.750343,-1.038722,-1.141733
52486,4.207954,-0.565295,10.290894,-2.815732,-0.760995,-1.233426
52487,4.067088,-4.318656,8.566308,-3.219804,-0.599691,-1.278375
52488,3.484629,-7.888405,6.136803,-3.049012,-0.619053,-1.209725
52489,2.737165,-10.126045,5.082657,-2.267335,-0.852592,-1.028664
52490,2.783804,-10.295722,5.999553,-1.155544,-1.188214,-0.899072
52491,3.840700,-9.592000,7.068017,0.008130,-1.514748,-0.736123
52492,5.007622,-8.413438,7.761448,1.011970,-1.720596,-0.563332
52493,5.211383,-7.334074,7.466278,1.710590,-1.823130,-0.372198
52494,4.733536,-6.199406,7.236959,2.115813,-1.918069,-0.209434
52495,4.761268,-4.475068,8.323979,2.310341,-1.963495,-0.203542
52496,5.084457,-2.337676,9.410263,2.163605,-1.857842,-0.308895
52497,5.090497,-0.608053,9.924934,1.609510,-1.631744,-0.438860
52498,4.862584,0.322898,10.046869,0.738121,-1.362833,-0.596523
52499,4.844577,0.697580,10.112950,-0.301913,-1.102008,-0.788282
52500,5.169400,0.514645,9.856918,-1.384100,-0.851069,-0.983478
52501,5.474786,-0.577321,9.265621,-2.334191,-0.631951,-1.104156
52502,5.777389,-2.502771,8.455740,-2.939826,-0.481372,-1.164995
52503,5.989942,-5.286067,6.997735,-3.153723,-0.428599,-1.120223
52504,5.724110,-7.753140,5.649793,-2.912045,-0.507616,-0.965393
52505,4.927008,-9.550552,4.510315,-2.297592,-0.736086,-0.733170
52506,4.480786,-10.282465,4.868575,-1.278802,-1.114273,-0.503772
52507,5.550967,-9.235372,6.772436,0.023443,-1.459569,-0.419719
52508,6.779899,-8.204502,7.420631,1.231582,-1.612872,-0.322929
52509,6.890309,-7.046213,7.515922,2.216636,-1.651672,-0.197596
52510,6.419250,-4.948201,7.974232,2.841341,-1.639120,-0.142883
52511,6.184639,-3.355131,8.127236,2.960332,-1.563002,-0.154425
52512,6.301977,-2.261009,8.169623,2.714324,-1.408818,-0.260492
52513,6.420685,-0.501943,8.438047,2.100703,-1.194822,-0.430560
52514,6.497411,1.735110,8.934579,1.059197,-0.965597,-0.599945
52515,6.918944,3.174129,9.340438,-0.337591,-0.709057,-0.777373
52516,7.495374,2.366064,8.782159,-1.811101,-0.457085,-0.878485
52517,7.672316,-0.319143,7.542465,-2.935551,-0.279464,-0.877965
52518,7.315381,-3.792487,5.958165,-3.446098,-0.211567,-0.831943
52519,6.677058,-6.979799,4.370529,-3.289139,-0.312328,-0.698139
52520,5.974652,-9.122891,3.683134,-2.500979,-0.562884,-0.568745
52521,5.961799,-10.282857,4.276924,-1.075498,-0.878595,-0.503375
52522,6.961117,-9.810726,5.632080,0.638518,-1.151924,-0.546087
52523,7.786279,-9.080754,4.984117,2.146531,-1.298133,-0.493672
52524,7.398330,-7.975918,3.743899,3.329069,-1.436772,-0.328599
52525,7.131116,-5.917389,3.876677,4.053591,-1.588420,-0.171548
52526,7.727644,-2.430768,5.547697,4.227502,-1.658978,-0.146876
52527,8.616757,1.090726,7.321750,3.704734,-1.523755,-0.228117
52528,9.095188,3.309251,8.456511,2.600641,-1.229168,-0.327646
52529,8.697897,4.014739,8.496926,1.087245,-0.885088,-0.415844
52530,7.824076,3.888733,7.841956,-0.508374,-0.616339,-0.576817
52531,7.398817,2.914942,6.663289,-2.021050,-0.433109,-0.775352
52532,7.637770,1.118711,5.894145,-3.222412,-0.339757,-0.893224
52533,8.155489,-1.093850,5.498756,-3.882366,-0.249483,-0.974065
52534,8.901687,-4.015706,4.665910,-3.902370,-0.182126,-1.026307
52535,8.900364,-6.671640,3.242410,-3.414695,-0.190707,-0.983611
52536,7.807021,-8.745853,1.394277,-2.559750,-0.369937,-0.781537
52537,6.825106,-9.192517,1.665090,-1.330437,-0.695004,-0.612097
52538,6.809034,-9.006465,2.682839,0.050915,-1.045016,-0.472741
52539,8.015636,-7.786000,5.097072,1.569880,-1.299596,-0.425356
52540,9.001316,-6.287719,5.611144,2.784743,-1.373317,-0.335024
52541,8.978603,-4.067454,5.648949,3.544328,-1.364179,-0.200685
52542,8.850236,-1.216761,6.457980,3.664388,-1.271433,-0.164619
52543,8.648277,0.283071,6.253168,3.079400,-1.095909,-0.177766
52544,8.273969,1.602442,6.241029,2.119583,-0.907728,-0.308031
52545,8.302748,3.637328,6.747224,0.808893,-0.718644,-0.556144
52546,8.715765,4.409172,6.280700,-0.794015,-0.521550,-0.741975
52547,8.961479,3.147239,5.669371,-2.255034,-0.361923,-0.822507
52548,9.181044,0.930854,5.523348,-3.229835,-0.249081,-0.864830
52549,9.318308,-1.114122,5.379506,-3.634011,-0.178014,-0.905478
52550,9.063116,-3.344397,3.748882,-3.713627,-0.154660,-0.845449
52551,8.317408,-5.257282,2.255870,-3.363328,-0.295448,-0.692011
52552,7.648699,-7.011936,1.877516,-2.389905,-0.457477,-0.606965
52553,7.554058,-8.270849,3.549255,-0.719462,-0.689433,-0.608054
52554,8.831042,-8.279457,5.683240,1.274619,-0.933716,-0.624590
52555,9.771873,-7.362893,5.499084,2.988286,-0.997047,-0.541927
52556,9.588611,-5.156758,4.663900,4.159019,-1.004918,-0.400142
52557,9.359957,-2.190240,4.573057,4.621450,-0.982147,-0.299247
52558,9.387195,1.054661,5.110333,4.330804,-0.887254,-0.341449
52559,9.469580,4.275583,5.953605,3.302776,-0.753420,-0.475062
52560,9.687170,7.119041,6.394734,1.647504,-0.583444,-0.638942
52561,9.750993,8.043686,5.682793,-0.438331,-0.377740,-0.761645
52562,9.378308,6.170484,4.458394,-2.441090,-0.238212,-0.805708
52563,9.179030,2.662622,3.821851,-3.844728,-0.163885,-0.853168
52564,9.095211,-1.819569,2.715323,-4.381124,-0.104093,-0.870641
52565,8.936871,-6.017537,1.960137,-3.996538,-0.132903,-0.840229
52566,8.956694,-8.598112,1.962258,-2.812330,-0.251796,-0.818819
52567,8.665633,-9.649944,1.889030,-1.148638,-0.410185,-0.744708
52568,8.489319,-8.767273,2.469859,0.672392,-0.635507,-0.683834
52569,8.979423,-6.332635,3.108366,2.113556,-0.790838,-0.631764
52570,9.501736,-3.766061,2.963558,2.919520,-0.829626,-0.540558
52571,9.633538,-1.553519,2.854407,3.075322,-0.786553,-0.426993
52572,9.409833,0.277483,3.004581,2.685013,-0.743240,-0.317956
52573,9.355972,1.168903,3.107283,1.955221,-0.693027,-0.248913
52574,9.652097,1.536572,3.651339,1.138233,-0.648979,-0.262895
52575,10.179215,1.431921,3.924688,0.309109,-0.520005,-0.294877
52576,10.122371,0.938110,3.177147,-0.436486,-0.406085,-0.253267
52577,9.660377,1.000330,2.550941,-1.081047,-0.360630,-0.224542
52578,9.099500,0.890150,2.078328,-1.678405,-0.353930,-0.231316
52579,8.757551,-0.129099,1.727362,-2.208031,-0.411607,-0.215827
52580,8.894897,-1.195468,1.685146,-2.543793,-0.529873,-0.202664
52581,9.074402,-2.212499,1.734729,-2.637860,-0.633228,-0.154603
52582,9.459019,-2.710057,2.029167,-2.452415,-0.731565,-0.162715
52583,9.762343,-3.597099,1.884231,-1.964167,-0.796992,-0.198280
52584,9.852509,-4.379574,1.656072,-1.242570,-0.852911,-0.238622
52585,9.691873,-4.561921,1.659254,-0.374775,-0.903718,-0.255996
52586,9.576490,-3.868076,1.696817,0.448125,-0.950362,-0.267084
52587,9.595469,-2.651268,2.062667,1.095539,-0.957462,-0.286093
52588,9.766316,-1.183240,3.074828,1.480834,-0.896628,-0.336288
52589,9.698879,0.027979,3.365790,1.482672,-0.760051,-0.334896
52590,9.706666,1.296584,3.896514,1.235559,-0.643920,-0.355692
52591,9.837460,2.704719,3.354432,0.548587,-0.504546,-0.363456
52592,9.788452,3.671228,2.852591,-0.430131,-0.404734,-0.326005
52593,9.953829,3.884237,3.126654,-1.527247,-0.315811,-0.344022
52594,10.296105,2.765859,3.041992,-2.582304,-0.222932,-0.355978
52595,10.543577,1.136108,2.735334,-3.399911,-0.125788,-0.302847
52596,10.385689,-0.341171,2.355934,-3.850524,-0.067388,-0.244644
52597,10.130558,-1.812318,1.535371,-3.935089,-0.024724,-0.178332
52598,9.726960,-3.476243,1.345609,-3.557394,-0.010767,-0.139481
52599,9.439839,-5.161482,1.875036,-2.755189,-0.030766,-0.119901
52600,9.442860,-5.162150,3.003277,-1.596592,-0.142907,-0.108473
52601,10.249776,-2.998876,3.882007,-0.731097,-0.216395,-0.143133
52602,10.703442,-1.516301,4.380726,-0.357214,-0.144351,-0.129817
52603,10.695185,-1.434794,4.234956,-0.267468,-0.036284,-0.085979
52604,10.305451,-2.086229,3.521981,-0.149629,0.025939,-0.023388
52605,9.957316,-2.409279,2.654344,0.075296,0.006568,0.037272
52606,9.831845,-2.134557,2.132913,0.281962,-0.039262,0.068146
52607,9.784325,-1.897760,1.787960,0.409857,-0.050227,0.085582
52608,9.727396,-1.901979,1.478417,0.486561,-0.066411,0.098022
52609,9.442486,-1.327102,1.576862,0.438622,-0.027750,0.067192
52610,9.474505,-1.366107,1.546623,0.300471,-0.042109,0.056853
52611,9.609059,-1.660432,1.461729,0.206481,-0.025468,0.069486
52612,9.564686,-1.406638,1.624963,0.128824,-0.015614,0.091012
52613,9.495723,-0.761218,1.909891,-0.024868,-0.014364,0.152632
52614,9.631985,-0.056251,2.107395,-0.273296,-0.022600,0.210559
52615,9.780896,0.416657,2.177942,-0.581582,0.006800,0.260666
52616,9.883265,0.362142,2.166711,-0.914769,0.040676,0.312980
52617,9.765814,0.098634,2.053827,-1.182563,0.082963,0.344129
52618,9.785873,-0.584357,1.833735,-1.401145,0.097447,0.374507
52619,9.682024,-1.007847,1.635760,-1.454792,0.116155,0.386421
52620,9.630568,-1.608419,1.452825,-1.430248,0.118457,0.396703
52621,9.579360,-1.908165,1.303133,-1.272948,0.118043,0.390343
52622,9.512380,-2.038591,1.203920,-1.052915,0.103656,0.365385
52623,9.572752,-1.948921,1.197641,-0.842353,0.071170,0.325946
52624,9.618476,-2.170823,1.208043,-0.604877,0.064558,0.285262
52625,9.627478,-1.683217,1.502515,-0.394922,0.046758,0.214457
52626,9.778595,-1.926085,1.492610,-0.240996,0.033944,0.180204
52627,9.697549,-1.718726,1.646448,-0.064558,0.043771,0.126392
52628,9.727075,-1.467968,1.726395,0.031654,0.027791,0.082033
52629,9.701841,-1.316572,1.865264,0.080450,0.036334,0.059593
52630,9.668420,-1.066331,1.881575,0.092525,0.030247,0.046178
52631,9.781343,-1.028979,1.943053,0.060103,0.037811,0.036395
52632,9.741801,-1.061571,1.878300,0.012126,0.045815,0.034347
52633,9.726501,-1.148879,1.823549,-0.034385,0.056087,0.038293
52634,9.688636,-1.260561,1.756949,-0.075293,0.060417,0.039375
52635,9.705595,-1.409351,1.658292,-0.108892,0.069587,0.045145
52636,9.700741,-1.533092,1.698104,-0.133116,0.077984,0.050360
52637,9.657194,-1.633015,1.662546,-0.146562,0.079717,0.057367
52638,9.630828,-1.641487,1.663916,-0.144919,0.075099,0.058850
52639,9.671775,-1.580119,1.701577,-0.161075,0.075745,0.053348
52640,9.721293,-1.632937,1.696692,-0.184855,0.076820,0.050640
52641,9.727686,-1.700595,1.652739,-0.201072,0.076231,0.045991
52642,9.670608,-1.726378,1.694297,-0.207641,0.079508,0.039484
52643,9.620451,-1.734162,1.690447,-0.212809,0.073896,0.033635
52644,9.651358,-1.799889,1.648674,-0.223631,0.066991,0.028198
52645,9.623792,-1.892219,1.666207,-0.195367,0.067131,0.024915
52646,9.551631,-1.921225,1.648569,-0.155007,0.058890,0.026516
52647,9.574285,-1.925775,1.655193,-0.120034,0.053994,0.027235
52648,9.547254,-1.853303,1.658371,-0.083269,0.049098,0.028105
52649,9.495916,-1.889469,1.667173,-0.048778,0.040382,0.031381
52650,9.547992,-1.805809,1.793227,-0.015885,0.031194,0.031140
52651,9.589980,-1.740299,1.830819,0.012042,0.036000,0.032080
52652,9.590461,-1.765880,1.825448,0.017225,0.031368,0.033814
52653,9.566756,-1.791692,1.816580,0.032369,0.041217,0.035804
52654,9.567334,-1.762828,1.807305,0.043001,0.034484,0.037578
52655,9.592018,-1.733659,1.802126,0.050794,0.041307,0.037301
52656,9.604503,-1.654530,1.868336,0.048227,0.035831,0.042663
52657,9.658879,-1.585024,1.830860,0.024736,0.039528,0.038156
52658,9.624130,-1.638278,1.889684,-0.008071,0.047903,0.037080
52659,9.679029,-1.755014,1.857957,-0.018773,0.046542,0.031541
52660,9.649850,-1.767405,1.880755,-0.021886,0.051594,0.027837
52661,9.703849,-1.752465,1.848608,-0.031255,0.054147,0.030859
52662,9.686358,-1.869756,1.805252,-0.032999,0.056271,0.031118
52663,9.641786,-1.887614,1.771387,-0.023655,0.067397,0.037313
52664,9.615760,-1.892114,1.773291,-0.013489,0.063684,0.046267
52665,9.510904,-1.806886,1.798270,-0.019431,0.066710,0.052960
52666,9.518944,-1.894457,1.746226,-0.027594,0.062084,0.059110
52667,9.533808,-1.864334,1.795507,-0.030182,0.056611,0.064462
52668,9.564110,-1.930354,1.755857,-0.028532,0.063049,0.071340
52669,9.541381,-1.929048,1.734512,-0.027589,0.056316,0.077852
52670,9.543585,-2.005133,1.712766,-0.025921,0.055916,0.080122
52671,9.485146,-2.031326,1.754082,-0.007859,0.054259,0.084659
52672,9.508838,-2.008177,1.749472,-0.001618,0.047118,0.093754
52673,9.594522,-2.058664,1.672541,-0.000742,0.041243,0.101527
52674,9.650555,-2.096649,1.622250,-0.011177,0.039680,0.114656
52675,9.698301,-2.154427,1.616734,-0.025162,0.047094,0.132496
52676,9.664039,-2.208489,1.652694,-0.019704,0.052663,0.138445
52677,9.623692,-2.171895,1.725140,0.013686,0.059826,0.143843
52678,9.575134,-2.021788,1.709031,0.050331,0.055457,0.146238
52679,9.578995,-1.839496,1.821444,0.073919,0.046861,0.146687
52680,9.562072,-1.701915,1.911324,0.077695,0.043004,0.144083
52681,9.549591,-1.631885,1.974050,0.059848,0.039204,0.134050
52682,9.489151,-1.637799,2.023421,0.034518,0.037180,0.125884
52683,9.465011,-1.693643,2.005149,0.011450,0.031239,0.109458
52684,9.450265,-1.830241,1.928537,0.012324,0.024272,0.093889
52685,9.406821,-1.873521,1.882634,0.034457,0.023007,0.072499
52686,9.432773,-1.770610,1.879765,0.060482,0.009909,0.061361
52687,9.527720,-1.776028,1.899239,0.065818,0.013076,0.044803
52688,9.539839,-1.852075,1.821938,0.068337,0.013393,0.037376
52689,9.538965,-1.854014,1.824541,0.079907,0.012367,0.031621
52690,9.525241,-1.781353,1.906673,0.082655,0.008349,0.017893
52691,9.594520,-1.737208,1.939110,0.062452,0.007659,0.014824
52692,9.639226,-1.769590,1.963071,0.031789,0.008247,0.004430
52693,9.625639,-1.797000,1.898257,0.010703,0.019005,-0.000997
52694,9.579662,-1.841227,1.874160,-0.005270,0.020331,-0.008817
52695,9.548275,-1.880320,1.907442,-0.016511,0.015300,-0.011881
52696,9.557124,-1.961925,1.851519,-0.020080,0.017461,-0.011805
52697,9.487365,-2.005451,1.822343,-0.010979,0.015255,-0.011384
52698,9.516770,-2.018898,1.796759,0.001692,0.010889,-0.011039
52699,9.487405,-2.003211,1.824600,0.014682,0.009048,-0.012398
52700,9.510932,-2.079570,1.825913,0.018816,-0.003224,-0.005491
52701,9.514599,-2.147196,1.800334,0.033539,0.001385,0.000021
52702,9.461221,-2.131666,1.823172,0.036771,-0.007161,-0.001274
52703,9.511325,-2.076958,1.826840,0.044539,-0.010296,-0.007758
52704,9.482298,-2.060843,1.853377,0.040950,-0.012001,-0.010606
52705,9.482724,-2.059129,1.853100,0.026478,-0.008492,-0.012379
52706,9.484352,-2.080364,1.844029,0.015256,-0.009666,-0.012519
52707,9.461893,-2.101580,1.830572,0.011386,-0.006164,-0.007816
52708,9.435150,-2.131877,1.839613,0.002120,-0.005224,-0.007385
52709,9.449827,-2.126350,1.896797,0.003280,-0.009415,-0.002547
52710,9.457185,-2.085943,1.859852,0.003189,-0.007678,-0.000030
52711,9.472875,-2.103992,1.908539,-0.000729,-0.003308,0.005931
52712,9.471049,-2.159106,1.913036,-0.003370,-0.009600,0.010035
52713,9.513669,-2.146701,1.951920,0.004167,-0.008396,0.009842
52714,9.551953,-2.067466,1.883322,0.013503,-0.006339,0.011072
52715,9.538165,-2.071391,1.958772,0.013641,-0.008944,0.007297
52716,9.536301,-2.126389,1.963532,0.018835,-0.006775,0.013679
52717,9.585389,-2.150730,1.963464,0.024735,-0.005165,0.011208
