// Start Time: Unknown
// Update Rate: 100.0Hz
// Filter Profile: human (46.1)
// Firmware Version: 4.3.5
PacketCounter,SampleTimeFine,Acc_X,Acc_Y,Acc_Z,Gyr_X,Gyr_Y,Gyr_Z,Roll,Pitch,Yaw
17768,,9.734424,-0.231518,1.237201,0.014878,0.008396,-0.031939,-11.062899,-82.636301,-28.210506
17769,,9.764012,-0.245701,1.206108,0.002331,0.005129,-0.023085,-11.169352,-82.603770,-27.925605
17770,,9.797818,-0.249093,1.202071,0.010418,0.003078,-0.016843,-11.087814,-82.603902,-28.001808
17771,,9.792076,-0.231601,1.273768,0.011752,0.003608,-0.020186,-10.991528,-82.604274,-28.091476
17772,,9.812545,-0.184490,1.240976,0.017064,0.005715,-0.013775,-10.917268,-82.602559,-28.156499
17773,,9.790240,-0.191405,1.216529,0.013838,0.005838,-0.011450,-10.854125,-82.600521,-28.212165
17774,,9.812442,-0.181727,1.242200,0.011947,0.006490,-0.012466,-10.787893,-82.598209,-28.272052
17775,,9.777674,-0.156707,1.218191,0.007351,0.007821,-0.008971,-10.735858,-82.594920,-28.320234
17776,,9.790956,-0.206390,1.247605,0.000742,0.003447,-0.009870,-10.689856,-82.594031,-28.366195
17777,,9.797561,-0.239448,1.206118,0.007835,0.010117,-0.008959,-10.633136,-82.589611,-28.418778
17778,,9.736521,-0.244369,1.286802,0.009946,0.005699,-0.007456,-10.590536,-82.587188,-28.455990
17779,,9.725747,-0.265536,1.233275,0.017003,0.014109,-0.008719,-10.527137,-82.580480,-28.510023
17780,,9.743840,-0.294835,1.276134,0.022157,0.011602,-0.007859,-10.471159,-82.574764,-28.553673
17781,,9.720601,-0.283919,1.223067,0.026460,0.010862,-0.003645,-10.430862,-82.569163,-28.579009
17782,,9.753425,-0.270279,1.190538,0.030244,0.009564,-0.001617,-10.398957,-82.563941,-28.593709
17783,,9.779559,-0.222842,1.199964,0.029612,0.007566,0.002225,-10.389895,-82.559974,-28.585812
17784,,9.789218,-0.182157,1.226134,0.022602,0.008987,0.002518,-10.380702,-82.554649,-28.582023
17785,,9.750418,-0.196958,1.218710,0.022786,0.006957,0.000835,-10.367895,-82.551792,-28.581808
17786,,9.789050,-0.182173,1.227470,0.018441,0.002784,0.006996,-10.385288,-82.549501,-28.553611
17787,,9.811229,-0.173977,1.252844,0.011059,0.003347,0.001251,-10.379918,-82.549180,-28.552608
17788,,9.797857,-0.123559,1.224230,0.005272,0.003855,0.004234,-10.392094,-82.546570,-28.537282
17789,,9.759098,-0.138832,1.216417,0.000821,0.004889,0.003874,-10.393566,-82.545609,-28.535137
17790,,9.788827,-0.183198,1.229097,-0.004149,0.005362,0.001330,-10.397439,-82.542449,-28.533629
17791,,9.762514,-0.230577,1.221121,-0.004817,0.005099,0.003001,-10.391063,-82.542120,-28.542531
17792,,9.779811,-0.242656,1.233820,-0.004451,0.001034,-0.000360,-10.391244,-82.541575,-28.544920
17793,,9.825205,-0.262092,1.200137,-0.003411,0.002155,0.004007,-10.391632,-82.543177,-28.546315
17794,,9.796240,-0.236545,1.217370,-0.002594,0.002121,-0.001519,-10.384884,-82.542138,-28.554624
17795,,9.779719,-0.242712,1.234539,-0.002663,0.005593,-0.005869,-10.346419,-82.543014,-28.595147
17796,,9.818352,-0.227209,1.243436,0.000381,0.007504,-0.006515,-10.312225,-82.539450,-28.629431
17797,,9.813401,-0.247026,1.231460,-0.002144,0.006153,-0.003685,-10.278393,-82.540654,-28.664884
17798,,9.818216,-0.226194,1.244689,-0.001995,0.005857,-0.007541,-10.242442,-82.538115,-28.702327
17799,,9.783485,-0.201573,1.220475,-0.003217,0.006770,-0.010229,-10.188121,-82.540022,-28.758622
17800,,9.804789,-0.173764,1.216903,-0.005593,0.005123,-0.011255,-10.138814,-82.538271,-28.811602
17801,,9.805583,-0.191458,1.246665,-0.013421,0.006574,-0.005436,-10.112059,-82.540335,-28.845617
17802,,9.760043,-0.171811,1.281296,-0.012971,0.010608,-0.007602,-10.078569,-82.535122,-28.886881
17803,,9.754223,-0.173036,1.240365,-0.024063,0.008998,-0.011037,-10.023169,-82.535315,-28.956784
17804,,9.766620,-0.204500,1.240855,-0.027107,0.007088,-0.010395,-9.988549,-82.532349,-29.007371
17805,,9.786635,-0.288495,1.228535,-0.026138,0.011683,-0.010378,-9.928123,-82.531444,-29.083389
17806,,9.798162,-0.301685,1.200111,-0.024916,0.010771,-0.007692,-9.901210,-82.526113,-29.124953
17807,,9.802934,-0.280780,1.213570,-0.018907,0.006499,-0.010179,-9.851867,-82.529048,-29.185382
17808,,9.739223,-0.230548,1.206410,-0.015160,0.006939,-0.010319,-9.811069,-82.526116,-29.235323
17809,,9.755652,-0.223405,1.190267,-0.013420,0.006582,-0.005445,-9.787362,-82.530142,-29.265727
17810,,9.744784,-0.227469,1.249507,-0.012599,0.006556,-0.010974,-9.742507,-82.527507,-29.318239
17811,,9.757208,-0.258576,1.250018,-0.015228,0.010420,-0.014672,-9.675549,-82.528209,-29.396152
17812,,9.763970,-0.291322,1.208644,-0.012447,0.006267,-0.014834,-9.614119,-82.526089,-29.465337
17813,,9.821963,-0.341008,1.175045,-0.005285,0.004559,-0.018978,-9.539187,-82.531769,-29.544024
17814,,9.805476,-0.345726,1.192290,0.007847,0.005229,-0.018371,-9.451525,-82.530562,-29.627927
17815,,9.775633,-0.299517,1.180590,0.019461,0.002490,-0.022150,-9.376940,-82.537202,-29.693039
17816,,9.742703,-0.310223,1.214284,0.027177,-0.000397,-0.021935,-9.266671,-82.539483,-29.788566
17817,,9.730273,-0.275412,1.214357,0.032003,-0.005486,-0.024939,-9.192114,-82.550905,-29.846009
17818,,9.696560,-0.267573,1.218259,0.031182,-0.005458,-0.019413,-9.093942,-82.555753,-29.927039
17819,,9.708414,-0.278772,1.187995,0.029373,-0.013195,-0.025495,-9.022855,-82.572298,-29.982530
17820,,9.763778,-0.254110,1.178259,0.036538,-0.014892,-0.029649,-8.883188,-82.583369,-30.102302
17821,,9.786207,-0.242504,1.201809,0.030973,-0.018161,-0.026180,-8.808136,-82.604422,-30.160293
17822,,9.810737,-0.285657,1.170467,0.019545,-0.017461,-0.024081,-8.703220,-82.616445,-30.254790
17823,,9.781096,-0.369237,1.176676,0.015873,-0.021380,-0.019588,-8.689095,-82.636494,-30.261845
17824,,9.850036,-0.396335,1.194926,0.020918,-0.025320,-0.012686,-8.638169,-82.651945,-30.301132
17825,,9.856151,-0.522807,1.254967,0.039982,-0.020493,-0.009536,-8.679633,-82.670393,-30.236790
17826,,9.895151,-0.636380,1.281935,0.062869,-0.018687,-0.002183,-8.646625,-82.681136,-30.233814
17827,,9.943705,-0.709960,1.334274,0.090328,-0.023100,0.012047,-8.775096,-82.700705,-30.050035
17828,,9.929317,-0.753324,1.408227,0.115596,-0.019606,0.020379,-8.812516,-82.710022,-29.945525
17829,,9.987186,-0.787196,1.487430,0.141671,0.000370,0.029372,-9.034636,-82.709765,-29.639572
17830,,10.024335,-0.736365,1.581756,0.168348,0.024106,0.032275,-9.064116,-82.693220,-29.512539
17831,,10.118908,-0.717812,1.758115,0.198003,0.053261,0.030083,-9.262519,-82.656807,-29.198823
17832,,10.194384,-0.797465,1.917719,0.237956,0.090788,0.024123,-9.167730,-82.603244,-29.156835
17833,,10.299836,-1.085816,2.033006,0.310006,0.122782,0.028676,-9.254544,-82.518708,-28.901562
17834,,10.336583,-1.661559,1.982683,0.427120,0.165426,0.076092,-9.220481,-82.418150,-28.689039
17835,,10.226112,-2.132010,1.912754,0.566593,0.203619,0.160358,-9.735719,-82.265229,-27.845682
17836,,10.041066,-2.360209,1.801921,0.701462,0.224352,0.249420,-10.197895,-82.113897,-26.973460
17837,,9.914289,-2.425662,1.676838,0.814805,0.244891,0.346640,-11.363360,-81.906563,-25.343064
17838,,9.904846,-2.384387,1.502932,0.900257,0.272142,0.459835,-12.414471,-81.699673,-23.760008
17839,,9.951347,-2.302816,1.620955,0.919304,0.333704,0.582205,-14.272258,-81.397597,-21.359787
17840,,10.105721,-2.242664,1.817915,0.878053,0.418451,0.704307,-15.889991,-81.061140,-19.213851
17841,,10.395175,-2.340803,2.123845,0.829372,0.531650,0.841089,-18.210036,-80.582135,-16.396524
17842,,10.545515,-2.587296,2.488863,0.780382,0.634461,0.977527,-20.162530,-80.054866,-13.962148
17843,,10.576656,-2.906428,2.602183,0.776585,0.734022,1.120603,-22.659979,-79.364505,-11.010899
17844,,10.439647,-3.202643,2.684227,0.810545,0.820234,1.250281,-24.602619,-78.647090,-8.558854
17845,,10.470307,-3.406331,2.704341,0.892658,0.885843,1.378891,-26.825293,-77.780793,-5.802680
17846,,10.675413,-3.473363,2.785967,0.999513,0.949687,1.497461,-28.508832,-76.901159,-3.490172
17847,,10.920267,-3.462039,2.951202,1.103011,1.031723,1.597961,-30.311801,-75.865161,-1.040250
17848,,11.145816,-3.391790,3.165486,1.194470,1.129483,1.686040,-31.522080,-74.814721,0.918261
17849,,11.171369,-3.205143,3.256162,1.273322,1.227865,1.766431,-32.771498,-73.614500,2.887194
17850,,11.265491,-2.992673,3.473269,1.302936,1.313414,1.842489,-33.566783,-72.408811,4.499486
17851,,11.322780,-2.958929,3.603976,1.305731,1.407732,1.914286,-34.400191,-71.096460,6.076964
17852,,11.279159,-2.954368,3.738120,1.288356,1.503827,1.977047,-34.901319,-69.746149,7.392542
17853,,11.291170,-2.958285,3.835891,1.255459,1.594922,2.025357,-35.452132,-68.289035,8.663128
17854,,11.271568,-2.753302,4.049575,1.190672,1.687089,2.065464,-35.734095,-66.817424,9.706625
17855,,11.280709,-2.492319,4.293809,1.065916,1.788961,2.092771,-36.113092,-65.171503,10.744147
17856,,11.208007,-2.430084,4.662631,0.875216,1.892653,2.120390,-36.316521,-63.582166,11.526238
17857,,10.993416,-2.643464,4.797894,0.699787,1.990252,2.159477,-36.641238,-61.814955,12.316419
17858,,10.735854,-2.911883,4.757133,0.566926,2.070600,2.182758,-36.840858,-60.119504,12.916567
17859,,10.442060,-2.944034,4.731683,0.425956,2.129926,2.200366,-37.130866,-58.282593,13.515110
17860,,10.185768,-2.826586,4.847524,0.273303,2.176845,2.213618,-37.370283,-56.525458,13.985500
17861,,10.029737,-2.843734,5.076312,0.107710,2.211614,2.223985,-37.708211,-54.654720,14.449844
17862,,9.891195,-3.041275,5.206990,-0.075212,2.246399,2.235991,-38.050787,-52.855579,14.821536
17863,,9.747820,-3.168470,5.294877,-0.269645,2.289484,2.246812,-38.489170,-50.953973,15.167084
17864,,9.373816,-3.382167,5.296320,-0.472645,2.332942,2.247238,-38.959213,-49.109070,15.427411
17865,,9.046221,-3.906032,5.294425,-0.593606,2.352124,2.256442,-39.483106,-47.188740,15.663749
17866,,8.665555,-4.589551,5.377615,-0.649319,2.362744,2.273677,-39.996155,-45.318346,15.859334
17867,,8.423886,-4.940623,5.434066,-0.643142,2.355243,2.324520,-40.518612,-43.381556,16.069886
17868,,8.266131,-5.391131,5.397413,-0.626297,2.365974,2.373688,-41.008774,-41.470221,16.264949
17869,,7.972147,-6.021782,5.445857,-0.525676,2.371104,2.419607,-41.450314,-39.499117,16.467751
17870,,7.688996,-6.398541,5.544790,-0.356102,2.332069,2.477915,-41.791749,-37.560691,16.688792
17871,,7.687776,-6.388279,5.712414,-0.132720,2.273334,2.525253,-42.042371,-35.597781,16.958328
17872,,7.750888,-6.276998,5.759880,0.073394,2.214689,2.547410,-42.159810,-33.681173,17.239465
17873,,7.498467,-5.895890,5.872333,0.240674,2.179247,2.530687,-42.199115,-31.766280,17.533530
17874,,7.204892,-5.339372,5.939484,0.349075,2.130836,2.491064,-42.140467,-29.906678,17.809941
17875,,6.919074,-4.887016,5.904185,0.389887,2.088146,2.420603,-42.066784,-28.087073,18.080405
17876,,6.707630,-4.599826,5.981190,0.386887,2.044807,2.357160,-41.957055,-26.316104,18.326019
17877,,6.432007,-4.384245,6.000940,0.353614,2.012261,2.277922,-41.868501,-24.599747,18.555926
17878,,5.914268,-4.391518,5.861235,0.318589,1.974348,2.203918,-41.767473,-22.918161,18.759072
17879,,5.382477,-4.422741,5.692056,0.327862,1.917883,2.133884,-41.665463,-21.312411,18.958579
17880,,4.912505,-4.416307,5.531221,0.378989,1.839500,2.068877,-41.517620,-19.740723,19.157186
17881,,4.589722,-4.303440,5.402337,0.453810,1.760728,1.983820,-41.329842,-18.271356,19.354458
17882,,4.370363,-4.241519,5.378864,0.542481,1.688373,1.880034,-41.073192,-16.837399,19.535197
17883,,4.064533,-4.208319,5.277388,0.627773,1.618930,1.775188,-40.766217,-15.518680,19.703324
17884,,3.727653,-4.181564,5.227116,0.726239,1.551062,1.664174,-40.388319,-14.226899,19.853529
17885,,3.408571,-4.282320,5.144308,0.837870,1.487281,1.559946,-39.944963,-13.055091,19.990438
17886,,3.025394,-4.341222,5.130887,0.959972,1.403405,1.479829,-39.425127,-11.898291,20.131787
17887,,2.691449,-4.266414,5.047547,1.042815,1.316780,1.390304,-38.860462,-10.871052,20.275525
17888,,2.365676,-4.078558,4.981253,1.061785,1.239716,1.286535,-38.275974,-9.859546,20.410131
17889,,2.136156,-3.781787,5.167188,1.032175,1.165644,1.192551,-37.710512,-8.975766,20.538353
17890,,1.993496,-3.703585,5.484651,0.966056,1.108710,1.101567,-37.173726,-8.091095,20.653379
17891,,1.876312,-3.832988,5.855038,0.886963,1.061897,1.024536,-36.682734,-7.316169,20.756659
17892,,1.739512,-4.176333,5.971815,0.788473,1.018498,0.955353,-36.241822,-6.524938,20.849540
17893,,1.428216,-4.547252,5.864582,0.699597,0.965205,0.892165,-35.852057,-5.841266,20.936203
17894,,1.035026,-4.731494,5.725915,0.641975,0.881226,0.850162,-35.493515,-5.150431,21.036664
17895,,0.784109,-4.649143,5.804418,0.581860,0.781878,0.821852,-35.174160,-4.574996,21.160475
17896,,0.698828,-4.591856,6.039742,0.502498,0.704094,0.791291,-34.896267,-3.987791,21.299183
17897,,0.611355,-4.609550,6.263467,0.407321,0.632596,0.766932,-34.678063,-3.498469,21.451890
17898,,0.542467,-4.664322,6.575309,0.302248,0.568933,0.747229,-34.513961,-2.990434,21.618161
17899,,0.298845,-4.848947,6.370375,0.179497,0.501072,0.736756,-34.425885,-2.570613,21.802102
17900,,0.231635,-4.830060,6.446752,0.114544,0.409633,0.725778,-34.368534,-2.145424,22.011464
17901,,0.294922,-4.595043,6.908119,0.041528,0.389578,0.652834,-34.358332,-1.801973,22.192500
17902,,0.221991,-4.941700,7.036509,-0.056679,0.356722,0.602686,-34.395234,-1.441712,22.360810
17903,,0.022363,-4.961542,7.240579,-0.040247,0.307023,0.558446,-34.429114,-1.164527,22.523480
17904,,-0.079542,-4.683289,7.416607,-0.022686,0.259049,0.508849,-34.444545,-0.880660,22.678673
17905,,-0.147023,-4.706260,7.417348,-0.031284,0.214846,0.471356,-34.470702,-0.671386,22.829750
17906,,-0.192730,-4.928190,7.312569,-0.016211,0.148745,0.457474,-34.481292,-0.456184,22.996239
17907,,-0.213427,-5.109188,7.309058,0.027803,0.097521,0.442760,-34.471738,-0.307846,23.171760
17908,,-0.199223,-5.175507,7.414011,0.089768,0.053782,0.413638,-34.420676,-0.151816,23.348416
17909,,-0.073574,-5.173764,7.570054,0.159643,0.026859,0.377566,-34.334864,-0.054950,23.516283
17910,,-0.016102,-5.184938,7.763576,0.209659,0.007802,0.352345,-34.214396,0.058994,23.679219
17911,,0.101913,-4.923140,7.984601,0.231358,0.004416,0.315033,-34.086609,0.126755,23.825175
17912,,0.129228,-4.716682,8.139138,0.201657,0.016120,0.277168,-33.970353,0.219835,23.950234
17913,,0.112311,-4.611629,8.148175,0.144346,0.015910,0.243653,-33.890072,0.271109,24.058992
17914,,0.081086,-4.513642,8.205516,0.050567,0.018347,0.201608,-33.860289,0.340775,24.147643
17915,,0.053060,-4.508327,8.291642,-0.044486,0.024071,0.157997,-33.885401,0.369787,24.213185
17916,,0.027453,-4.596455,8.406307,-0.149894,0.028060,0.124885,-33.970609,0.419609,24.262188
17917,,-0.041590,-4.689807,8.547360,-0.276688,0.038918,0.095538,-34.125917,0.437200,24.293208
17918,,-0.113481,-4.732409,8.704083,-0.462458,0.054381,0.060470,-34.390470,0.478985,24.302925
17919,,-0.353788,-4.661756,8.765890,-0.717911,0.060050,0.015504,-34.795903,0.482436,24.288965
17920,,-0.540650,-4.795742,8.184159,-0.946427,0.003578,-0.018546,-35.337921,0.474512,24.277756
17921,,-0.554818,-5.189578,7.219299,-1.095726,-0.087220,-0.019109,-35.956734,0.400309,24.296402
17922,,-0.332882,-5.910056,6.315694,-1.233097,-0.204640,0.021944,-36.662421,0.309739,24.374701
17923,,-0.167985,-6.293837,6.157504,-1.503657,-0.286694,0.070659,-37.516745,0.178413,24.504525
17924,,-0.036211,-6.458767,6.288955,-1.867292,-0.338560,0.115549,-38.585926,0.062895,24.675062
17925,,-0.127999,-6.146015,6.423351,-2.283929,-0.348987,0.142747,-39.892273,-0.063627,24.863409
17926,,-0.386374,-5.581480,6.355322,-2.611190,-0.350974,0.168823,-41.388427,-0.156845,25.066779
17927,,-0.599282,-5.332231,6.385637,-2.910291,-0.351557,0.194855,-43.055871,-0.252547,25.283530
17928,,-0.391420,-5.568897,7.141707,-3.257292,-0.293760,0.217142,-44.922797,-0.290919,25.489147
17929,,0.117009,-5.671262,8.451083,-3.628927,-0.143353,0.247541,-47.000174,-0.265117,25.645802
17930,,0.459973,-5.223700,9.450193,-4.046969,0.071959,0.282994,-49.318834,-0.120566,25.722725
17931,,0.227903,-5.346013,8.934441,-4.361948,0.205052,0.289435,-51.807348,0.063149,25.736773
17932,,0.301070,-6.608556,7.477554,-4.309235,0.220351,0.283356,-54.276026,0.264996,25.733302
17933,,0.708614,-9.096461,5.888379,-3.825666,0.183016,0.261520,-56.450013,0.428927,25.732151
17934,,1.034118,-11.854985,4.766195,-2.911911,0.177034,0.211818,-58.118243,0.582069,25.712479
17935,,0.741542,-13.672344,4.192140,-1.609200,0.213256,0.137572,-59.027670,0.692181,25.649395
17936,,-0.182641,-13.447210,4.103961,-0.160716,0.224828,0.075085,-59.120547,0.791502,25.561185
17937,,-1.017734,-10.825962,4.375344,0.996850,0.172248,0.026457,-58.547222,0.834294,25.484417
17938,,-1.161117,-7.617086,4.715658,1.511591,0.115883,-0.028678,-57.681750,0.851619,25.419481
17939,,-0.627903,-5.368837,5.146619,1.520163,0.096803,-0.093089,-56.811194,0.818895,25.343714
17940,,-0.036457,-4.521885,5.432199,1.123437,0.120066,-0.148175,-56.168618,0.782284,25.239495
17941,,0.273774,-4.966988,5.381595,0.533636,0.151293,-0.164113,-55.859348,0.736242,25.114850
17942,,0.429196,-6.386139,5.194049,-0.011696,0.177113,-0.169052,-55.867443,0.709209,24.976467
17943,,0.319009,-8.321277,4.953035,-0.306827,0.209988,-0.150192,-56.037021,0.688260,24.828431
17944,,-0.009476,-9.732007,4.914068,-0.326794,0.211810,-0.110403,-56.225555,0.699555,24.692395
17945,,-0.289263,-10.308306,5.035931,-0.177393,0.193119,-0.052352,-56.323181,0.718981,24.583499
17946,,-0.336858,-10.141881,5.273435,0.007787,0.163122,-0.005779,-56.319395,0.764234,24.503885
17947,,-0.283680,-9.540084,5.449766,0.181012,0.137445,0.034884,-56.214631,0.808558,24.449221
17948,,-0.184051,-8.818414,5.539046,0.248632,0.117091,0.059335,-56.072360,0.870340,24.412438
17949,,-0.244452,-8.456344,5.454693,0.262204,0.096237,0.068602,-55.922031,0.918495,24.388406
17950,,-0.202182,-8.314983,5.312887,0.289772,0.083114,0.067554,-55.755941,0.973433,24.370706
17951,,-0.203605,-8.212791,5.214410,0.308292,0.080348,0.054333,-55.579744,1.010515,24.349926
17952,,-0.315559,-8.096550,5.095029,0.329840,0.078318,0.052881,-55.390763,1.057071,24.330067
17953,,-0.380764,-7.883362,5.156853,0.341791,0.062655,0.043635,-55.196088,1.084169,24.314440
17954,,-0.302087,-7.774798,5.188778,0.335739,0.059669,0.033504,-55.003698,1.115634,24.297306
17955,,-0.233889,-7.939670,4.957714,0.389192,0.050820,-0.003194,-54.782491,1.117809,24.272062
17956,,-0.185552,-8.497859,4.856149,0.571721,0.051880,-0.050593,-54.455363,1.107543,24.230929
17957,,-0.162693,-9.163047,4.605862,0.988631,0.044598,-0.109948,-53.892824,1.058804,24.172888
17958,,-0.250824,-9.155399,5.359421,1.645837,0.080665,-0.180610,-52.951252,0.999401,24.073907
17959,,-0.633507,-8.507956,6.396912,2.384395,0.124439,-0.276215,-51.593257,0.905630,23.920044
17960,,-0.897589,-7.999735,7.204248,3.125752,0.215815,-0.423963,-49.805680,0.792144,23.670118
17961,,-0.721164,-8.036758,8.887667,3.832859,0.305940,-0.515940,-47.618700,0.675082,23.342570
17962,,0.051466,-8.497735,10.949796,4.470917,0.404513,-0.434948,-45.060633,0.651004,23.002203
17963,,0.223870,-8.952779,11.413427,4.965033,0.473564,-0.243327,-42.220462,0.741251,22.713050
17964,,-0.505096,-9.596572,9.206348,5.358474,0.357065,-0.040893,-39.152078,0.877371,22.560891
17965,,-0.939799,-10.025675,6.662872,5.802621,0.116466,0.066528,-35.828466,0.943908,22.549111
17966,,-1.492463,-10.577648,4.606288,6.039446,-0.159918,0.078720,-32.366371,0.889743,22.636380
17967,,-0.912070,-10.456519,2.572269,6.410148,-0.482775,-0.020922,-28.702682,0.638343,22.764622
17968,,1.445750,-7.675927,2.200921,6.780782,-0.639955,-0.157135,-24.816565,0.267105,22.847423
17969,,2.772246,-2.256750,4.423874,6.635310,-0.496810,-0.326184,-21.038382,-0.075241,22.783846
17970,,2.597629,3.905903,8.725113,5.532243,-0.181669,-0.482172,-17.867611,-0.268484,22.555751
17971,,1.144971,7.485808,11.286009,3.466569,0.114134,-0.443160,-15.896619,-0.291996,22.291134
17972,,-0.704707,7.909860,11.286562,1.072304,0.249493,-0.246544,-15.281150,-0.195229,22.114159
17973,,-1.627736,5.184519,10.439366,-1.180251,0.310826,-0.054111,-15.953225,-0.044192,22.033601
17974,,-1.386602,0.188239,9.373570,-2.568728,0.366531,0.101025,-17.424674,0.170572,22.026294
17975,,-0.725925,-4.266963,8.616099,-2.969192,0.392190,0.195399,-19.112054,0.410102,22.059734
17976,,-0.117613,-7.467358,7.813799,-2.613770,0.361277,0.202485,-20.608962,0.641050,22.096247
17977,,0.344886,-8.762088,7.024270,-1.773230,0.287589,0.135963,-21.616841,0.814608,22.107317
17978,,0.533300,-8.210938,7.084231,-0.762462,0.207286,0.070497,-22.053493,0.936654,22.098464
17979,,0.196201,-6.377178,7.861601,0.072558,0.129525,0.030925,-22.013935,1.002905,22.084659
17980,,-0.199175,-4.277404,8.604699,0.543545,0.046383,0.033996,-21.702059,1.031594,22.090671
17981,,-0.420494,-2.980349,9.162357,0.710851,-0.032304,0.065129,-21.299032,1.018783,22.129694
17982,,-0.452739,-2.233663,9.436191,0.690220,-0.053366,0.073852,-20.902375,1.002287,22.177971
17983,,-0.503797,-1.779238,9.442543,0.509771,-0.030393,0.046539,-20.612931,0.986935,22.206611
17984,,-0.470583,-1.672508,9.137694,0.244453,-0.020192,-0.000566,-20.472507,0.972802,22.208121
17985,,-0.275139,-1.949544,8.868236,-0.013969,-0.015253,-0.051660,-20.481152,0.946548,22.181037
17986,,-0.164460,-2.669132,8.581400,-0.204990,0.006311,-0.073154,-20.598967,0.932040,22.138265
17987,,-0.250617,-3.399153,8.477479,-0.264842,0.005572,-0.071268,-20.750056,0.913197,22.096564
17988,,-0.291156,-3.811816,8.650804,-0.268822,-0.016394,-0.059992,-20.904231,0.888994,22.065539
17989,,-0.268702,-4.118914,8.859400,-0.228933,-0.037476,-0.040605,-21.034908,0.853551,22.049146
17990,,-0.222384,-4.104659,9.048875,-0.169557,-0.056714,-0.025047,-21.131777,0.814854,22.045224
17991,,-0.135009,-3.910969,9.113922,-0.119742,-0.076543,-0.028128,-21.200687,0.761354,22.043682
17992,,-0.146130,-3.605376,9.087999,-0.086828,-0.086928,-0.040941,-21.250176,0.703212,22.037634
17993,,-0.165073,-3.328426,9.018702,-0.086942,-0.097373,-0.064020,-21.300777,0.631266,22.021354
17994,,-0.157304,-3.206350,8.941528,-0.106818,-0.117563,-0.069042,-21.361794,0.550903,22.006800
17995,,-0.163678,-3.180188,8.770471,-0.127128,-0.134467,-0.078247,-21.434994,0.456374,21.990844
17996,,-0.178344,-3.158313,8.748841,-0.163444,-0.146075,-0.091526,-21.528449,0.356051,21.970495
17997,,-0.204200,-3.198533,8.768083,-0.203759,-0.156169,-0.112740,-21.645159,0.242910,21.941048
17998,,-0.171461,-3.277655,8.824527,-0.239289,-0.166657,-0.134638,-21.782049,0.122409,21.902519
17999,,-0.114401,-3.569077,8.761378,-0.260134,-0.177492,-0.145928,-21.930581,-0.008949,21.860503
18000,,-0.180450,-3.674026,8.666402,-0.238087,-0.198314,-0.156397,-22.066599,-0.151130,21.817808
18001,,-0.159263,-3.617129,8.608785,-0.209643,-0.221771,-0.174298,-22.186132,-0.311991,21.770907
18002,,-0.100062,-3.638939,8.532223,-0.177289,-0.247047,-0.189412,-22.287033,-0.487353,21.721858
18003,,-0.044732,-3.525770,8.384728,-0.152640,-0.287048,-0.207965,-22.373763,-0.689957,21.671899
18004,,0.076969,-3.360835,8.298053,-0.139705,-0.318962,-0.237823,-22.452655,-0.914139,21.613454
18005,,0.130697,-3.249574,8.301689,-0.147435,-0.354149,-0.255511,-22.535837,-1.162624,21.553610
18006,,0.144522,-3.253513,8.215757,-0.184294,-0.392343,-0.279215,-22.639655,-1.434912,21.490090
18007,,0.079421,-3.310639,8.179526,-0.217630,-0.432728,-0.305387,-22.762020,-1.736051,21.422130
18008,,0.149070,-3.414385,8.168655,-0.245452,-0.473772,-0.320909,-22.900122,-2.060877,21.355832
18009,,0.153720,-3.483739,7.989044,-0.281337,-0.523029,-0.331806,-23.058426,-2.415604,21.295575
18010,,0.295784,-3.360757,7.890783,-0.308933,-0.568664,-0.347517,-23.232497,-2.796776,21.238390
18011,,0.356450,-3.387740,7.786541,-0.344820,-0.612207,-0.380370,-23.426262,-3.209557,21.174947
18012,,0.487603,-3.387818,7.765787,-0.367720,-0.660876,-0.412335,-23.632566,-3.654370,21.107297
18013,,0.660198,-3.337455,7.781581,-0.371354,-0.708428,-0.455137,-23.839611,-4.135190,21.029666
18014,,0.654362,-3.416659,7.817175,-0.365699,-0.754106,-0.505025,-24.041800,-4.650849,20.938201
18015,,0.727354,-3.501852,7.839448,-0.345031,-0.818480,-0.543401,-24.230802,-5.210444,20.843375
18016,,0.803404,-3.446019,7.774770,-0.334470,-0.893222,-0.584640,-24.412788,-5.818120,20.746423
18017,,1.018263,-3.322214,7.724983,-0.356238,-0.964608,-0.615659,-24.606222,-6.471622,20.652101
18018,,1.218518,-3.299103,7.541379,-0.393711,-1.042719,-0.645363,-24.820924,-7.172300,20.563332
18019,,1.529998,-3.279792,7.537190,-0.428777,-1.105620,-0.671290,-25.054710,-7.913386,20.478821
18020,,1.752615,-3.439577,7.385727,-0.470206,-1.171052,-0.700091,-25.312185,-8.694648,20.398499
18021,,1.829304,-3.672662,7.145193,-0.473070,-1.234210,-0.737890,-25.569464,-9.519998,20.317326
18022,,1.819139,-3.755637,6.982818,-0.463889,-1.287433,-0.778660,-25.820155,-10.381545,20.231882
18023,,1.812011,-3.552903,6.911579,-0.450802,-1.333267,-0.821336,-26.060504,-11.280107,20.139132
18024,,1.873745,-3.150807,7.030123,-0.490272,-1.390866,-0.867045,-26.321115,-12.217881,20.041095
18025,,2.204899,-3.041491,7.332372,-0.570858,-1.441242,-0.917477,-26.624052,-13.197496,19.933938
18026,,2.610752,-3.278514,7.453477,-0.653148,-1.462990,-0.950346,-26.971138,-14.194640,19.820700
18027,,2.854769,-3.779220,7.271529,-0.708534,-1.514640,-0.943525,-27.353099,-15.220241,19.730713
18028,,3.048717,-3.990633,7.124228,-0.687766,-1.566435,-0.958555,-27.726004,-16.273458,19.653968
18029,,2.894486,-3.855528,6.946364,-0.665839,-1.607523,-0.989699,-28.084727,-17.360318,19.578489
18030,,2.839522,-3.685743,6.971333,-0.668309,-1.649226,-1.033753,-28.442728,-18.476570,19.498578
18031,,3.114905,-3.680860,7.146325,-0.697338,-1.682358,-1.092833,-28.810357,-19.630547,19.403416
18032,,3.731918,-3.855262,7.692765,-0.705262,-1.672656,-1.145295,-29.173165,-20.790398,19.284879
18033,,4.055234,-4.602435,7.682164,-0.694920,-1.667227,-1.161196,-29.525573,-21.957456,19.162457
18034,,4.321265,-5.198237,7.470303,-0.562121,-1.709678,-1.160683,-29.807981,-23.141338,19.059885
18035,,4.661688,-5.009650,7.459176,-0.392007,-1.741673,-1.177435,-29.992735,-24.351508,18.962176
18036,,4.555588,-4.630169,7.348347,-0.293614,-1.735814,-1.227938,-30.108191,-25.568262,18.837913
18037,,4.282434,-4.218503,7.223978,-0.217003,-1.743131,-1.314139,-30.157920,-26.819155,18.668704
18038,,4.358053,-3.905532,7.314817,-0.146664,-1.760359,-1.399809,-30.143598,-28.097733,18.456143
18039,,4.635634,-3.694558,7.535378,-0.066091,-1.767159,-1.478442,-30.056741,-29.407547,18.196219
18040,,4.960296,-3.764412,7.655044,0.019265,-1.781935,-1.540313,-29.897093,-30.736485,17.900338
18041,,5.241699,-3.740617,7.633043,0.113940,-1.819388,-1.574626,-29.667569,-32.097500,17.585688
18042,,5.620626,-3.641821,7.617082,0.197862,-1.850856,-1.580251,-29.381892,-33.470013,17.268115
18043,,5.987229,-3.561613,7.226983,0.187048,-1.910258,-1.538859,-29.112323,-34.864104,16.980541
18044,,6.347923,-3.479026,6.688658,0.143796,-1.965452,-1.521565,-28.873333,-36.275212,16.711930
18045,,6.740936,-3.485538,6.203234,0.068535,-2.009511,-1.536677,-28.666229,-37.717699,16.435386
18046,,7.151277,-3.606325,5.728017,0.022068,-2.064591,-1.562008,-28.476907,-39.188136,16.151846
18047,,7.653255,-3.495811,5.569622,0.030835,-2.127327,-1.597316,-28.266097,-40.706472,15.853033
18048,,8.051738,-3.078076,5.548154,0.023080,-2.160645,-1.654536,-28.028223,-42.248770,15.514392
18049,,8.211255,-2.767636,5.768876,-0.021003,-2.161980,-1.729075,-27.760071,-43.819830,15.105317
18050,,8.288988,-2.735528,6.005871,-0.086448,-2.127347,-1.764915,-27.481138,-45.372163,14.638009
18051,,7.939556,-2.983795,5.805826,-0.170721,-2.095595,-1.727304,-27.233677,-46.907530,14.160874
18052,,7.763862,-3.113717,5.386825,-0.224007,-2.109903,-1.656763,-27.037544,-48.419844,13.722402
18053,,7.963714,-3.156715,4.866112,-0.285975,-2.126621,-1.568927,-26.908701,-49.928166,13.337068
18054,,8.330730,-3.203880,4.240833,-0.348971,-2.158571,-1.492004,-26.857870,-51.421361,13.013332
18055,,9.027015,-3.120735,4.088147,-0.366306,-2.177978,-1.456060,-26.830523,-52.927051,12.713674
18056,,9.748612,-2.881348,4.127697,-0.406726,-2.167214,-1.455763,-26.810227,-54.415083,12.399649
18057,,10.259552,-2.626035,4.541293,-0.457837,-2.111980,-1.472233,-26.771081,-55.892578,12.032296
18058,,10.516626,-2.235466,5.008271,-0.506077,-2.027064,-1.499493,-26.686142,-57.319882,11.583682
18059,,10.096034,-1.923599,5.441798,-0.586321,-1.943913,-1.518264,-26.572079,-58.723725,11.053218
18060,,9.655806,-1.603561,5.556947,-0.665602,-1.900280,-1.507458,-26.464881,-60.087175,10.486051
18061,,9.576959,-1.316476,5.217545,-0.775165,-1.882636,-1.470182,-26.412485,-61.446253,9.917747
18062,,10.123506,-1.374804,4.693642,-0.869878,-1.845660,-1.436142,-26.403107,-62.762957,9.343593
18063,,10.632013,-1.593077,4.227999,-0.920530,-1.777368,-1.434328,-26.352961,-64.058470,8.698983
18064,,11.049195,-1.791893,3.942708,-0.928451,-1.707529,-1.441363,-26.231376,-65.305025,7.976372
18065,,11.405448,-1.630447,3.916758,-0.938340,-1.641668,-1.434192,-26.032129,-66.529873,7.170624
18066,,11.535769,-1.629771,3.998551,-0.949917,-1.527767,-1.448079,-25.707884,-67.683156,6.228239
18067,,11.316906,-1.529930,4.074648,-0.996246,-1.450866,-1.460140,-25.266001,-68.812215,5.139401
18068,,11.074905,-1.451277,3.794236,-1.002937,-1.396277,-1.465675,-24.711621,-69.895736,3.933283
18069,,10.878745,-1.517143,3.577255,-0.970588,-1.353881,-1.459156,-24.004150,-70.965471,2.593880
18070,,10.795591,-1.440446,3.466222,-0.921278,-1.313774,-1.436668,-23.172658,-71.988344,1.160660
18071,,10.799158,-1.449275,3.284583,-0.899383,-1.280064,-1.422044,-22.174824,-72.996697,-0.424301
18072,,10.868813,-1.441242,2.995945,-0.891622,-1.231269,-1.412331,-21.016677,-73.954085,-2.164816
18073,,10.815323,-1.398017,2.720310,-0.871313,-1.182456,-1.413908,-19.602631,-74.887313,-4.149415
18074,,10.799157,-1.316230,2.540675,-0.868982,-1.151311,-1.401559,-17.998749,-75.774132,-6.321599
18075,,10.811440,-1.045978,2.411208,-0.886510,-1.109759,-1.397105,-16.111222,-76.632590,-8.786661
18076,,10.700830,-0.871398,2.338579,-0.955862,-1.062742,-1.385855,-14.003927,-77.430350,-11.510703
18077,,10.523321,-0.741818,2.274497,-1.048968,-1.025929,-1.366478,-11.626179,-78.191942,-14.556627
18078,,10.443227,-0.567907,2.080159,-1.153485,-0.993331,-1.339183,-9.051417,-78.892870,-17.857664
18079,,10.468300,-0.617571,1.912726,-1.256263,-0.945282,-1.308918,-6.184526,-79.542471,-21.507271
18080,,10.441917,-0.842353,1.808413,-1.355702,-0.886131,-1.281604,-3.092242,-80.110983,-25.437704
18081,,10.485966,-0.820874,1.711566,-1.430077,-0.827131,-1.239899,0.275110,-80.613884,-29.682903
18082,,10.488209,-0.943606,1.652840,-1.542416,-0.768920,-1.207848,3.792652,-81.032284,-34.140848
18083,,10.391465,-1.446643,1.505772,-1.606444,-0.716476,-1.159327,7.490788,-81.385223,-38.812963
18084,,10.367466,-1.845886,1.262818,-1.553336,-0.688333,-1.113285,11.285603,-81.672423,-43.549062
18085,,10.186613,-2.138698,1.197619,-1.410856,-0.652327,-1.051158,15.218921,-81.906182,-48.338724
18086,,9.986435,-2.154656,1.231894,-1.218495,-0.646020,-0.991178,19.190296,-82.093317,-53.053768
18087,,9.901591,-1.956963,1.282710,-1.022441,-0.646620,-0.929803,23.272589,-82.252618,-57.764926
18088,,9.848690,-1.664871,1.237178,-0.847366,-0.641958,-0.859183,27.282298,-82.375907,-62.300532
18089,,9.678302,-1.443656,1.037071,-0.704857,-0.622043,-0.794982,31.248312,-82.470210,-66.708259
18090,,9.578725,-1.207738,0.890276,-0.560864,-0.606246,-0.715864,35.013970,-82.537176,-70.830162
18091,,9.692023,-0.598862,1.132290,-0.461428,-0.581569,-0.642565,38.604815,-82.589088,-74.717607
18092,,9.992864,0.033972,1.640280,-0.508496,-0.495676,-0.574688,41.691283,-82.593567,-78.123542
18093,,10.241344,0.451059,2.036925,-0.666489,-0.341010,-0.492824,43.979576,-82.549832,-80.815887
18094,,10.333886,0.513056,2.140370,-0.855256,-0.187934,-0.421466,45.402371,-82.455896,-82.744905
18095,,10.401344,0.371296,2.052740,-0.992702,-0.064437,-0.348230,46.130005,-82.342652,-84.052438
18096,,10.427067,0.024703,1.882709,-1.063855,0.023315,-0.281514,46.304285,-82.216204,-84.843146
18097,,10.373077,-0.522389,1.583552,-1.008090,0.085271,-0.237874,46.199191,-82.087616,-85.319842
18098,,10.238555,-0.934009,1.266050,-0.847458,0.095339,-0.204604,46.043358,-81.964513,-85.652507
18099,,10.196888,-1.079443,1.013548,-0.628396,0.088584,-0.185207,45.978148,-81.857318,-85.950213
18100,,10.138912,-0.881196,0.913698,-0.409135,0.070188,-0.173510,46.052188,-81.757128,-86.261579
18101,,10.147436,-0.353723,0.829843,-0.265936,0.045428,-0.152889,46.211680,-81.681508,-86.576823
18102,,10.138314,0.203484,0.747820,-0.237108,0.026873,-0.134752,46.392589,-81.614302,-86.896716
18103,,10.150060,0.730197,0.708579,-0.300658,0.021541,-0.104355,46.458423,-81.568746,-87.137598
18104,,10.053893,0.939856,0.731461,-0.424381,0.023508,-0.075583,46.379390,-81.527336,-87.303264
18105,,9.910885,0.806789,0.749592,-0.538122,0.020906,-0.043848,46.149811,-81.507369,-87.383086
18106,,9.821968,0.545271,0.677723,-0.603124,0.004460,-0.018901,45.870988,-81.497083,-87.450323
18107,,9.724738,0.235602,0.675195,-0.613810,-0.012203,-0.010606,45.601399,-81.504371,-87.533571
18108,,9.606335,0.126664,0.722226,-0.579256,-0.028664,0.001317,45.373154,-81.515746,-87.638127
18109,,9.619934,-0.027733,0.720156,-0.526244,-0.050640,0.009227,45.203339,-81.547239,-87.771588
18110,,9.640408,-0.010785,0.854010,-0.475226,-0.057705,0.019696,45.064245,-81.577914,-87.906011
18111,,9.680237,-0.144964,1.029024,-0.412598,-0.060883,0.026223,44.938008,-81.621117,-88.017766
18112,,9.656278,-0.309745,1.127044,-0.323824,-0.053391,0.038520,44.822045,-81.657742,-88.087875
18113,,9.651723,-0.385954,1.221352,-0.221980,-0.059464,0.048480,44.733815,-81.709910,-88.127755
18114,,9.688926,-0.374222,1.223984,-0.123621,-0.057978,0.058503,44.689270,-81.756492,-88.154113
18115,,9.726078,-0.361931,1.227397,-0.038893,-0.050367,0.058931,44.644033,-81.809634,-88.131562
18116,,9.830596,-0.311202,1.207807,0.054517,-0.044439,0.068256,44.635707,-81.854632,-88.091404
18117,,9.943697,-0.100842,1.215979,0.127180,-0.037192,0.072376,44.602680,-81.908217,-87.985195
18118,,10.051776,0.070140,1.196983,0.156113,-0.024760,0.066913,44.599830,-81.944647,-87.891796
18119,,10.045479,0.215401,1.238517,0.169711,-0.002499,0.069142,44.494924,-81.982968,-87.688497
18120,,10.009889,0.291263,1.214473,0.192018,0.005472,0.070449,44.414510,-82.008422,-87.496024
18121,,9.921386,0.378840,1.184155,0.216902,0.013243,0.071043,44.279502,-82.040989,-87.235126
18122,,9.876476,0.446449,1.219393,0.237799,0.024141,0.067239,44.179204,-82.057395,-86.996128
18123,,9.819389,0.514060,1.171892,0.259907,0.041916,0.059604,44.015054,-82.073372,-86.681007
18124,,9.780321,0.611404,1.122230,0.273890,0.052108,0.058143,43.881065,-82.074464,-86.387141
18125,,9.740585,0.748797,1.058501,0.274615,0.070770,0.047074,43.677296,-82.073151,-86.023560
18126,,9.717499,0.816601,1.008794,0.268990,0.083048,0.041100,43.503766,-82.054421,-85.692610
18127,,9.794814,0.820515,0.947317,0.259690,0.097190,0.043311,43.229040,-82.040061,-85.266017
18128,,9.815033,0.716376,0.883617,0.250309,0.104575,0.035573,43.003747,-82.009789,-84.893586
18129,,9.888082,0.600639,0.828246,0.248759,0.107690,0.034303,42.724106,-81.986886,-84.468329
18130,,9.894505,0.586300,0.765563,0.264384,0.107218,0.040329,42.489663,-81.956889,-84.078477
18131,,9.904193,0.552392,0.731309,0.277548,0.102642,0.041148,42.223702,-81.938316,-83.650364
18132,,9.924144,0.639099,0.733335,0.285282,0.090150,0.043652,42.041330,-81.916402,-83.300980
18133,,9.922603,0.754694,0.693218,0.283818,0.087218,0.042729,41.818777,-81.904675,-82.913081
18134,,9.842831,0.866665,0.720102,0.261350,0.088972,0.032417,41.662045,-81.878648,-82.603426
18135,,9.784397,0.836414,0.692942,0.233672,0.086852,0.021706,41.478564,-81.858770,-82.283993
18136,,9.713534,0.740708,0.727482,0.197298,0.084342,0.008526,41.371751,-81.825438,-82.061817
18137,,9.729514,0.517747,0.671435,0.177773,0.080256,0.004457,41.229216,-81.801701,-81.816077
18138,,9.672213,0.332238,0.708897,0.193922,0.074233,0.013308,41.134940,-81.774403,-81.608504
18139,,9.608167,0.339200,0.622417,0.221848,0.048133,0.023661,41.045412,-81.771867,-81.390825
18140,,9.599907,0.430427,0.663841,0.246414,0.023757,0.034150,41.050987,-81.774157,-81.253758
18141,,9.588765,0.578492,0.657564,0.254959,0.014076,0.039161,41.022094,-81.792395,-81.078218
18142,,9.586108,0.710204,0.720583,0.247189,0.002924,0.045953,41.046513,-81.808128,-80.959764
18143,,9.549830,0.765632,0.819812,0.225680,-0.002248,0.047136,41.019317,-81.836515,-80.802913
18144,,9.595504,0.727448,0.913865,0.210639,-0.004526,0.051553,41.024628,-81.857576,-80.686339
18145,,9.651445,0.694905,0.949144,0.198182,-0.009735,0.047315,41.000200,-81.889200,-80.548217
18146,,9.667710,0.661494,0.946897,0.206118,-0.007790,0.049108,41.018054,-81.910754,-80.446958
18147,,9.691604,0.574226,0.890738,0.220128,-0.004546,0.037505,41.021279,-81.936381,-80.324091
18148,,9.710249,0.602015,0.884101,0.243615,-0.012718,0.027657,41.138698,-81.952010,-80.301716
18149,,9.747367,0.621353,0.889348,0.267596,-0.012665,0.013206,41.264539,-81.972024,-80.275235
18150,,9.724062,0.708312,0.939965,0.280416,-0.011818,0.007203,41.463358,-81.979542,-80.313787
18151,,9.753355,0.823056,0.980913,0.272825,-0.015469,0.003292,41.630469,-81.996963,-80.325963
18152,,9.795665,0.924759,0.992418,0.249087,-0.007757,0.006486,41.802826,-82.002443,-80.355931
18153,,9.911957,0.987174,1.054928,0.209306,-0.003627,0.009985,41.882002,-82.017177,-80.316046
18154,,9.988021,0.928994,0.991888,0.173075,0.019340,0.011638,41.921293,-82.013066,-80.255636
18155,,10.064072,0.831237,0.948649,0.142526,0.028703,0.021629,41.839340,-82.018254,-80.091670
18156,,10.095470,0.807347,0.934313,0.123082,0.032934,0.021407,41.783156,-82.012062,-79.963788
18157,,10.108444,0.716088,0.943669,0.114874,0.043472,0.022296,41.643608,-82.011044,-79.757665
18158,,10.131976,0.785730,0.966579,0.113868,0.051265,0.025097,41.521487,-81.998334,-79.568540
18159,,10.131657,0.822461,0.953155,0.097897,0.052065,0.027013,41.335153,-81.995226,-79.324997
18160,,10.070997,0.887735,1.002456,0.075929,0.060810,0.029201,41.153949,-81.979805,-79.098164
18161,,10.009905,0.872017,0.946049,0.054925,0.067870,0.027936,40.899397,-81.969879,-78.810588
18162,,9.941039,0.873691,0.961105,0.038423,0.074162,0.027009,40.669647,-81.947599,-78.556427
18163,,9.877205,0.798480,0.911594,0.015115,0.069027,0.023684,40.404968,-81.935153,-78.281643
18164,,9.784447,0.729615,0.907777,0.010329,0.068983,0.017079,40.205557,-81.911164,-78.074373
18165,,9.725906,0.659115,0.899357,0.001304,0.060114,0.015328,39.984357,-81.899222,-77.851484
18166,,9.704426,0.646175,0.880121,-0.018645,0.053316,0.011842,39.826838,-81.879998,-77.703294
18167,,9.651310,0.617855,0.894528,-0.037105,0.052565,0.016756,39.600210,-81.871733,-77.497152
18168,,9.626977,0.506364,0.898619,-0.044344,0.047735,0.021702,39.412982,-81.858431,-77.333830
18169,,9.655421,0.421551,0.892920,-0.044947,0.038513,0.016110,39.220297,-81.856027,-77.166529
18170,,9.636510,0.351969,0.919034,-0.038370,0.026105,0.028975,39.069251,-81.854829,-77.036308
18171,,9.686341,0.316551,0.917825,-0.018555,0.010992,0.020162,38.947638,-81.866146,-76.925558
18172,,9.731047,0.358312,0.980419,0.002611,0.006496,0.025418,38.880269,-81.872341,-76.856164
18173,,9.733977,0.415446,0.974974,0.029514,0.003622,0.025256,38.787069,-81.888859,-76.746329
18174,,9.695111,0.569138,1.008044,0.035287,-0.000839,0.020456,38.772040,-81.896533,-76.710910
18175,,9.677119,0.615692,0.976876,0.023829,-0.003650,0.014785,38.725624,-81.912557,-76.651641
18176,,9.661119,0.568625,1.011248,0.013685,-0.002994,0.013572,38.725048,-81.918730,-76.643338
18177,,9.703506,0.547754,0.936261,0.015301,-0.001531,0.016321,38.663066,-81.934338,-76.573291
18178,,9.714155,0.592457,1.001640,0.016074,-0.002965,0.016863,38.653199,-81.941681,-76.554235
18179,,9.801116,0.576899,1.005896,0.011410,-0.008024,0.021122,38.589621,-81.961914,-76.484836
18180,,9.817166,0.582422,0.988560,0.021592,0.001743,0.023362,38.550109,-81.969473,-76.432664
18181,,9.820307,0.639609,0.982284,0.022871,-0.005204,0.026774,38.467178,-81.990441,-76.337100
18182,,9.828703,0.700541,1.017228,0.013902,-0.009740,0.026693,38.441296,-82.004331,-76.303159
18183,,9.855723,0.790267,1.047329,0.001337,-0.003023,0.021567,38.356615,-82.022406,-76.218292
18184,,9.855884,0.788357,1.047248,-0.012741,0.000479,0.015981,38.323468,-82.027894,-76.192445
18185,,9.831821,0.716200,1.029154,-0.026281,0.012138,0.005740,38.235475,-82.033405,-76.120204
18186,,9.841855,0.642606,1.007668,-0.039287,0.012202,-0.001007,38.211837,-82.027594,-76.119332
18187,,9.817273,0.533400,1.008625,-0.040292,0.023236,-0.006755,38.128120,-82.023622,-76.059514
18188,,9.858996,0.475608,0.954118,-0.025545,0.020047,-0.002910,38.098649,-82.013609,-76.044815
18189,,9.803504,0.466447,0.935524,-0.013988,0.024355,-0.003522,38.016502,-82.010303,-75.971374
18190,,9.763923,0.464613,0.900215,-0.013713,0.025182,0.002707,37.962916,-81.999956,-75.925490
18191,,9.708139,0.416334,0.899796,-0.014210,0.027446,0.008392,37.834347,-81.999508,-75.805313
18192,,9.716072,0.397674,0.831620,-0.015822,0.022733,0.014195,37.748856,-81.994289,-75.728443
18193,,9.752548,0.376572,0.859818,-0.005506,0.024648,0.019358,37.596458,-81.999018,-75.579188
18194,,9.725644,0.363347,0.937614,-0.003192,0.020339,0.020989,37.502220,-81.997222,-75.486192
18195,,9.776104,0.404504,0.900658,-0.000508,0.015099,0.031136,37.337203,-82.010433,-75.321324
18196,,9.776534,0.520445,0.990475,-0.004583,0.006028,0.031983,37.241597,-82.018926,-75.227768
18197,,9.808513,0.532471,0.957423,-0.015966,0.007569,0.027965,37.095345,-82.034448,-75.090814
18198,,9.845546,0.548644,0.966256,-0.019494,0.006661,0.024162,37.014559,-82.039907,-75.020869
18199,,9.861127,0.515693,0.968018,-0.025506,0.007487,0.014781,36.905437,-82.050893,-74.926937
18200,,9.874335,0.500806,0.939914,-0.024335,0.005543,0.007356,36.879426,-82.051064,-74.915115
18201,,9.868809,0.457925,0.916807,-0.034671,0.009736,0.001557,36.802529,-82.056505,-74.859031
18202,,9.853229,0.488202,0.916627,-0.028237,0.002313,0.003588,36.794480,-82.056872,-74.867617
18203,,9.866028,0.436128,0.905615,-0.025998,-0.003076,-0.004993,36.775351,-82.066026,-74.864848
18204,,9.871091,0.440077,0.947289,-0.021798,-0.001850,-0.002932,36.802590,-82.066075,-74.905352
18205,,9.823677,0.455761,0.979789,-0.017575,-0.006717,-0.000250,36.781264,-82.078621,-74.895502
18206,,9.823736,0.455528,0.979308,-0.017873,-0.004708,0.001450,36.803293,-82.081494,-74.928489
