// Start Time: Unknown
// Update Rate: 100.0Hz
// Filter Profile: human (46.1)
// Firmware Version: 4.3.5
PacketCounter,SampleTimeFine,Acc_X,Acc_Y,Acc_Z,Gyr_X,Gyr_Y,Gyr_Z,Roll,Pitch,Yaw
34618,,9.414883,-1.814942,2.682580,-0.101307,0.078596,0.004713,-33.959212,-70.644968,-23.668168
34619,,9.424406,-1.850491,2.692383,-0.101394,0.079426,0.008915,-33.957071,-70.604368,-23.732019
34620,,9.311341,-1.815431,2.594830,-0.086560,0.081488,0.014592,-33.948994,-70.561293,-23.795562
34621,,9.331815,-1.810325,2.602590,-0.085978,0.078016,0.011555,-33.943153,-70.520515,-23.854004
34622,,9.356490,-1.796397,2.522651,-0.079476,0.074759,0.014494,-33.945443,-70.481706,-23.896608
34623,,9.335457,-1.822776,2.545399,-0.073434,0.073254,0.012216,-33.937841,-70.442978,-23.949320
34624,,9.360207,-1.819967,2.518782,-0.064131,0.073097,0.011227,-33.929869,-70.407553,-23.994641
34625,,9.327892,-1.801619,2.483713,-0.060956,0.062315,0.007266,-33.918558,-70.375603,-24.043724
34626,,9.353049,-1.798440,2.456171,-0.060357,0.059962,0.014236,-33.922656,-70.347497,-24.078356
34627,,9.336568,-1.827226,2.443235,-0.051417,0.049975,0.014508,-33.926701,-70.319098,-24.105346
34628,,9.373715,-1.856259,2.418902,-0.039221,0.047260,0.015776,-33.939105,-70.299715,-24.117061
34629,,9.383443,-1.817767,2.420397,-0.026262,0.040522,0.015677,-33.938773,-70.275438,-24.133398
34630,,9.374343,-1.802296,2.438473,-0.017696,0.032555,0.016609,-33.962232,-70.266656,-24.118874
34631,,9.349956,-1.739803,2.432778,-0.020043,0.026600,0.015683,-33.970755,-70.248996,-24.122019
34632,,9.356672,-1.771154,2.472701,-0.013293,0.016008,0.016444,-34.011158,-70.252262,-24.086503
34633,,9.352261,-1.758276,2.454763,-0.016551,0.014666,0.015144,-34.027578,-70.240444,-24.079133
34634,,9.366180,-1.745665,2.526084,-0.006234,0.009078,0.010344,-34.064005,-70.252878,-24.045228
34635,,9.335162,-1.737712,2.539465,-0.003652,0.001757,0.009428,-34.076992,-70.249017,-24.033653
34636,,9.353695,-1.727002,2.575603,-0.001668,-0.003214,0.001569,-34.110538,-70.275048,-23.999517
34637,,9.345927,-1.709384,2.590177,0.003722,-0.007432,-0.003252,-34.110766,-70.279617,-23.997010
34638,,9.376601,-1.729439,2.629660,0.009193,-0.012487,-0.012228,-34.128633,-70.313347,-23.971703
34639,,9.376762,-1.739818,2.681900,0.011622,-0.013297,-0.015163,-34.113820,-70.324528,-23.980361
34640,,9.396117,-1.726243,2.717045,0.022547,-0.016399,-0.023351,-34.101004,-70.370680,-23.982279
34641,,9.396917,-1.723520,2.716006,0.020874,-0.013691,-0.022064,-34.072010,-70.384255,-24.000367
34642,,9.428093,-1.741472,2.755228,0.026261,-0.017912,-0.026877,-34.054898,-70.434963,-23.999939
34643,,9.428584,-1.750083,2.807625,0.027163,-0.010677,-0.027078,-34.012793,-70.448699,-24.028106
34644,,9.460058,-1.755712,2.794162,0.025720,-0.009395,-0.028209,-33.980266,-70.492419,-24.043635
34645,,9.437976,-1.761005,2.791804,0.022758,-0.005987,-0.026324,-33.937334,-70.503668,-24.075341
34646,,9.457231,-1.746515,2.827851,0.019119,-0.005321,-0.026939,-33.902004,-70.539732,-24.096997
34647,,9.446735,-1.784264,2.829989,0.019261,0.000017,-0.025492,-33.856656,-70.547853,-24.133372
34648,,9.420594,-1.775214,2.809220,0.016529,0.001997,-0.026027,-33.798203,-70.586487,-24.181225
34649,,9.439503,-1.760895,2.846278,0.016136,0.009932,-0.025636,-33.745343,-70.589936,-24.227457
34650,,9.401272,-1.720050,2.822201,0.008932,0.011523,-0.020988,-33.674698,-70.614170,-24.295645
34651,,9.383498,-1.802160,2.793430,0.002793,0.012741,-0.024560,-33.628280,-70.615931,-24.343170
34652,,9.391517,-1.817284,2.779801,0.004605,0.015368,-0.024393,-33.563434,-70.635748,-24.404790
34653,,9.445044,-1.815125,2.770413,0.009532,0.014004,-0.024368,-33.512214,-70.636813,-24.453307
34654,,9.463644,-1.800944,2.808339,0.013387,0.017833,-0.026451,-33.429903,-70.648206,-24.530696
34655,,9.422308,-1.818123,2.771964,0.011038,0.017797,-0.027666,-33.369850,-70.648478,-24.587675
34656,,9.437977,-1.862062,2.796999,0.009225,0.015166,-0.027826,-33.285185,-70.667079,-24.670564
34657,,9.442188,-1.861935,2.764785,0.018679,0.020378,-0.027385,-33.218733,-70.665968,-24.729710
34658,,9.407467,-1.835551,2.760974,0.020557,0.023269,-0.021334,-33.136028,-70.677121,-24.803448
34659,,9.380724,-1.827047,2.742045,0.015645,0.018704,-0.021064,-33.081412,-70.674778,-24.851912
34660,,9.337913,-1.783768,2.752965,0.011385,0.022806,-0.018592,-33.022219,-70.679297,-24.905006
34661,,9.388195,-1.840659,2.731590,0.007966,0.023149,-0.011600,-32.981054,-70.671786,-24.943875
34662,,9.368825,-1.862550,2.751111,0.014703,0.024420,-0.011402,-32.928900,-70.681375,-24.986368
34663,,9.360354,-1.843439,2.768605,0.020921,0.022363,-0.011965,-32.880549,-70.674358,-25.024974
34664,,9.375033,-1.804035,2.734893,0.026819,0.022584,-0.005967,-32.838438,-70.684956,-25.048101
34665,,9.398225,-1.866841,2.746064,0.034694,0.023738,-0.008092,-32.786367,-70.676055,-25.082252
34666,,9.404815,-1.809801,2.727548,0.039922,0.021215,-0.004585,-32.744160,-70.669938,-25.100624
34667,,9.400572,-1.793633,2.710956,0.034324,0.019824,-0.007108,-32.697199,-70.662596,-25.129570
34668,,9.422898,-1.783408,2.715490,0.035763,0.018543,-0.005963,-32.654422,-70.669901,-25.149786
34669,,9.422434,-1.781949,2.718058,0.034985,0.022565,-0.004603,-32.608142,-70.660517,-25.177588
34670,,9.421891,-1.780778,2.720706,0.033089,0.020786,-0.000620,-32.592472,-70.652801,-25.168836
34671,,9.417591,-1.765150,2.703994,0.035669,0.019388,-0.001801,-32.552629,-70.643986,-25.189334
34672,,9.408980,-1.746544,2.721419,0.039065,0.020158,0.001249,-32.518082,-70.637056,-25.203075
34673,,9.370050,-1.707794,2.698224,0.033532,0.019042,0.004597,-32.488617,-70.626381,-25.213887
34674,,9.354838,-1.733512,2.683537,0.028842,0.018965,0.002149,-32.465792,-70.627678,-25.217086
34675,,9.346262,-1.715361,2.700485,0.029766,0.014359,0.002536,-32.439812,-70.619901,-25.226462
34676,,9.376599,-1.723613,2.689811,0.032324,0.018878,0.001058,-32.407488,-70.615216,-25.242439
34677,,9.382713,-1.678880,2.723714,0.033488,0.012837,-0.000962,-32.375896,-70.609264,-25.255519
34678,,9.364011,-1.689450,2.689302,0.033188,0.013990,-0.004427,-32.353266,-70.611674,-25.253444
34679,,9.416673,-1.700001,2.733780,0.030238,0.011481,-0.002266,-32.323048,-70.606722,-25.266980
34680,,9.404627,-1.666619,2.730827,0.027082,0.009268,-0.007720,-32.288615,-70.621407,-25.283675
34681,,9.378024,-1.659275,2.710815,0.025641,0.010543,-0.008862,-32.252787,-70.618899,-25.305947
34682,,9.382339,-1.660831,2.677800,0.017345,0.005209,-0.011655,-32.219562,-70.630884,-25.329818
34683,,9.359597,-1.668308,2.676499,0.008842,0.007515,-0.006468,-32.199283,-70.629072,-25.345824
34684,,9.362670,-1.693204,2.749992,0.011276,0.006692,-0.009380,-32.178546,-70.643828,-25.354252
34685,,9.363359,-1.680530,2.697151,0.008810,0.001311,-0.012040,-32.156018,-70.646793,-25.372597
34686,,9.351072,-1.658234,2.746388,0.009803,0.001763,-0.016097,-32.125664,-70.661157,-25.396447
34687,,9.371382,-1.706019,2.736094,0.007188,-0.003042,-0.020490,-32.096132,-70.668839,-25.423180
34688,,9.367459,-1.700687,2.770064,0.010673,-0.003127,-0.021582,-32.076983,-70.694009,-25.422351
34689,,9.396149,-1.765482,2.744561,0.010252,-0.007319,-0.026477,-32.041198,-70.705669,-25.453691
34690,,9.396816,-1.762339,2.744298,0.018724,-0.003709,-0.031961,-31.998574,-70.721967,-25.481672
34691,,9.355913,-1.790679,2.759128,0.024578,-0.009671,-0.031512,-31.949640,-70.736207,-25.518183
34692,,9.375050,-1.775101,2.795059,0.032205,-0.007086,-0.031202,-31.895269,-70.758634,-25.552332
34693,,9.383922,-1.789132,2.780078,0.032653,-0.008812,-0.025992,-31.848550,-70.770765,-25.581565
34694,,9.388984,-1.788889,2.745778,0.034842,-0.008199,-0.026491,-31.809210,-70.782270,-25.599365
34695,,9.397782,-1.803379,2.730799,0.036342,-0.009181,-0.019465,-31.769834,-70.792489,-25.618547
34696,,9.433023,-1.824039,2.737111,0.030664,-0.009717,-0.017864,-31.742341,-70.805586,-25.627743
34697,,9.379958,-1.821731,2.747545,0.038651,-0.007978,-0.008215,-31.716345,-70.811751,-25.631349
34698,,9.430112,-1.805344,2.717549,0.040930,-0.008235,-0.012851,-31.695783,-70.828172,-25.620272
34699,,9.403987,-1.797921,2.696010,0.039250,-0.010272,-0.001266,-31.681268,-70.833314,-25.611297
34700,,9.373474,-1.787817,2.708369,0.039639,-0.012289,-0.001928,-31.683146,-70.845691,-25.578799
34701,,9.370035,-1.772188,2.688543,0.041079,-0.013563,-0.000773,-31.671233,-70.852289,-25.565888
34702,,9.378563,-1.788653,2.673243,0.044710,-0.014223,-0.000121,-31.676536,-70.863347,-25.527651
34703,,9.363171,-1.741099,2.648670,0.040325,-0.015456,0.000894,-31.669154,-70.870325,-25.510344
34704,,9.404653,-1.719445,2.685942,0.037384,-0.017959,0.003058,-31.679738,-70.891414,-25.470123
34705,,9.351971,-1.707769,2.642196,0.028738,-0.015072,0.006490,-31.686596,-70.896559,-25.444738
34706,,9.366900,-1.680943,2.657902,0.029214,-0.017966,0.001694,-31.701694,-70.910092,-25.410244
34707,,9.379348,-1.712398,2.661200,0.027413,-0.020599,0.001538,-31.707201,-70.919379,-25.387096
34708,,9.398274,-1.699725,2.695838,0.027411,-0.020600,0.001542,-31.714138,-70.935090,-25.371006
34709,,9.421521,-1.690378,2.696296,0.026510,-0.021918,0.001466,-31.721133,-70.945071,-25.346909
34710,,9.410129,-1.657555,2.690131,0.024761,-0.019510,-0.003154,-31.736483,-70.961977,-25.311522
34711,,9.444166,-1.607334,2.687741,0.011621,-0.023193,-0.000121,-31.750994,-70.973022,-25.288468
34712,,9.501675,-1.632943,2.747810,0.000944,-0.021481,0.005546,-31.795541,-70.992536,-25.230994
34713,,9.431239,-1.718066,2.728629,-0.003990,-0.003244,0.000349,-31.802347,-70.993759,-25.225459
34714,,9.448690,-1.633541,2.756290,-0.017608,-0.016178,0.002976,-31.861332,-70.995886,-25.164340
34715,,9.440999,-1.616135,2.769412,-0.027234,-0.010178,-0.009882,-31.873332,-71.003392,-25.167294
34716,,9.445679,-1.619200,2.734004,-0.026488,-0.008295,-0.011537,-31.897000,-71.014045,-25.151110
34717,,9.436256,-1.539994,2.793666,-0.040339,-0.007639,-0.001299,-31.926548,-71.017712,-25.143356
34718,,9.330539,-1.711502,2.655849,-0.047678,-0.006636,-0.008451,-31.960786,-71.023748,-25.131984
34719,,9.483746,-1.789488,2.751193,-0.022585,-0.004174,-0.007743,-31.968108,-71.027653,-25.136916
34720,,9.549669,-1.810857,2.691158,-0.001219,0.001006,0.006456,-31.988080,-71.020009,-25.117879
34721,,9.563427,-1.796982,2.761965,-0.001974,0.012445,0.023331,-32.012870,-71.006238,-25.091876
34722,,9.692741,-1.981931,2.972823,-0.001587,0.035895,0.043106,-32.056866,-70.972496,-25.043696
34723,,9.746863,-2.016896,2.758622,-0.009251,0.032099,0.083187,-32.152550,-70.930796,-24.947091
34724,,9.499214,-1.619537,2.867922,-0.039275,0.068596,0.108127,-32.281887,-70.863898,-24.830253
34725,,9.554242,-1.804683,2.949106,-0.094594,0.057310,0.135669,-32.476138,-70.793693,-24.680949
34726,,9.707695,-2.147595,2.864650,-0.116411,0.075998,0.163082,-32.710444,-70.709359,-24.497838
34727,,9.545345,-2.253869,2.928476,-0.108501,0.090921,0.188188,-32.952059,-70.606211,-24.306621
34728,,9.448802,-2.189637,2.985860,-0.091776,0.101175,0.201603,-33.215364,-70.488403,-24.072574
34729,,9.390544,-2.079738,3.009180,-0.101019,0.094750,0.204803,-33.467024,-70.377519,-23.865779
34730,,9.356160,-1.950941,2.981360,-0.133934,0.108641,0.213122,-33.752643,-70.250628,-23.640475
34731,,9.212656,-2.014415,2.922334,-0.164715,0.116948,0.215396,-34.029617,-70.125060,-23.445199
34732,,9.175057,-2.091327,2.895506,-0.187909,0.121616,0.212422,-34.328576,-69.987754,-23.235651
34733,,9.106534,-2.158583,2.880867,-0.194042,0.121883,0.204951,-34.598521,-69.862419,-23.065394
34734,,9.120010,-2.281068,2.776946,-0.165994,0.119248,0.188122,-34.849982,-69.739060,-22.888939
34735,,9.054397,-2.297107,2.828881,-0.118972,0.120737,0.166606,-35.024515,-69.626300,-22.774223
34736,,9.053260,-2.170960,2.791139,-0.077630,0.115837,0.146888,-35.166452,-69.515176,-22.674982
34737,,9.103616,-2.028570,2.724712,-0.050128,0.110549,0.127335,-35.258751,-69.419919,-22.605826
34738,,9.132181,-2.064458,2.740702,-0.036953,0.113159,0.100730,-35.320970,-69.322094,-22.568855
34739,,9.174564,-2.045255,2.702339,-0.001985,0.111792,0.083921,-35.329780,-69.240494,-22.559439
34740,,9.168448,-2.064075,2.765504,0.030711,0.098239,0.074033,-35.344153,-69.166079,-22.513051
34741,,9.294952,-2.068341,3.003525,0.051829,0.096485,0.057414,-35.303007,-69.100416,-22.523970
34742,,9.349935,-2.041013,3.090140,0.064251,0.109838,0.036115,-35.234553,-69.038043,-22.550610
34743,,9.404961,-2.105670,3.012964,0.102165,0.147635,-0.001316,-35.049600,-68.967840,-22.684603
34744,,9.161958,-2.540487,3.069528,0.227508,0.152559,-0.056792,-34.753130,-68.898742,-22.845841
34745,,8.979809,-2.702696,3.166562,0.405298,0.101257,-0.089103,-34.329085,-68.878286,-23.049909
34746,,8.916489,-2.533232,3.304896,0.589173,0.070179,-0.159334,-33.756829,-68.890609,-23.297266
34747,,8.775823,-2.440809,3.510825,0.763581,0.043243,-0.230088,-33.000853,-68.940855,-23.637018
34748,,8.643832,-2.607266,3.608773,0.971650,0.024206,-0.294956,-32.080488,-69.007188,-24.022172
34749,,8.489730,-2.444901,4.093754,1.150078,0.004374,-0.343498,-30.982473,-69.106386,-24.490668
34750,,8.544687,-2.129153,4.608204,1.218668,-0.012556,-0.381563,-29.832193,-69.218436,-24.950105
34751,,8.657162,-2.142175,5.051544,1.231151,-0.003720,-0.419568,-28.577976,-69.336188,-25.535034
34752,,8.948529,-2.252317,5.454470,1.251299,0.023876,-0.454598,-27.259686,-69.433058,-26.153225
34753,,9.130805,-2.550971,5.633838,1.287366,0.039767,-0.486869,-25.831458,-69.536117,-26.888560
34754,,9.376177,-2.890456,5.667880,1.378198,0.073406,-0.507623,-24.314342,-69.604321,-27.623713
34755,,9.491670,-3.285555,5.730988,1.525143,0.126282,-0.527583,-22.620010,-69.657338,-28.496623
34756,,9.520789,-3.514016,5.806963,1.704617,0.161701,-0.534747,-20.806461,-69.657735,-29.370613
34757,,9.537279,-3.472112,6.075078,1.885046,0.203268,-0.541800,-18.836479,-69.652702,-30.317309
34758,,9.610886,-3.317313,6.449501,2.039185,0.251532,-0.538307,-16.789083,-69.597477,-31.212015
34759,,9.913027,-3.219641,7.057539,2.172624,0.324580,-0.519003,-14.645801,-69.498840,-32.168168
34760,,10.161800,-2.918778,7.547944,2.242683,0.426391,-0.486231,-12.535667,-69.307389,-32.989994
34761,,10.337303,-2.400700,7.950600,2.204933,0.540634,-0.436159,-10.469915,-69.054111,-33.845327
34762,,10.475035,-1.824713,8.212981,2.026853,0.664267,-0.377728,-8.633103,-68.697711,-34.506177
34763,,10.616782,-1.615431,8.617670,1.760654,0.783519,-0.315842,-7.017805,-68.278733,-35.154567
34764,,10.931707,-1.815569,8.806978,1.480496,0.924859,-0.250572,-5.728516,-67.729235,-35.566281
34765,,11.118719,-2.140057,9.000594,1.308985,1.080411,-0.184827,-4.593680,-67.123891,-35.979087
34766,,11.250973,-2.115608,9.273069,1.196570,1.207806,-0.118530,-3.697100,-66.371161,-36.166958
34767,,11.457452,-1.651880,9.393002,1.044600,1.340601,-0.043427,-2.945128,-65.607656,-36.330816
34768,,11.639140,-0.992022,9.288088,0.774198,1.494507,0.032876,-2.523220,-64.665224,-36.278766
34769,,11.614652,-0.785613,9.030076,0.436464,1.651880,0.110431,-2.322809,-63.718842,-36.219401
34770,,11.558370,-1.079717,9.107705,0.182397,1.808262,0.168281,-2.388151,-62.588054,-35.980934
34771,,11.737752,-1.692897,9.181276,0.042012,1.933898,0.234220,-2.528302,-61.477165,-35.790722
34772,,11.913689,-2.251941,9.353049,0.053149,2.082198,0.303524,-2.770405,-60.182530,-35.416015
34773,,12.030003,-2.319089,9.527042,0.119292,2.221707,0.393225,-2.976954,-58.901747,-35.092724
34774,,12.143329,-1.975342,9.472640,0.134100,2.354553,0.482530,-3.285773,-57.442949,-34.555458
34775,,12.265393,-1.494491,9.311726,0.052882,2.485053,0.572137,-3.623668,-56.003765,-34.110532
34776,,12.268295,-1.451693,9.117360,-0.063993,2.620668,0.654205,-4.106314,-54.384707,-33.584028
34777,,12.309966,-1.699120,8.968631,-0.147788,2.734159,0.733111,-4.597632,-52.792542,-33.074071
34778,,12.346639,-1.967384,8.968751,-0.175131,2.853680,0.814187,-5.161546,-51.031947,-32.504203
34779,,12.282946,-2.117400,8.935623,-0.160704,2.947297,0.892948,-5.672719,-49.304193,-31.953572
34780,,12.208104,-2.062318,8.929461,-0.146681,3.037905,0.961813,-6.214890,-47.430157,-31.363560
34781,,12.092438,-1.830406,8.852274,-0.162734,3.105061,1.033875,-6.716701,-45.597311,-30.795277
34782,,12.014928,-1.657924,8.643534,-0.244858,3.152685,1.088559,-7.290714,-43.650551,-30.204379
34783,,11.800701,-1.776687,8.170671,-0.296359,3.207481,1.134606,-7.830925,-41.744787,-29.652656
34784,,11.395842,-2.045216,7.811470,-0.253711,3.236083,1.162878,-8.355421,-39.747746,-29.101494
34785,,10.976609,-2.026860,7.866288,-0.158943,3.242047,1.185580,-8.762649,-37.811267,-28.590735
34786,,10.600472,-1.764124,8.106062,-0.108475,3.233602,1.192091,-9.147046,-35.818677,-28.087536
34787,,10.391299,-1.635944,8.055909,-0.116405,3.242433,1.191847,-9.471986,-33.876344,-27.629022
34788,,10.061373,-1.511081,7.984006,-0.142326,3.252919,1.185992,-9.814527,-31.880162,-27.186633
34789,,9.578457,-1.548751,7.745101,-0.179301,3.246948,1.174688,-10.119363,-29.932789,-26.785864
34790,,9.050433,-1.643708,7.654338,-0.176258,3.221309,1.143237,-10.421450,-27.966504,-26.412599
34791,,8.603151,-1.773425,7.439448,-0.149072,3.173250,1.091481,-10.648631,-26.066046,-26.092237
34792,,8.273126,-1.913753,7.416755,-0.071606,3.113063,1.038183,-10.832369,-24.180324,-25.804050
34793,,8.001935,-1.946675,7.443111,0.001965,3.039112,0.977218,-10.923930,-22.366020,-25.559942
34794,,7.808427,-1.965643,7.316024,0.086795,2.999752,0.920957,-10.972984,-20.566418,-25.346562
34795,,7.359177,-1.915338,7.258853,0.170592,2.959534,0.865561,-10.931501,-18.808747,-25.168380
34796,,6.911835,-1.701020,7.179309,0.234484,2.897000,0.816803,-10.867003,-17.088652,-25.009887
34797,,6.412391,-1.372019,7.107393,0.219363,2.834650,0.766706,-10.775327,-15.412287,-24.874894
34798,,6.045846,-1.362613,6.913286,0.179675,2.762076,0.723831,-10.722891,-13.787544,-24.755434
34799,,5.796364,-1.577328,6.658581,0.171911,2.673596,0.673247,-10.643292,-12.212106,-24.654715
34800,,5.692382,-1.723703,6.405998,0.200413,2.598686,0.634846,-10.565518,-10.697289,-24.567704
34801,,5.516798,-1.654839,6.342771,0.227175,2.524689,0.623558,-10.447499,-9.211247,-24.475751
34802,,5.369118,-1.616639,6.117572,0.208164,2.484080,0.642154,-10.363732,-7.768654,-24.369489
34803,,4.938544,-1.614791,5.882652,0.213825,2.454304,0.670974,-10.253496,-6.317758,-24.238848
34804,,4.224645,-1.642947,5.617286,0.223713,2.413715,0.710819,-10.160383,-4.915739,-24.083465
34805,,3.833673,-1.384263,5.563012,0.245538,2.334566,0.761847,-10.030600,-3.523764,-23.884581
34806,,3.590313,-1.043160,5.451797,0.200396,2.269431,0.815920,-9.947304,-2.198793,-23.651843
34807,,3.423400,-0.648629,5.254461,0.103449,2.222672,0.872586,-9.891684,-0.859669,-23.375573
34808,,3.116320,-0.656156,4.998403,-0.034651,2.208332,0.928635,-9.931459,0.437008,-23.072571
34809,,2.583309,-0.958914,4.606908,-0.113240,2.171901,0.975737,-9.986150,1.757877,-22.734007
34810,,2.049223,-1.344953,4.301641,-0.105255,2.108206,1.022068,-10.049357,3.004460,-22.371299
34811,,1.484666,-1.534228,4.116381,-0.019423,2.002694,1.051320,-10.031714,4.237880,-21.974336
34812,,1.030948,-1.786613,3.938228,0.136746,1.887604,1.071758,-9.937409,5.363140,-21.560900
34813,,0.652260,-1.842487,4.085399,0.365795,1.755759,1.068591,-9.679091,6.457196,-21.123545
34814,,0.325061,-1.492759,4.446805,0.595279,1.625004,1.044529,-9.305726,7.427797,-20.690219
34815,,0.037133,-0.868054,4.811961,0.749662,1.495703,1.008318,-8.811673,8.363466,-20.247348
34816,,-0.224874,-0.139483,5.084546,0.773229,1.381099,0.955193,-8.324662,9.181827,-19.826471
34817,,-0.509558,0.509064,5.449064,0.650280,1.254153,0.889757,-7.879849,9.963432,-19.414236
34818,,-0.749770,0.703340,5.464744,0.431611,1.152131,0.824674,-7.582779,10.636747,-19.035636
34819,,-1.438174,0.370903,5.597994,0.258054,1.058111,0.750449,-7.363354,11.292070,-18.678587
34820,,-1.795592,-0.394996,5.763143,0.232798,0.899653,0.658908,-7.183211,11.808907,-18.369141
34821,,-1.596178,-0.741596,6.039327,0.369414,0.741040,0.558033,-6.910691,12.267764,-18.094832
34822,,-1.525566,-0.780329,6.247199,0.559514,0.635617,0.465456,-6.556785,12.620952,-17.873383
34823,,-1.807023,-0.279062,6.473624,0.747488,0.528227,0.378688,-6.082810,12.943844,-17.683299
34824,,-2.224299,0.506944,6.724245,0.828380,0.428659,0.284174,-5.591231,13.166930,-17.548446
34825,,-2.463838,1.157585,6.842684,0.792142,0.322216,0.173339,-5.113780,13.358133,-17.461454
34826,,-2.626610,1.812505,6.749333,0.716136,0.230727,0.035784,-4.712850,13.456455,-17.456463
34827,,-2.756084,2.128899,6.853724,0.610880,0.135698,-0.087685,-4.371996,13.528050,-17.511226
34828,,-2.699730,2.118892,7.171359,0.477534,0.041177,-0.201049,-4.132941,13.510881,-17.633264
34829,,-2.532720,1.949580,7.791423,0.293937,-0.058255,-0.277989,-3.997736,13.464326,-17.791155
34830,,-2.279622,1.900515,8.335877,0.010242,-0.138881,-0.337513,-4.038071,13.341709,-17.983568
34831,,-2.152213,1.936077,8.868869,-0.376642,-0.192319,-0.392988,-4.300657,13.213462,-18.203017
34832,,-2.001243,1.938431,9.116348,-0.815555,-0.230001,-0.461040,-4.823792,13.032831,-18.460376
34833,,-1.930912,1.924081,9.077043,-1.267006,-0.272960,-0.521600,-5.610547,12.847978,-18.748068
34834,,-1.828499,1.875776,9.063756,-1.713806,-0.311733,-0.560886,-6.652539,12.608826,-19.051743
34835,,-1.789556,1.855892,9.192927,-2.186494,-0.348215,-0.604697,-7.971497,12.365015,-19.374558
34836,,-1.708229,1.970167,9.237280,-2.748044,-0.400912,-0.608177,-9.600302,12.058535,-19.684595
34837,,-1.685150,2.218880,9.139791,-3.484259,-0.472726,-0.575952,-11.650153,11.729840,-19.961766
34838,,-1.766527,2.862356,9.194277,-4.508987,-0.596366,-0.473625,-14.253675,11.310908,-20.144808
34839,,-1.510751,3.597559,9.249701,-5.900893,-0.703903,-0.331128,-17.644416,10.869694,-20.214402
34840,,-1.082928,3.930124,9.063402,-7.550408,-0.712945,-0.183261,-21.936917,10.426217,-20.162444
34841,,-0.801901,3.727582,8.068042,-9.327660,-0.655849,-0.042470,-27.252762,10.073674,-20.022545
34842,,-0.570738,3.075287,6.540918,-11.100065,-0.572571,0.136116,-33.536280,9.807761,-19.770617
34843,,-0.343290,1.978642,4.529947,-12.757418,-0.436799,0.341942,-40.788636,9.726619,-19.455415
34844,,-0.173175,0.593714,2.132045,-14.323874,-0.286535,0.585349,-48.892904,9.825330,-19.079373
34845,,-0.226738,-1.549867,-0.743635,-15.550009,-0.091082,0.819395,-57.741417,10.171174,-18.748974
34846,,-0.686010,-4.146173,-3.854133,-16.153986,0.072776,0.990792,-66.914708,10.672846,-18.501511
34847,,-1.136674,-6.376949,-6.101621,-16.197952,0.222507,1.115238,-76.175496,11.320481,-18.415741
34848,,-1.772799,-8.417895,-8.379918,-15.703600,0.276493,1.183271,-85.152849,11.996366,-18.450131
34849,,-2.186068,-10.571545,-10.032193,-14.806825,0.338536,1.186252,-93.673313,12.680022,-18.639093
34850,,-2.661762,-13.106167,-11.059476,-13.493807,0.406384,1.087796,-101.462098,13.249962,-18.953775
34851,,-3.331481,-14.395607,-11.434792,-11.801715,0.399167,0.944810,-108.306271,13.717264,-19.322364
34852,,-3.335501,-14.819886,-11.124932,-10.010212,0.334082,0.786451,-114.123669,14.051050,-19.673803
34853,,-3.102042,-14.945932,-10.210406,-8.205556,0.286418,0.628082,-118.898866,14.303126,-19.990040
34854,,-2.917534,-14.357763,-8.920645,-6.430478,0.277812,0.485248,-122.657541,14.442712,-20.280726
34855,,-2.586456,-12.361176,-7.622336,-4.989970,0.269651,0.388723,-125.578138,14.543889,-20.541480
34856,,-2.376116,-9.970027,-6.846274,-3.910194,0.229577,0.335762,-127.878098,14.600667,-20.772082
34857,,-2.154692,-8.180877,-6.637927,-3.379281,0.213921,0.297631,-129.863409,14.659996,-20.981228
34858,,-2.312181,-7.669037,-6.905609,-3.040679,0.159997,0.265511,-131.651481,14.696475,-21.158451
34859,,-2.346912,-7.874681,-7.447575,-2.709413,0.096514,0.239782,-133.235302,14.764025,-21.296646
34860,,-2.336073,-8.486879,-7.911909,-2.235748,0.037373,0.197087,-134.542790,14.811785,-21.396544
34861,,-2.341188,-8.739168,-8.195192,-1.609434,0.003253,0.153399,-135.478132,14.876093,-21.462503
34862,,-2.297562,-8.519824,-8.161609,-0.989529,-0.024412,0.111908,-136.055910,14.911805,-21.502748
34863,,-2.211753,-7.891881,-7.969116,-0.468465,-0.047563,0.083029,-136.324850,14.967896,-21.519108
34864,,-2.106336,-7.044706,-7.626642,-0.133673,-0.059639,0.074093,-136.404007,15.002612,-21.529071
34865,,-2.046599,-6.456121,-7.367742,0.026593,-0.066748,0.063182,-136.385135,15.058772,-21.529259
34866,,-2.055555,-6.305854,-7.336398,0.111479,-0.053192,0.048814,-136.321973,15.080770,-21.531087
34867,,-2.166906,-6.718774,-7.408082,0.260586,-0.057178,0.033186,-136.166668,15.121094,-21.522182
34868,,-2.171186,-7.323919,-7.622468,0.564867,-0.047509,0.000928,-135.839337,15.121748,-21.505761
34869,,-2.266014,-7.896007,-7.753079,1.018431,-0.028233,-0.034126,-135.245384,15.123124,-21.479849
34870,,-2.357682,-8.158266,-7.823135,1.572253,-0.012118,-0.072769,-134.336359,15.079005,-21.446861
34871,,-2.340930,-8.706486,-7.933665,2.241073,0.006886,-0.130977,-133.035516,15.025555,-21.396292
34872,,-2.324166,-9.757266,-8.223630,3.149364,0.038084,-0.210603,-131.214377,14.901827,-21.331402
34873,,-2.528531,-11.098804,-8.812611,4.405315,0.075820,-0.334144,-128.662925,14.730712,-21.238630
34874,,-2.779732,-12.259829,-9.380132,5.980979,0.091348,-0.474062,-125.204428,14.461952,-21.114696
34875,,-3.016937,-13.279189,-10.146498,7.849498,0.089370,-0.650293,-120.662532,14.125003,-20.949491
34876,,-3.153879,-14.127042,-10.922010,9.916371,0.072774,-0.832565,-114.935729,13.662751,-20.759576
34877,,-3.117018,-14.323085,-11.359359,12.024831,0.039035,-1.021805,-107.995983,13.113400,-20.559581
34878,,-3.053850,-14.022036,-12.431809,14.173245,-0.000122,-1.187963,-99.844123,12.431481,-20.394111
34879,,-3.083716,-13.658436,-13.335744,16.301098,-0.051729,-1.301620,-90.479417,11.695078,-20.293224
34880,,-2.782729,-13.226882,-13.672180,18.374042,-0.081451,-1.329254,-79.973804,10.911142,-20.316278
34881,,-1.805987,-11.266093,-13.640656,20.388111,-0.073536,-1.238579,-68.316480,10.220076,-20.468888
34882,,-0.781478,-7.495946,-12.688118,22.107939,0.043836,-1.069081,-55.740735,9.669604,-20.793347
34883,,-0.496206,-2.753007,-11.525720,23.348949,0.281801,-0.889238,-42.434805,9.391365,-21.250698
34884,,-0.474319,1.893937,-8.460592,23.638551,0.531881,-0.698089,-29.025083,9.382184,-21.773883
34885,,-0.474766,7.441451,-3.973798,22.508499,0.680493,-0.494001,-16.193167,9.631514,-22.186392
34886,,-0.948621,11.967262,2.257359,20.033405,0.829440,-0.252854,-4.803214,10.048717,-22.433190
34887,,-1.875295,14.822431,6.444539,16.211769,0.789893,-0.033794,4.485773,10.498215,-22.451312
34888,,-1.724199,16.476134,10.331112,11.734573,0.760966,0.198310,11.210505,10.891699,-22.286183
34889,,-1.393358,16.538971,11.494219,7.394315,0.757034,0.245318,15.497464,11.278032,-22.042646
34890,,-2.194769,14.540835,10.703015,3.916969,0.804367,0.163606,17.773416,11.669001,-21.820676
34891,,-2.697115,10.779813,9.171164,1.666395,0.790201,0.023072,18.764548,12.091456,-21.660940
34892,,-2.660288,6.295473,8.152092,0.564615,0.715871,-0.052857,19.108879,12.465520,-21.554433
34893,,-2.080470,2.268609,8.020503,0.482736,0.560330,-0.065584,19.405093,12.777625,-21.480465
34894,,-1.604839,0.416888,8.246664,1.025734,0.384612,-0.018968,20.007318,12.965811,-21.414562
34895,,-1.491803,1.587432,8.703275,1.590423,0.239706,0.026527,20.936821,13.085743,-21.348905
34896,,-1.756679,4.335570,9.195589,1.625298,0.184427,0.061666,21.882162,13.148241,-21.276365
34897,,-1.916015,6.075846,9.306637,1.052327,0.198002,0.075821,22.508397,13.233389,-21.189407
34898,,-2.049655,6.299186,8.948522,0.207677,0.206946,0.078159,22.647089,13.302396,-21.100415
34899,,-1.979519,5.003338,8.060936,-0.541451,0.194121,0.076907,22.360432,13.384784,-21.013222
34900,,-1.969849,3.519917,7.480512,-0.935441,0.161482,0.082566,21.844858,13.429461,-20.931720
34901,,-2.006431,2.100761,6.972185,-0.905842,0.126170,0.083983,21.346745,13.475480,-20.856707
34902,,-1.982960,1.346000,7.091083,-0.567904,0.057921,0.088141,21.037061,13.465485,-20.795289
34903,,-1.857277,1.366796,7.283069,-0.145154,-0.012029,0.110852,20.971317,13.432806,-20.735182
34904,,-1.728539,2.110165,7.468258,0.182792,-0.067661,0.139604,21.090451,13.345826,-20.672650
34905,,-1.924102,3.298768,7.413725,0.252587,-0.114020,0.160952,21.253741,13.248107,-20.606868
34906,,-2.008451,4.524712,7.355618,0.017227,-0.172386,0.166466,21.275808,13.099691,-20.552340
34907,,-1.946480,5.141710,7.243352,-0.500142,-0.210109,0.155859,21.002281,12.951700,-20.509751
34908,,-1.822573,4.557658,6.651163,-1.024545,-0.273348,0.165973,20.424990,12.750171,-20.474448
34909,,-1.687178,3.920364,6.224133,-1.462196,-0.317382,0.160845,19.596490,12.544289,-20.447756
34910,,-1.478831,2.487610,5.432515,-1.644805,-0.373400,0.157010,18.661539,12.291754,-20.430818
34911,,-1.363144,1.231423,4.986709,-1.526196,-0.458285,0.169557,17.793090,12.008534,-20.418624
34912,,-1.167458,0.786303,4.702585,-1.250245,-0.572495,0.195030,17.082756,11.641804,-20.408326
34913,,-0.880916,1.019629,4.390140,-1.035674,-0.693119,0.247573,16.497426,11.217237,-20.384921
34914,,-0.757043,1.943265,3.800479,-1.007719,-0.831011,0.308730,15.930842,10.690794,-20.345660
34915,,-0.616027,2.978991,3.340741,-1.224541,-0.982260,0.356479,15.241357,10.090458,-20.297427
34916,,-0.290069,3.424807,2.638002,-1.661599,-1.120986,0.407261,14.305169,9.390362,-20.232472
34917,,0.007161,2.733055,1.500571,-2.093573,-1.236631,0.422771,13.120065,8.641307,-20.162218
34918,,0.160965,0.843512,0.680496,-2.253092,-1.375870,0.430915,11.847322,7.798820,-20.087849
34919,,0.315694,-1.219200,0.764322,-1.940469,-1.575755,0.410602,10.746130,6.864177,-20.031395
34920,,0.741422,-2.113195,1.803858,-1.304371,-1.809322,0.376449,10.008994,5.786214,-20.003005
34921,,1.703710,-1.660075,3.012189,-0.667323,-2.001235,0.383498,9.632180,4.615745,-19.979747
34922,,2.390324,-0.247116,4.036087,-0.307531,-2.129432,0.412533,9.462705,3.352796,-19.946777
34923,,2.612071,0.836797,3.952810,-0.356790,-2.186197,0.486090,9.265177,2.068411,-19.873458
34924,,2.266974,0.711943,3.686770,-0.516646,-2.258986,0.562639,8.975878,0.716320,-19.758265
34925,,2.233748,0.370607,4.130912,-0.583414,-2.407098,0.597924,8.645044,-0.702194,-19.628699
34926,,3.075289,-0.050972,4.550050,-0.531651,-2.568411,0.637383,8.340378,-2.236594,-19.482809
34927,,3.865681,-0.155332,5.134963,-0.331311,-2.689520,0.663286,8.145647,-3.819282,-19.325128
34928,,4.316631,0.439836,6.084015,-0.141400,-2.778175,0.668442,8.054482,-5.477097,-19.167806
34929,,4.815392,1.286326,6.545978,-0.155858,-2.850223,0.652974,7.952525,-7.149483,-19.021522
34930,,5.315391,1.634963,6.315455,-0.427887,-2.919790,0.646718,7.689818,-8.888738,-18.878744
34931,,5.566029,1.394100,6.182537,-0.739966,-2.965472,0.649380,7.243381,-10.624906,-18.726107
34932,,5.569975,0.670436,7.083701,-0.884541,-3.054031,0.618599,6.710671,-12.440172,-18.582018
34933,,5.971457,-0.045729,8.404070,-0.794503,-3.132020,0.572860,6.228874,-14.263353,-18.452224
34934,,6.351431,-1.158798,9.692133,-0.448255,-3.226979,0.508180,5.948116,-16.171428,-18.353236
34935,,7.358737,-1.567143,10.408481,0.090939,-3.306327,0.454151,5.983847,-18.085712,-18.285978
34936,,8.153684,-0.736556,10.565813,0.529057,-3.336759,0.391388,6.278886,-20.052465,-18.263151
34937,,8.516075,0.591016,10.270174,0.667310,-3.340421,0.336273,6.673179,-21.979057,-18.286811
34938,,8.618968,1.942755,10.049289,0.508530,-3.328564,0.284074,6.988927,-23.937526,-18.353990
34939,,8.291786,2.655195,10.139042,0.145212,-3.280044,0.238383,7.118664,-25.822607,-18.456432
34940,,7.691548,2.455274,10.880174,-0.165373,-3.240127,0.205243,7.078742,-27.727612,-18.579204
34941,,7.844655,1.494846,11.413789,-0.330910,-3.280268,0.161548,6.966714,-29.607515,-18.733784
34942,,8.913221,0.612864,11.407000,-0.298743,-3.302121,0.112095,6.891442,-31.542382,-18.921449
34943,,9.841670,0.806110,11.152267,-0.208652,-3.269595,0.065207,6.893340,-33.409922,-19.141256
34944,,10.227283,1.465892,10.625301,-0.268979,-3.206313,0.038000,6.872886,-35.286547,-19.377837
34945,,10.190019,1.793295,9.937761,-0.459699,-3.129712,0.019063,6.758947,-37.071642,-19.625233
34946,,9.906904,1.411231,9.389391,-0.671035,-3.068450,-0.001169,6.532466,-38.869395,-19.880510
34947,,9.726708,0.587287,9.073602,-0.732080,-3.048355,-0.017881,6.285046,-40.607205,-20.144300
34948,,9.472829,0.098747,9.660060,-0.641079,-3.059628,-0.030575,6.099297,-42.400517,-20.416358
34949,,10.110974,-0.234952,9.845965,-0.475983,-3.123966,-0.059924,6.038250,-44.180066,-20.720084
34950,,11.143408,-0.006414,9.842196,-0.314244,-3.111507,-0.091824,6.065366,-46.000392,-20.651911
34951,,11.756702,0.848590,9.650464,-0.312416,-3.039512,-0.136140,6.168074,-47.727086,-21.033287
34952,,11.874275,1.633254,8.975596,-0.556032,-2.944447,-0.163126,6.128797,-49.447692,-21.124873
34953,,11.609855,1.857005,8.159760,-0.966248,-2.824851,-0.196215,5.914189,-51.048971,-21.561436
34954,,10.989409,1.590252,7.477354,-1.386301,-2.720035,-0.227576,5.456468,-52.640250,-21.770103
34955,,10.222494,1.183589,7.372183,-1.742307,-2.684322,-0.256609,4.841190,-54.162354,-22.242995
34956,,10.187477,0.232068,7.116933,-1.958027,-2.690775,-0.267631,4.088593,-55.740292,-22.525326
34957,,10.120109,-0.763032,7.448052,-1.917462,-2.634876,-0.280806,3.380290,-57.239772,-22.989469
34958,,10.506528,-1.339463,7.900726,-1.732029,-2.664633,-0.295796,2.772165,-58.806807,-23.313215
34959,,11.477751,-1.332095,8.110708,-1.524972,-2.653574,-0.292017,2.296020,-60.321805,-23.770501
34960,,12.110707,-0.746596,8.234070,-1.458525,-2.556209,-0.295362,1.844440,-61.828898,-24.117281
34961,,12.263569,0.078106,8.108177,-1.631529,-2.433325,-0.295437,1.306697,-63.221402,-24.561071
34962,,12.067628,0.557916,7.509665,-2.062236,-2.306363,-0.292130,0.492821,-64.587223,-24.901377
34963,,11.808433,0.569796,6.863718,-2.584254,-2.187015,-0.302904,-0.617953,-65.843908,-25.305176
34964,,11.605100,0.291831,6.232018,-3.078330,-2.071755,-0.331044,-2.021918,-67.079717,-25.645353
34965,,11.312091,-0.016633,5.786643,-3.461629,-1.969793,-0.358708,-3.645961,-68.220404,-26.030327
34966,,11.022369,-0.363558,5.539245,-3.746382,-1.901719,-0.369151,-5.481620,-69.365900,-26.327576
34967,,11.011953,-0.694821,5.515072,-3.941378,-1.844550,-0.369360,-7.497357,-70.443006,-26.582336
34968,,10.966787,-1.082983,5.472513,-4.090031,-1.769872,-0.370438,-9.676342,-71.517343,-26.738784
34969,,10.967071,-1.595232,5.317933,-4.174096,-1.684188,-0.349741,-12.028973,-72.505655,-26.776320
34970,,10.979369,-2.269059,5.126777,-4.180161,-1.573095,-0.340762,-14.482961,-73.464790,-26.709783
34971,,10.906437,-2.994242,4.892414,-4.074230,-1.455733,-0.336784,-16.966673,-74.322546,-26.550946
34972,,10.730554,-3.723527,4.640673,-3.854398,-1.327681,-0.331927,-19.390660,-75.138528,-26.334411
34973,,10.523233,-4.370621,4.493923,-3.522072,-1.208741,-0.331852,-21.671366,-75.856102,-26.059687
34974,,10.403652,-4.723740,4.364007,-3.110782,-1.095994,-0.333675,-23.741603,-76.539687,-25.776162
34975,,10.290049,-4.960108,4.340750,-2.645866,-0.986103,-0.331352,-25.541381,-77.134458,-25.481337
34976,,10.179197,-5.074206,4.294679,-2.161542,-0.880510,-0.329478,-27.058471,-77.697127,-25.208847
34977,,10.105031,-5.025577,4.494316,-1.662476,-0.772707,-0.319615,-28.229691,-78.176162,-24.981873
34978,,10.043912,-4.706854,4.758460,-1.192270,-0.651488,-0.326114,-29.032348,-78.615766,-24.883095
34979,,10.090013,-4.323895,5.221551,-0.796699,-0.514169,-0.338772,-29.377611,-78.969405,-24.993139
34980,,10.023869,-3.700970,5.831466,-0.501894,-0.399148,-0.332604,-29.442122,-79.280234,-25.244982
34981,,9.904322,-2.293114,6.241798,-0.322202,-0.294886,-0.324332,-29.223063,-79.520348,-25.652344
34982,,10.432581,-0.127858,7.935458,-0.677274,-0.169065,-0.241124,-29.265745,-79.685795,-26.030241
34983,,10.597751,-0.057675,7.384287,-1.220008,-0.011912,-0.182499,-29.501571,-79.744835,-26.497693
34984,,10.330947,-1.036890,6.202210,-1.617063,0.104831,-0.144176,-29.900829,-79.742448,-27.055798
34985,,10.361486,-2.503759,5.065122,-1.727579,0.174870,-0.115456,-30.318819,-79.690699,-27.633681
34986,,10.345956,-3.450658,4.047472,-1.559696,0.241193,-0.101957,-30.577562,-79.606296,-28.303118
34987,,10.426772,-3.804854,3.424614,-1.358009,0.252209,-0.038631,-30.872434,-79.495079,-28.791187
34988,,10.400464,-4.095774,2.885949,-1.111898,0.286909,0.019264,-31.134765,-79.350760,-29.199350
34989,,10.233291,-4.112366,2.609549,-0.859826,0.305619,0.070520,-31.350237,-79.181747,-29.478168
34990,,10.174717,-4.127247,2.366609,-0.591769,0.304222,0.127789,-31.578109,-78.994982,-29.620212
34991,,10.189727,-4.121056,2.122413,-0.289037,0.308605,0.174111,-31.722618,-78.793741,-29.638424
34992,,10.303156,-3.872883,1.937526,0.005706,0.318699,0.225027,-31.833627,-78.569139,-29.549875
34993,,10.213568,-3.319972,1.811801,0.228216,0.346191,0.267099,-31.845043,-78.321507,-29.401476
34994,,10.057557,-2.685972,1.723152,0.321630,0.373954,0.305773,-31.884749,-78.044470,-29.201698
34995,,9.844010,-2.233541,1.764740,0.312942,0.399209,0.334889,-31.918505,-77.750488,-28.980515
34996,,9.697855,-1.980843,1.805233,0.228385,0.418469,0.352323,-32.044419,-77.437167,-28.745366
34997,,9.821539,-2.047795,1.672613,0.116854,0.490406,0.365931,-32.119219,-77.089317,-28.596758
34998,,9.748826,-2.242781,1.667608,0.028190,0.564652,0.369680,-32.189788,-76.699504,-28.532916
34999,,9.347126,-2.548430,1.669143,0.001513,0.567980,0.372244,-32.233008,-76.312044,-28.484299
35000,,9.249516,-2.621183,1.608838,0.064572,0.517358,0.362614,-32.321792,-75.946971,-28.383055
35001,,9.157920,-2.404921,1.565702,0.153747,0.481612,0.346019,-32.326576,-75.609337,-28.283967
35002,,9.083697,-1.914854,1.522502,0.228323,0.441154,0.323750,-32.336538,-75.292935,-28.164440
35003,,8.857398,-1.465215,1.612870,0.240036,0.399657,0.300403,-32.299185,-75.008955,-28.057529
35004,,8.777376,-1.198333,1.624119,0.203120,0.347283,0.273325,-32.336063,-74.753675,-27.923233
35005,,8.783278,-1.151540,1.742655,0.130027,0.293348,0.250319,-32.387858,-74.536480,-27.788997
35006,,8.768361,-1.300874,1.853659,0.056421,0.242259,0.226019,-32.536106,-74.346822,-27.623546
35007,,8.860906,-1.458316,1.989813,0.004088,0.191968,0.200106,-32.678629,-74.193907,-27.469787
35008,,8.997856,-1.580000,2.074780,-0.026342,0.150389,0.176838,-32.883840,-74.063692,-27.292430
35009,,9.140083,-1.586051,2.156593,-0.044587,0.117744,0.150046,-33.045209,-73.961803,-27.147895
35010,,9.269236,-1.600464,2.164860,-0.052352,0.097418,0.131095,-33.240758,-73.871028,-26.996606
35011,,9.301074,-1.561924,2.142239,-0.045015,0.088644,0.106599,-33.358519,-73.796507,-26.897614
35012,,9.257394,-1.590649,2.109448,-0.023230,0.074437,0.089019,-33.488834,-73.729815,-26.798959
35013,,9.237199,-1.534913,2.042681,0.000245,0.042549,0.075068,-33.577266,-73.687174,-26.703457
35014,,9.311429,-1.528744,2.037671,0.025324,0.013977,0.059640,-33.696850,-73.658776,-26.583264
35015,,9.391314,-1.495393,2.118354,0.046054,-0.005428,0.048526,-33.767149,-73.647344,-26.479294
35016,,9.466862,-1.502282,2.162094,0.060086,-0.026243,0.043146,-33.883192,-73.643457,-26.340206
35017,,9.565326,-1.530762,2.311717,0.061496,-0.038107,0.040963,-33.967856,-73.649877,-26.212054
35018,,9.596917,-1.571176,2.399773,0.063190,-0.046027,0.037968,-34.093958,-73.656970,-26.062626
35019,,9.619899,-1.595581,2.503871,0.067430,-0.043199,0.045175,-34.187836,-73.664312,-25.921353
35020,,9.606647,-1.639311,2.534054,0.070393,-0.045749,0.047288,-34.323869,-73.668061,-25.756777
35021,,9.630115,-1.591594,2.603122,0.063485,-0.040502,0.057100,-34.436475,-73.670099,-25.598364
35022,,9.629282,-1.637601,2.530984,0.058143,-0.037240,0.063829,-34.596690,-73.664181,-25.412170
35023,,9.691138,-1.671920,2.554358,0.052722,-0.022749,0.072087,-34.719776,-73.652749,-25.249268
35024,,9.650228,-1.624559,2.478858,0.041734,-0.003618,0.089482,-34.891429,-73.622238,-25.061061
35025,,9.636539,-1.543826,2.494691,0.006608,0.011607,0.100311,-35.046891,-73.585155,-24.891919
35026,,9.620513,-1.579746,2.477614,-0.030247,0.029465,0.112542,-35.256171,-73.531148,-24.708662
35027,,9.671235,-1.574208,2.417167,-0.059879,0.040789,0.118384,-35.443716,-73.474116,-24.545714
35028,,9.699157,-1.579428,2.354713,-0.100665,0.054565,0.126859,-35.683708,-73.403270,-24.372297
35029,,9.636717,-1.653890,2.386722,-0.128535,0.068551,0.132992,-35.899358,-73.328082,-24.220967
35030,,9.587769,-1.688247,2.385985,-0.148713,0.079305,0.133604,-36.144993,-73.243171,-24.070531
35031,,9.586465,-1.778197,2.391703,-0.171737,0.081465,0.136433,-36.372651,-73.160496,-23.932397
35032,,9.598689,-1.843736,2.416654,-0.187770,0.094928,0.138508,-36.625870,-73.066377,-23.797371
35033,,9.508184,-1.897126,2.376884,-0.186160,0.102653,0.128906,-36.823017,-72.976226,-23.699659
35034,,9.475241,-1.963742,2.344779,-0.172072,0.102805,0.130197,-37.042742,-72.881099,-23.585983
35035,,9.440728,-1.915618,2.382419,-0.148537,0.103112,0.130256,-37.216696,-72.790068,-23.489898
35036,,9.449350,-1.930645,2.286907,-0.127841,0.105305,0.124062,-37.394719,-72.695647,-23.396905
35037,,9.434507,-1.985921,2.292898,-0.108195,0.101583,0.120216,-37.529940,-72.608643,-23.317099
35038,,9.438340,-2.015119,2.284258,-0.081136,0.101912,0.113183,-37.666614,-72.519459,-23.238406
35039,,9.413710,-1.962576,2.255063,-0.057927,0.098249,0.108111,-37.757369,-72.438102,-23.174963
35040,,9.392508,-1.941493,2.295802,-0.044047,0.093779,0.100074,-37.861761,-72.357198,-23.105643
35041,,9.419542,-1.958722,2.290606,-0.025825,0.091358,0.095130,-37.921957,-72.283461,-23.054926
35042,,9.411938,-1.951637,2.280657,-0.020060,0.086125,0.087621,-38.001841,-72.210410,-22.997099
35043,,9.423390,-1.918764,2.256034,-0.007396,0.087566,0.081904,-38.036168,-72.143015,-22.962435
35044,,9.421797,-1.869647,2.281851,-0.013407,0.082202,0.080271,-38.104997,-72.074398,-22.912156
35045,,9.441077,-1.868702,2.292377,-0.026187,0.080686,0.074347,-38.146459,-72.012754,-22.881296
35046,,9.442708,-1.875956,2.265274,-0.033466,0.081218,0.069188,-38.211721,-71.948639,-22.845156
35047,,9.448107,-1.899106,2.255946,-0.037054,0.081143,0.064542,-38.244863,-71.890245,-22.829587
35048,,9.429435,-1.857497,2.243043,-0.039723,0.071241,0.064176,-38.316551,-71.832539,-22.790768
35049,,9.435186,-1.880522,2.232466,-0.049834,0.068477,0.062781,-38.367875,-71.780450,-22.763770
35050,,9.467248,-1.911203,2.242464,-0.060583,0.063079,0.058769,-38.452345,-71.728519,-22.722748
35051,,9.449331,-1.958910,2.279353,-0.053317,0.056571,0.052256,-38.503722,-71.685499,-22.697792
35052,,9.474670,-1.955963,2.252768,-0.043043,0.052730,0.049524,-38.575656,-71.641634,-22.660484
35053,,9.413926,-1.962560,2.300496,-0.029853,0.046295,0.042991,-38.611799,-71.606508,-22.637414
35054,,9.408664,-1.950420,2.286312,-0.013110,0.039901,0.035274,-38.661193,-71.573643,-22.603371
35055,,9.398711,-1.937630,2.305845,-0.006733,0.032088,0.028592,-38.679829,-71.550014,-22.584795
35056,,9.411621,-1.915769,2.328214,-0.001808,0.025574,0.026742,-38.725657,-71.526722,-22.549612
35057,,9.388068,-1.926292,2.326940,-0.006908,0.021583,0.013412,-38.735263,-71.513221,-22.540670
35058,,9.387442,-1.927196,2.328716,-0.006365,0.018964,0.002567,-38.757996,-71.501683,-22.532500
35059,,9.367800,-1.952244,2.344915,0.001639,0.020356,0.000358,-38.746584,-71.493407,-22.540568
35060,,9.343316,-1.976683,2.395155,0.010248,0.013227,-0.012725,-38.745455,-71.490052,-22.546154
35061,,9.343404,-1.974599,2.396528,0.021718,0.009405,-0.023699,-38.702176,-71.495290,-22.575707
35062,,9.330196,-1.955543,2.448256,0.028178,0.006843,-0.034535,-38.667380,-71.502638,-22.608784
35063,,9.303197,-1.959701,2.480152,0.031991,0.005560,-0.049930,-38.587178,-71.518961,-22.671072
35064,,9.276510,-1.962803,2.511728,0.029678,-0.000379,-0.056992,-38.529221,-71.537607,-22.724992
35065,,9.320965,-1.995913,2.500912,0.023469,0.000845,-0.072111,-38.428876,-71.563899,-22.813659
35066,,9.298000,-2.053392,2.479837,0.038474,-0.002949,-0.084217,-38.331136,-71.593332,-22.903957
35067,,9.350440,-1.986371,2.523269,0.046734,-0.002876,-0.088871,-38.198187,-71.627137,-23.012914
35068,,9.342260,-1.976968,2.592139,0.040932,-0.003637,-0.098885,-38.078452,-71.661919,-23.125766
35069,,9.377308,-2.046837,2.579532,0.036933,-0.001759,-0.108618,-37.922113,-71.702024,-23.265244
35070,,9.379608,-2.035367,2.580245,0.040028,0.000211,-0.114814,-37.775669,-71.740445,-23.406346
35071,,9.403028,-2.031029,2.636638,0.038109,0.003423,-0.120878,-37.595014,-71.782250,-23.570663
35072,,9.374159,-2.011605,2.650528,0.030994,0.003307,-0.118498,-37.444005,-71.820244,-23.720491
35073,,9.385119,-2.015462,2.635416,0.028646,0.008477,-0.123773,-37.257947,-71.860449,-23.896136
35074,,9.394561,-2.035858,2.672684,0.015675,0.013523,-0.119704,-37.100597,-71.893788,-24.065086
35075,,9.392821,-2.008376,2.656613,0.012027,0.019378,-0.112631,-36.926770,-71.924836,-24.237824
35076,,9.380699,-2.022704,2.639156,0.001423,0.024460,-0.107402,-36.782742,-71.948583,-24.397645
35077,,9.385781,-2.029110,2.659565,-0.006962,0.030228,-0.102692,-36.621416,-71.970949,-24.568637
35078,,9.368251,-2.085833,2.607164,-0.014264,0.041934,-0.094459,-36.484737,-71.981844,-24.732179
35079,,9.372710,-2.093954,2.628777,-0.023402,0.045722,-0.088205,-36.336577,-71.991866,-24.899217
35080,,9.369485,-2.070570,2.614885,-0.026913,0.050933,-0.079469,-36.218795,-71.993178,-25.049881
35081,,9.383572,-2.080236,2.568947,-0.039271,0.058622,-0.066989,-36.096341,-71.989830,-25.199454
35082,,9.388461,-2.075221,2.539659,-0.057559,0.066162,-0.060368,-36.007187,-71.977357,-25.339640
35083,,9.405714,-2.103358,2.512136,-0.063616,0.066729,-0.050361,-35.914220,-71.964492,-25.472900
35084,,9.372734,-2.150735,2.511766,-0.070406,0.070544,-0.042936,-35.853223,-71.943957,-25.591037
35085,,9.382259,-2.148136,2.448686,-0.067011,0.071287,-0.034065,-35.781123,-71.923404,-25.704434
35086,,9.367646,-2.171905,2.434212,-0.066273,0.073291,-0.023901,-35.742730,-71.895093,-25.796030
35087,,9.379822,-2.146785,2.459185,-0.066012,0.066753,-0.016393,-35.700262,-71.870674,-25.877690
35088,,9.366653,-2.155333,2.392288,-0.066463,0.068717,-0.009738,-35.687554,-71.839699,-25.942470
35089,,9.359887,-2.156915,2.430984,-0.070644,0.060777,-0.001232,-35.675645,-71.812973,-25.994797
35090,,9.360104,-2.142064,2.383106,-0.070077,0.058172,0.005518,-35.697688,-71.781779,-26.026082
35091,,9.377347,-2.119373,2.372598,-0.074846,0.052834,0.013127,-35.716680,-71.753951,-26.048437
