// Start Time: Unknown
// Update Rate: 100.0Hz
// Filter Profile: human (46.1)
// Firmware Version: 4.3.5
PacketCounter,Acc_X,Acc_Y,Acc_Z,Gyr_X,Gyr_Y,Gyr_Z
62561,9.552210,-1.962648,1.414163,0.025329,0.013331,-0.020083
62562,9.556516,-1.981476,1.388512,0.027812,0.010943,-0.010825
62563,9.573495,-1.961779,1.444755,0.027100,0.012603,-0.021920
62564,9.571253,-1.962272,1.404121,0.025239,0.008273,-0.011167
62565,9.538431,-1.970449,1.408008,0.027523,0.010550,-0.017832
62566,9.578183,-1.976956,1.421692,0.031668,0.004809,-0.010776
62567,9.565115,-1.939057,1.393041,0.022668,0.005601,-0.011508
62568,9.557485,-1.971269,1.396344,0.016772,0.004568,-0.010756
62569,9.557633,-1.970084,1.397003,0.010876,0.003534,-0.010006
62570,9.555376,-1.971645,1.355218,0.013675,-0.001107,-0.006285
62571,9.596928,-2.002233,1.298368,0.020408,-0.001753,-0.008131
62572,9.586398,-1.961870,1.310781,0.026441,-0.008247,-0.015115
62573,9.573514,-1.923973,1.280703,0.029130,-0.010438,-0.008445
62574,9.580503,-1.940671,1.295084,0.026352,-0.010881,-0.015459
62575,9.591799,-1.977890,1.281892,0.025952,-0.016329,-0.013572
62576,9.553941,-2.017548,1.327846,0.027714,-0.019469,-0.006156
62577,9.586228,-2.058216,1.341274,0.017266,-0.020223,-0.010580
62578,9.555077,-2.116152,1.401815,0.020475,-0.019411,-0.008734
62579,9.596389,-2.172759,1.472382,0.023984,-0.018193,0.000129
62580,9.594962,-2.148876,1.540458,0.042760,-0.024076,0.000180
62581,9.611421,-2.055272,1.645937,0.044495,-0.014636,0.004922
62582,9.641043,-1.998117,1.781891,0.031003,-0.005855,0.002641
62583,9.557704,-1.960846,1.784217,0.018265,-0.008877,0.004882
62584,9.517408,-1.979049,1.659648,0.005734,-0.011719,0.004533
62585,9.461392,-1.963804,1.462328,-0.007917,-0.020778,0.004236
62586,9.308493,-1.647669,0.952774,-0.035497,-0.044392,-0.006648
62587,8.927918,-1.167224,-0.223644,-0.050627,-0.139123,-0.048647
62588,9.262553,-1.462559,-0.355756,-0.046794,-0.223698,-0.027400
62589,9.665954,-2.371366,-0.345219,0.072053,-0.213858,0.051883
62590,10.020203,-3.090164,0.455115,0.231042,-0.152738,0.102763
62591,10.063644,-3.182689,1.530903,0.338151,-0.074956,0.130085
62592,10.091166,-2.632155,2.558149,0.310368,-0.004920,0.162259
62593,9.880710,-1.703993,3.193422,0.108212,0.072920,0.171031
62594,9.723783,-1.404374,3.373766,-0.223437,0.123947,0.158036
62595,9.525297,-1.757922,3.387723,-0.513210,0.141223,0.119714
62596,9.277857,-2.314232,2.970582,-0.660749,0.121742,0.094197
62597,9.320354,-2.760466,2.461170,-0.633545,0.072015,0.052805
62598,9.383598,-3.200795,1.929800,-0.448943,0.018820,0.035812
62599,9.611322,-3.644125,1.840913,-0.178773,-0.010520,0.042559
62600,9.542959,-3.563212,1.527193,0.146083,-0.038393,0.059568
62601,9.681732,-3.212503,1.181207,0.435304,-0.065818,0.076774
62602,9.815464,-2.800135,1.245864,0.620948,-0.057492,0.123252
62603,9.869800,-2.023629,1.193748,0.607952,-0.032028,0.163747
62604,9.791745,-1.439123,0.403624,0.448325,-0.017452,0.189662
62605,9.765439,-1.755987,-0.220990,0.236759,0.013366,0.233305
62606,9.648568,-2.267260,0.039203,0.071071,0.063841,0.283198
62607,9.453015,-2.017063,0.861064,-0.128293,0.112900,0.314377
62608,9.309711,-1.496175,1.718239,-0.404378,0.166736,0.312307
62609,9.242423,-1.569623,1.987289,-0.702954,0.196776,0.289323
62610,9.167734,-2.241125,2.199385,-0.903593,0.193984,0.253408
62611,9.082034,-3.139367,2.194845,-0.876344,0.160786,0.227269
62612,9.097564,-3.875065,1.923380,-0.630651,0.085430,0.191461
62613,9.239543,-4.328706,1.661372,-0.231252,0.002819,0.181019
62614,9.269293,-4.132917,1.423231,0.224932,-0.073868,0.165797
62615,9.426462,-3.762215,1.322607,0.616908,-0.149731,0.164829
62616,9.852966,-3.519846,1.524741,0.869654,-0.177632,0.217531
62617,10.085905,-3.079658,1.488859,0.961149,-0.145469,0.276145
62618,9.916908,-2.338143,0.703571,0.928249,-0.140151,0.300191
62619,9.906321,-2.182577,-0.093337,0.792236,-0.097283,0.364148
62620,9.648589,-2.178821,-0.369283,0.601284,-0.037530,0.461832
62621,9.326505,-1.989585,0.193418,0.288196,0.011528,0.522411
62622,9.221528,-1.772669,1.487198,-0.147627,0.071670,0.558477
62623,9.113091,-1.739316,2.495021,-0.629971,0.136299,0.564836
62624,8.976982,-2.363486,2.765235,-0.995749,0.137559,0.514712
62625,8.902307,-3.677290,2.655828,-1.057557,0.084334,0.449792
62626,8.812934,-5.215769,2.219873,-0.749229,-0.022574,0.388861
62627,8.897496,-6.527867,1.942702,-0.098967,-0.129090,0.366381
62628,8.848513,-6.525242,1.383149,0.729242,-0.216051,0.299498
62629,9.138686,-5.023552,1.067897,1.384462,-0.291158,0.271427
62630,9.757031,-4.023689,1.085623,1.713560,-0.291554,0.314650
62631,9.948439,-3.567211,1.043473,1.732204,-0.237530,0.382648
62632,9.527089,-2.689690,-0.150192,1.571243,-0.243369,0.424725
62633,9.627822,-2.458172,-0.602172,1.284052,-0.193912,0.514590
62634,9.491561,-2.486950,0.145317,0.956682,-0.093451,0.606595
62635,9.203512,-2.028317,1.526490,0.553763,0.026208,0.654581
62636,8.979465,-1.661465,2.998881,0.020722,0.154499,0.661962
62637,8.626205,-2.018567,3.408812,-0.521555,0.242705,0.650359
62638,8.253858,-2.639835,2.799700,-0.911175,0.211017,0.604989
62639,8.224284,-3.632740,2.284016,-1.093316,0.130536,0.574522
62640,8.401411,-5.542779,1.752483,-0.941779,0.020599,0.565255
62641,8.549720,-7.244155,1.355132,-0.327441,-0.062035,0.540070
62642,8.647503,-7.394785,0.968289,0.477095,-0.131597,0.488988
62643,9.098226,-6.148883,0.562660,1.133826,-0.191886,0.482860
62644,9.580166,-5.341655,0.747435,1.471933,-0.213575,0.510988
62645,9.671623,-4.423730,1.238170,1.521601,-0.186211,0.575593
62646,9.261610,-2.993969,0.655077,1.330175,-0.179949,0.596822
62647,9.156300,-2.342853,0.138098,0.963601,-0.175490,0.629358
62648,9.157974,-2.714462,0.523971,0.550291,-0.122302,0.677461
62649,9.070176,-3.093470,1.235169,0.193183,-0.040908,0.715247
62650,8.927658,-3.221567,2.280712,-0.135243,0.058731,0.719248
62651,8.656244,-3.490585,2.612138,-0.422242,0.136632,0.700392
62652,8.309377,-3.955672,2.042384,-0.600356,0.139819,0.648303
62653,8.335733,-4.883798,1.969395,-0.627050,0.087046,0.612277
62654,8.374127,-5.954779,1.690363,-0.400286,-0.005143,0.585703
62655,8.649587,-6.651078,1.409066,0.064490,-0.107280,0.550910
62656,8.863755,-6.312827,1.105142,0.598146,-0.201611,0.531594
62657,9.097471,-5.422137,0.929726,0.998952,-0.292197,0.539380
62658,9.524380,-4.891994,1.375735,1.205568,-0.304745,0.578774
62659,9.602377,-4.404442,1.746875,1.207501,-0.274966,0.646062
62660,9.212022,-3.390924,1.239272,1.059414,-0.245530,0.669671
62661,9.242776,-3.039302,0.815555,0.806882,-0.208785,0.701382
62662,9.440113,-3.165536,1.037663,0.499636,-0.116365,0.750348
62663,9.627050,-3.041397,1.569408,0.174484,-0.019549,0.768466
62664,9.853368,-2.889236,2.666935,-0.222682,0.077526,0.774007
62665,9.620827,-2.895994,2.793575,-0.595848,0.141830,0.740177
62666,8.873766,-3.437270,2.173944,-0.836337,0.145960,0.675644
62667,8.092947,-4.444421,1.746303,-0.890009,0.084044,0.624307
62668,7.811375,-5.481252,2.176791,-0.742830,0.009011,0.592835
62669,7.742890,-6.248670,1.880211,-0.322938,-0.080142,0.526333
62670,7.878874,-6.654345,1.835750,0.243545,-0.139987,0.467227
62671,7.896578,-6.014941,1.446455,0.722955,-0.183224,0.414538
62672,7.990730,-5.417564,1.225494,1.014262,-0.220137,0.390714
62673,8.131927,-5.200556,1.415861,1.148306,-0.223488,0.398666
62674,8.093897,-4.911675,1.646183,1.142940,-0.210403,0.422897
62675,7.961857,-4.449930,0.900176,1.072649,-0.211855,0.417057
62676,8.271531,-4.754911,0.826362,1.008172,-0.169957,0.431807
62677,8.181731,-5.126286,1.377385,0.950305,-0.099426,0.460878
62678,8.064347,-5.105356,1.980655,0.872263,-0.030894,0.462693
62679,8.001194,-5.103043,2.494003,0.754588,0.044476,0.458189
62680,7.874004,-5.281371,2.563157,0.634113,0.091653,0.435691
62681,7.728673,-5.354484,2.400024,0.527031,0.109925,0.390794
62682,7.662223,-5.291226,2.153354,0.405383,0.112798,0.364269
62683,7.649603,-5.367805,2.163664,0.277241,0.088674,0.335881
62684,7.798930,-5.645988,2.534895,0.198383,0.049644,0.308588
62685,8.032350,-6.482573,2.510575,0.256072,0.012686,0.301151
62686,7.947342,-7.121730,1.591883,0.497394,-0.046387,0.297745
62687,8.246922,-7.386921,1.679998,0.797385,-0.080457,0.337573
62688,8.632940,-7.206976,2.417289,0.993048,-0.046898,0.421632
62689,8.480495,-5.928461,1.878400,1.017186,-0.011469,0.479653
62690,8.423161,-4.944222,0.951939,0.905163,0.003803,0.522904
62691,8.509917,-4.961574,1.042228,0.674445,0.080790,0.614110
62692,8.467957,-4.696851,1.579046,0.401796,0.137039,0.675204
62693,8.392236,-4.374464,2.481319,0.051651,0.221294,0.704094
62694,8.297018,-4.418343,3.506434,-0.360111,0.306645,0.724877
62695,7.924578,-4.724763,3.026400,-0.643283,0.323925,0.674388
62696,7.430199,-5.572608,1.779457,-0.732288,0.262703,0.617337
62697,6.834437,-6.650053,0.713769,-0.533960,0.113621,0.558980
62698,6.884514,-7.605488,0.829009,-0.120434,-0.073097,0.500629
62699,7.213911,-8.215304,1.087829,0.484900,-0.232600,0.450204
62700,7.868944,-8.052305,1.492048,1.162804,-0.339919,0.413481
62701,8.179683,-6.999900,2.244567,1.676821,-0.338327,0.407116
62702,8.261863,-5.590467,2.846835,1.869971,-0.302696,0.424009
62703,8.293345,-4.185173,3.211361,1.707790,-0.202497,0.465459
62704,8.101214,-3.148750,3.219593,1.251915,-0.081944,0.515204
62705,7.747708,-2.668630,2.758308,0.625769,0.003580,0.545062
62706,7.546472,-2.972746,1.866025,0.030763,0.052386,0.542854
62707,7.531390,-3.993330,1.654372,-0.373730,0.078087,0.532051
62708,7.537664,-5.090038,2.078381,-0.527738,0.118030,0.506108
62709,7.339349,-5.712648,2.464113,-0.490825,0.144458,0.438067
62710,7.233288,-5.905020,2.782904,-0.336735,0.138319,0.360681
62711,7.110381,-5.926364,2.658120,-0.145477,0.107142,0.278221
62712,6.900513,-5.872965,2.340738,0.089114,0.026484,0.186547
62713,6.972544,-6.067379,2.264620,0.309862,-0.064433,0.126469
62714,7.154513,-6.156166,2.414591,0.521114,-0.126088,0.085224
62715,7.384350,-5.745950,2.655606,0.658746,-0.174353,0.059270
62716,7.730550,-5.183927,2.705063,0.670409,-0.179300,0.063169
62717,7.875218,-4.658899,2.478213,0.537544,-0.131058,0.092218
62718,7.751365,-4.256320,2.266212,0.277006,-0.076369,0.129754
62719,7.733324,-4.316611,2.120635,-0.017833,-0.028287,0.172573
62720,7.664039,-4.713267,1.936812,-0.258049,0.053252,0.224267
62721,7.490975,-5.121050,2.713676,-0.403825,0.128722,0.244623
62722,7.299398,-5.749011,3.123910,-0.458200,0.194598,0.238288
62723,6.697040,-6.290860,2.682331,-0.365769,0.186606,0.175266
62724,6.444937,-6.933199,2.576735,-0.157790,0.093958,0.093332
62725,6.686887,-7.551805,2.416815,0.164156,-0.001757,0.011611
62726,6.848496,-7.581174,2.345176,0.548279,-0.045245,-0.055837
62727,6.780347,-6.836459,2.487176,0.854089,-0.094793,-0.097116
62728,6.715820,-5.927956,2.351397,0.962484,-0.106417,-0.116258
62729,6.516781,-5.194234,2.313811,0.851643,-0.106367,-0.101168
62730,6.329409,-4.825660,2.415527,0.568810,-0.109147,-0.088955
62731,6.516562,-5.312668,2.521734,0.280802,-0.089265,-0.083267
62732,6.688383,-6.097198,2.451926,0.143784,-0.048444,-0.095702
62733,6.773696,-6.733799,2.123539,0.207699,-0.029612,-0.137359
62734,6.913117,-6.781197,2.170714,0.368248,-0.028424,-0.175259
62735,7.066889,-6.054891,2.378980,0.490887,-0.032153,-0.226416
62736,7.171871,-5.429839,2.800061,0.506752,-0.046804,-0.263348
62737,7.199014,-5.291125,2.993136,0.468914,-0.067087,-0.264381
62738,7.183260,-5.671349,2.813512,0.506451,-0.089247,-0.281600
62739,7.389342,-5.673179,2.829125,0.626855,-0.131545,-0.300748
62740,7.834720,-5.180974,2.705648,0.678180,-0.159151,-0.294240
62741,8.438575,-4.890977,2.616134,0.626089,-0.171623,-0.247568
62742,8.945134,-5.214185,3.025979,0.481995,-0.126860,-0.157374
62743,9.073083,-5.409147,3.646646,0.345910,-0.089974,-0.066905
62744,9.028953,-5.397092,4.116730,0.228336,-0.071890,-0.001919
62745,8.743373,-5.419457,3.816910,0.196891,-0.091935,0.022744
62746,8.652694,-5.604435,3.391515,0.281155,-0.125042,0.000367
62747,8.635344,-5.549889,2.818402,0.438333,-0.170930,-0.024772
62748,8.952993,-5.349363,3.100234,0.595527,-0.176804,-0.006904
62749,9.164700,-5.243936,3.741331,0.683282,-0.118547,0.021660
62750,9.002256,-5.170871,4.190614,0.708009,-0.062762,0.046644
62751,8.704241,-4.922427,4.421710,0.704719,-0.002328,0.065677
62752,8.225490,-4.554785,4.482601,0.640607,0.021537,0.076710
62753,8.074961,-4.565593,4.169077,0.574124,0.002435,0.080903
62754,8.392726,-4.984413,4.178737,0.583791,-0.005080,0.093284
62755,8.505185,-5.656623,3.943853,0.695366,-0.003959,0.110294
62756,8.312270,-6.136661,2.811502,1.051880,-0.107426,0.101024
62757,9.021376,-5.861760,3.434599,1.331520,-0.078822,0.160898
62758,9.237847,-5.569206,3.780123,1.437798,-0.060825,0.251788
62759,9.679277,-5.355215,4.129918,1.441359,-0.027048,0.350336
62760,9.650826,-5.327752,4.336671,1.331017,0.016569,0.486769
62761,9.639012,-4.988705,4.729962,1.117172,0.055006,0.617903
62762,9.585151,-4.702361,4.963067,0.779840,0.074621,0.777703
62763,9.368938,-5.101156,5.004852,0.413934,0.086501,0.951324
62764,9.151346,-5.954319,5.359082,0.144589,0.080621,1.104405
62765,9.087152,-7.118939,5.570852,0.064235,0.072843,1.248646
62766,9.010299,-8.119672,5.716296,0.236820,0.072243,1.358709
62767,9.060947,-8.660440,5.912407,0.547214,0.071018,1.451929
62768,9.197000,-8.833035,6.107431,0.866858,0.108296,1.541957
62769,9.178834,-8.687400,6.055617,1.107961,0.155019,1.619394
62770,9.054005,-8.099812,6.032472,1.247344,0.210176,1.677975
62771,8.814180,-7.273144,6.258555,1.233751,0.280442,1.733803
62772,8.112376,-6.264702,5.545043,1.110546,0.309144,1.746680
62773,7.825531,-6.180078,4.269706,1.024588,0.303168,1.727544
62774,7.981856,-7.173663,3.535904,1.054201,0.337997,1.746712
62775,8.260041,-8.039681,3.864472,1.151419,0.396291,1.816996
62776,8.672243,-7.768752,5.048167,1.116108,0.481308,1.911866
62777,8.735652,-6.698696,6.350693,0.787764,0.622068,1.992715
62778,8.702502,-6.034866,6.909314,0.226088,0.754444,2.045175
62779,8.492530,-6.299585,6.807660,-0.314867,0.884941,2.093346
62780,7.977861,-7.445017,6.081470,-0.664462,0.979315,2.163492
62781,7.047071,-8.753414,5.196269,-0.717583,1.021353,2.241798
62782,6.138073,-9.828597,4.789675,-0.494644,0.999630,2.311411
62783,5.626972,-10.587360,4.658625,-0.118877,0.962085,2.363625
62784,5.451768,-10.639832,4.812380,0.290439,0.924245,2.402699
62785,5.457549,-10.060732,5.149471,0.623618,0.909177,2.435761
62786,5.203604,-9.206430,5.217312,0.801714,0.917216,2.453863
62787,4.612460,-8.535055,4.739723,0.867057,0.897435,2.446500
62788,4.118218,-8.136262,4.405045,0.902278,0.881534,2.428430
62789,3.732988,-7.555542,4.073293,0.918931,0.876674,2.404611
62790,3.800988,-7.363184,4.618481,0.874097,0.914654,2.404778
62791,3.696200,-7.531216,5.442286,0.839416,1.010170,2.403443
62792,3.343610,-8.026390,5.816117,0.833855,1.105643,2.398804
62793,2.766698,-8.325908,6.059297,0.881128,1.205886,2.382181
62794,2.002268,-8.113846,6.379860,0.904813,1.250960,2.370134
62795,1.531939,-7.702600,6.476865,0.823872,1.245563,2.373695
62796,1.355536,-7.560443,6.661744,0.636291,1.222137,2.385463
62797,1.219397,-7.925345,6.674039,0.434637,1.182417,2.424535
62798,1.195208,-8.577520,6.665513,0.366139,1.133964,2.446650
62799,1.084172,-9.429500,6.306669,0.475822,1.097080,2.479521
62800,0.799994,-9.525044,5.907952,0.734588,1.036895,2.502546
62801,0.359068,-8.695806,5.072984,1.006139,0.927661,2.486726
62802,0.221503,-7.656702,4.294063,1.142451,0.802899,2.468945
62803,0.550934,-7.259131,4.291301,1.118488,0.715571,2.489130
62804,1.048747,-8.080227,5.044416,1.013846,0.720980,2.541166
62805,1.420366,-9.501115,6.037359,1.037989,0.767089,2.634481
62806,1.469247,-10.314869,6.568002,1.269020,0.881626,2.707874
62807,0.892489,-10.088761,6.933677,1.585447,1.010715,2.760034
62808,0.282670,-8.903105,7.072786,1.757756,1.131818,2.841206
62809,-0.276926,-7.072480,7.314811,1.647593,1.215939,2.900846
62810,-0.725779,-5.664402,7.662090,1.234491,1.272711,2.968558
62811,-1.482829,-5.284638,7.634948,0.771170,1.290738,3.004309
62812,-2.212155,-6.037832,7.121067,0.529657,1.233944,3.023766
62813,-2.777500,-6.819412,6.576146,0.550545,1.163218,3.059674
62814,-3.171413,-6.745286,6.073439,0.711100,1.063737,3.099801
62815,-3.315534,-5.924656,5.654509,0.857613,0.924569,3.095301
62816,-3.293116,-5.269182,5.068181,0.898973,0.788374,3.058694
62817,-3.066026,-4.594850,4.725951,0.975735,0.693349,3.013025
62818,-3.116077,-4.450645,4.999622,1.120155,0.667641,2.955751
62819,-3.448700,-4.658553,5.414715,1.354809,0.660515,2.896177
62820,-3.713986,-4.554139,5.933861,1.618015,0.698387,2.821610
62821,-3.897118,-3.632295,6.642644,1.814065,0.753129,2.749387
62822,-4.131045,-2.481170,7.036441,1.826525,0.811848,2.670080
62823,-4.539638,-1.748406,7.009162,1.703230,0.827351,2.597840
62824,-4.942340,-1.479457,6.947172,1.493854,0.818817,2.538087
62825,-5.331811,-1.833828,6.790346,1.323607,0.793124,2.497158
62826,-5.549757,-2.224063,6.874642,1.263445,0.751996,2.455676
62827,-5.459761,-1.715525,7.145991,1.226807,0.728203,2.392796
62828,-5.710123,-0.308151,6.964572,1.096754,0.679844,2.289814
62829,-6.053877,1.103819,6.258680,0.805746,0.568729,2.155873
62830,-6.314515,1.284460,5.499369,0.383686,0.458340,2.069010
62831,-6.288362,0.471737,4.926023,0.133204,0.345052,1.957327
62832,-6.062155,-1.050125,4.934978,0.120374,0.274908,1.868703
62833,-5.944157,-2.508163,5.454096,0.394335,0.228330,1.784615
62834,-5.792753,-3.080286,6.053590,0.853076,0.230843,1.703864
62835,-5.842246,-2.983246,6.303750,1.301557,0.256311,1.642415
62836,-5.869216,-2.278863,6.320531,1.630567,0.295020,1.602397
62837,-5.855042,-1.241535,6.451697,1.740874,0.321287,1.565844
62838,-5.863396,-0.690501,6.747341,1.676547,0.346960,1.551002
62839,-6.362416,-1.337902,6.783492,1.599559,0.361111,1.595210
62840,-6.544576,-2.062813,6.919784,1.638419,0.388520,1.645385
62841,-6.400407,-1.845893,7.223976,1.746024,0.403170,1.655336
62842,-6.288471,-0.272659,7.195788,1.698667,0.407290,1.648324
62843,-6.470399,1.910907,6.678438,1.401949,0.379524,1.618558
62844,-6.494371,2.954776,5.851495,0.934986,0.303695,1.579930
62845,-6.245374,2.289858,5.067861,0.562455,0.260977,1.539499
62846,-6.305489,0.467420,4.762665,0.590902,0.221455,1.493032
62847,-6.312544,-0.890941,5.038644,0.990602,0.165907,1.437872
62848,-6.224012,-1.061500,5.773125,1.519199,0.139531,1.378251
62849,-6.086676,-0.488316,6.381110,1.975912,0.159673,1.344314
62850,-6.087500,0.404590,6.830467,2.223331,0.198748,1.323031
62851,-6.176217,1.640266,7.026529,2.258861,0.240046,1.285465
62852,-6.081279,2.763524,7.153881,2.063399,0.263635,1.244768
62853,-6.024784,3.300315,7.379222,1.763453,0.303823,1.230110
62854,-6.183071,2.763965,7.444234,1.495554,0.327326,1.252674
62855,-6.230600,1.990968,7.399426,1.384361,0.352886,1.281154
62856,-6.143777,2.302883,7.286242,1.353966,0.375712,1.280845
62857,-6.116215,3.589214,6.758753,1.184183,0.381748,1.259313
62858,-6.249883,4.687203,5.781489,0.828577,0.351917,1.182078
62859,-6.212573,4.668787,4.854411,0.474939,0.277700,1.163298
62860,-6.089562,3.020942,4.021257,0.417528,0.197150,1.121174
62861,-5.930712,1.341360,4.022959,0.753631,0.095108,1.075662
62862,-5.443817,0.817596,4.906317,1.304622,0.049627,1.024291
62863,-5.304692,1.382806,5.765636,1.779171,0.063457,0.999866
62864,-5.396647,2.640200,6.189706,2.057642,0.106633,0.972441
62865,-5.523541,4.068303,6.322275,2.092626,0.163334,0.922446
62866,-5.549511,4.983662,6.215646,1.944093,0.205602,0.881244
62867,-5.511272,5.508437,6.270797,1.718403,0.248948,0.839221
62868,-5.428778,5.601553,6.380497,1.451303,0.283431,0.810128
62869,-5.275478,5.198146,6.377986,1.181048,0.338078,0.816807
62870,-5.527357,4.355998,6.093540,1.049362,0.390810,0.841351
62871,-5.700863,3.737914,5.619502,1.087406,0.408779,0.847367
62872,-5.687633,4.152266,5.232954,1.171127,0.429926,0.835789
62873,-5.682448,5.406779,4.995365,1.144521,0.437425,0.789955
62874,-5.782226,6.282298,4.632492,0.961300,0.415524,0.734449
62875,-5.802370,6.558548,4.091398,0.713738,0.335606,0.677795
62876,-5.782649,6.368433,3.530959,0.540127,0.260087,0.647405
62877,-5.844453,5.800843,3.206964,0.513598,0.163989,0.588874
62878,-5.693880,5.531668,3.179859,0.634757,0.086223,0.521544
62879,-5.474581,5.427759,3.542400,0.787291,0.036815,0.455318
62880,-5.325811,5.238530,4.159875,0.924338,0.014639,0.418550
62881,-5.352497,5.195728,4.488841,1.032744,0.013848,0.383853
62882,-5.388096,5.832494,4.824023,1.022724,0.021182,0.338648
62883,-5.341730,6.493239,4.985155,0.839802,0.032817,0.288313
62884,-5.223470,6.695370,4.976433,0.539270,0.028821,0.270555
62885,-5.179673,6.316187,4.727206,0.240757,0.036412,0.267080
62886,-5.313551,6.053125,4.523347,0.039198,0.022165,0.240247
62887,-5.136121,6.406578,4.503212,-0.133159,0.004954,0.194910
62888,-5.044024,7.086594,4.495000,-0.415394,-0.017512,0.134636
62889,-5.010518,7.543227,4.085049,-0.789982,-0.065988,0.054277
62890,-4.825763,7.225520,3.533287,-1.143752,-0.154264,-0.017890
62891,-4.593769,6.269597,3.037803,-1.348764,-0.214200,-0.084254
62892,-4.528834,4.993917,2.830079,-1.316208,-0.274456,-0.173807
62893,-4.330052,4.170582,3.231862,-1.055214,-0.317345,-0.268171
62894,-4.229419,3.860218,3.841570,-0.738135,-0.340058,-0.339598
62895,-4.375182,4.099471,4.234472,-0.448551,-0.343061,-0.413742
62896,-4.360292,4.981474,4.662473,-0.275909,-0.341258,-0.490395
62897,-4.311392,5.975329,5.109104,-0.327579,-0.307510,-0.567317
62898,-4.233876,6.776821,5.544074,-0.571590,-0.259512,-0.648096
62899,-4.096055,7.278842,5.916404,-0.972049,-0.192435,-0.749853
62900,-4.062063,7.519430,6.264571,-1.436370,-0.097473,-0.852977
62901,-4.161627,7.317492,6.330522,-1.900736,0.002498,-0.966381
62902,-4.472362,6.377405,6.073417,-2.242805,0.115316,-1.030384
62903,-4.829875,4.620261,5.501999,-2.334357,0.222956,-1.061011
62904,-5.545633,2.678695,4.848649,-2.168851,0.289898,-1.065949
62905,-6.102702,1.386635,4.399394,-1.755024,0.286367,-1.063271
62906,-6.393301,0.713417,4.425246,-1.202712,0.252473,-1.051504
62907,-6.251293,0.607277,4.798433,-0.654278,0.189961,-1.016046
62908,-6.229189,1.342138,5.116154,-0.288413,0.145511,-0.958818
62909,-6.594439,2.538057,5.222150,-0.100752,0.096303,-0.960471
62910,-6.940669,3.624384,5.172236,-0.091049,0.007891,-0.998842
62911,-7.054053,4.142944,5.161711,-0.202384,-0.092160,-1.037078
62912,-7.249467,4.536828,5.209649,-0.372050,-0.190386,-1.056161
62913,-7.299114,4.930229,5.381712,-0.617865,-0.298959,-1.065321
62914,-7.093407,4.884668,5.998602,-0.893124,-0.388879,-1.082603
62915,-6.642309,4.299929,6.938780,-1.177445,-0.436374,-1.101162
62916,-6.254423,3.488194,7.551158,-1.401450,-0.426347,-1.117799
62917,-6.065512,2.911911,7.860978,-1.553593,-0.381007,-1.100534
62918,-6.149101,2.948826,7.524333,-1.675194,-0.321620,-1.127151
62919,-6.290820,3.311468,6.643171,-1.800534,-0.293978,-1.186308
62920,-6.342311,3.201795,5.326866,-1.894928,-0.324111,-1.251215
62921,-6.229327,2.019544,4.493541,-1.851832,-0.392738,-1.284695
62922,-6.049252,0.725393,4.520762,-1.604679,-0.472143,-1.330587
62923,-5.780044,0.404084,5.180981,-1.243540,-0.501682,-1.388648
62924,-5.585563,0.954501,6.216056,-0.996882,-0.473288,-1.433364
62925,-5.663672,1.592937,6.905979,-1.006160,-0.427146,-1.483400
62926,-5.879875,1.964061,6.784246,-1.207568,-0.397604,-1.522907
62927,-6.222103,1.994347,6.109822,-1.496354,-0.406265,-1.584892
62928,-6.298179,1.580187,5.977802,-1.720830,-0.457042,-1.658112
62929,-6.158236,0.549022,6.140149,-1.802570,-0.536343,-1.724984
62930,-6.070109,-0.391649,6.376463,-1.738603,-0.607931,-1.752559
62931,-6.124853,-0.765727,6.799202,-1.606290,-0.645397,-1.749004
62932,-6.194711,-0.532157,7.052220,-1.560440,-0.670644,-1.741555
62933,-6.221901,-0.172900,7.184770,-1.631350,-0.688417,-1.743698
62934,-6.091290,-0.073515,7.512866,-1.798383,-0.713566,-1.745377
62935,-6.009445,-0.724523,8.034927,-2.034653,-0.717703,-1.721381
62936,-5.927257,-1.983011,8.281561,-2.138515,-0.677879,-1.713692
62937,-5.787645,-3.246843,7.833367,-1.980057,-0.606626,-1.715285
62938,-5.719538,-3.784309,7.264188,-1.574172,-0.511212,-1.707255
62939,-5.890604,-3.640114,6.997834,-1.110996,-0.434495,-1.700034
62940,-5.929005,-2.918651,6.957340,-0.808155,-0.374308,-1.696401
62941,-5.884865,-1.764786,7.087244,-0.768362,-0.332795,-1.709897
62942,-5.767845,-1.283186,7.044857,-0.987561,-0.317577,-1.746349
62943,-5.749231,-1.657956,6.836101,-1.250905,-0.358886,-1.778169
62944,-5.725699,-2.455392,7.175032,-1.399639,-0.438377,-1.805527
62945,-5.672308,-3.806259,7.843142,-1.361775,-0.516001,-1.796801
62946,-5.412402,-5.109179,8.300481,-1.144468,-0.541090,-1.762628
62947,-5.315027,-5.599988,8.596365,-0.786813,-0.516760,-1.722630
62948,-5.423939,-4.266443,8.530177,-0.528546,-0.492986,-1.705016
62949,-5.559683,-1.635203,7.791871,-0.571402,-0.531799,-1.717655
62950,-5.330227,0.028212,7.250543,-0.935134,-0.613748,-1.760729
62951,-4.618661,-0.238228,6.608476,-1.392770,-0.692227,-1.817647
62952,-3.850581,-2.036762,6.319943,-1.682924,-0.690684,-1.875368
62953,-3.638032,-3.819536,6.294389,-1.696530,-0.652278,-1.898300
62954,-3.535613,-5.129596,6.798360,-1.560900,-0.573331,-1.920205
62955,-3.533153,-6.021307,7.525627,-1.392714,-0.442624,-1.907389
62956,-3.780439,-6.702079,7.436923,-1.177454,-0.320846,-1.887983
62957,-3.982097,-6.924069,7.016395,-0.921431,-0.238717,-1.904825
62958,-4.214295,-6.467853,6.500427,-0.716620,-0.215903,-1.933800
62959,-4.271857,-5.841184,6.306924,-0.613215,-0.263039,-1.932363
62960,-4.153466,-5.877478,6.294624,-0.604376,-0.358470,-1.902290
62961,-3.638441,-6.011867,7.054626,-0.649386,-0.432742,-1.845173
62962,-3.139979,-5.849806,8.035030,-0.829757,-0.457504,-1.774500
62963,-3.127629,-5.277083,8.254465,-1.126743,-0.478995,-1.720437
62964,-3.215728,-4.597713,7.532946,-1.496995,-0.541553,-1.694219
62965,-2.949696,-5.350922,6.334849,-1.860130,-0.595299,-1.630968
62966,-2.601519,-7.090115,5.227095,-1.952166,-0.635346,-1.573400
62967,-2.370925,-8.700656,5.036947,-1.653912,-0.626431,-1.514696
62968,-2.250694,-9.696200,5.531004,-1.056773,-0.575257,-1.506884
62969,-2.368846,-9.613796,6.430128,-0.427222,-0.482093,-1.497085
62970,-2.680314,-8.427574,7.395371,0.024750,-0.365651,-1.497309
62971,-2.938588,-6.571387,7.657005,0.167091,-0.266004,-1.532856
62972,-2.790452,-5.084934,7.699791,-0.011045,-0.215224,-1.582325
62973,-2.533720,-4.433362,7.437287,-0.437885,-0.216637,-1.616422
62974,-2.014112,-4.980175,7.256728,-0.924414,-0.264729,-1.617459
62975,-1.487590,-6.550354,7.113918,-1.219289,-0.309818,-1.599648
62976,-1.308064,-8.392666,6.885123,-1.234495,-0.355107,-1.560018
62977,-1.480718,-8.951921,6.298877,-1.035952,-0.426199,-1.530792
62978,-1.325242,-8.427615,5.892215,-0.838061,-0.500894,-1.503454
62979,-1.290066,-7.704350,6.054997,-0.731232,-0.548718,-1.497320
62980,-1.116994,-7.367120,5.608544,-0.658680,-0.624687,-1.525285
62981,-0.798797,-7.702417,5.068932,-0.466012,-0.640402,-1.559848
62982,-0.520460,-7.917204,5.394123,-0.161047,-0.620895,-1.572295
62983,-0.224266,-7.935101,6.257103,0.145096,-0.534794,-1.579757
62984,-0.007713,-7.181440,7.150094,0.313721,-0.394240,-1.582094
62985,-0.062636,-6.164746,7.617856,0.207471,-0.245503,-1.591442
62986,-0.080418,-5.499127,7.363563,-0.168894,-0.119254,-1.595568
62987,-0.174340,-5.471099,6.618894,-0.646891,-0.062106,-1.626301
62988,-0.175732,-6.221954,6.213268,-1.051170,-0.084105,-1.657995
62989,-0.005726,-7.804405,6.121207,-1.240183,-0.137724,-1.673507
62990,0.091250,-9.628738,5.443747,-1.114932,-0.211788,-1.647466
62991,0.017729,-10.876203,4.545912,-0.620053,-0.314950,-1.625526
62992,-0.030291,-10.773094,4.515879,-0.016905,-0.452317,-1.602658
62993,0.181261,-9.415179,4.922487,0.321779,-0.584961,-1.551471
62994,0.465758,-7.765543,5.326737,0.344503,-0.681110,-1.546151
62995,0.749773,-6.395979,5.701858,0.160746,-0.765539,-1.589783
62996,1.155540,-6.239895,5.456285,-0.106952,-0.815085,-1.607767
62997,1.581642,-6.900841,5.348668,-0.285720,-0.778540,-1.624323
62998,1.888249,-7.700013,5.744345,-0.341915,-0.672967,-1.617890
62999,2.140914,-8.154983,6.090876,-0.268906,-0.553287,-1.611573
63000,2.241398,-8.204883,6.428021,-0.154937,-0.382853,-1.607915
63001,2.107486,-7.910633,6.606959,-0.121055,-0.245154,-1.607792
63002,1.981710,-7.123628,6.612007,-0.317024,-0.147560,-1.586613
63003,2.061298,-6.182026,7.287063,-0.783841,-0.114331,-1.551506
63004,2.443560,-6.423651,7.012881,-1.333915,-0.129979,-1.533442
63005,2.868431,-8.498611,6.254005,-1.593724,-0.176122,-1.504399
63006,2.814261,-10.942780,5.309103,-1.348258,-0.267119,-1.459825
63007,2.610031,-12.225381,4.686389,-0.699940,-0.393536,-1.471669
63008,2.373360,-11.333466,3.839592,0.039957,-0.575513,-1.463696
63009,2.556469,-8.823804,4.047334,0.484956,-0.738521,-1.451513
63010,3.113958,-6.455060,4.641795,0.416364,-0.863430,-1.425479
63011,4.402605,-5.688473,4.986437,0.048061,-0.873874,-1.401047
63012,5.660861,-6.353273,5.740590,-0.376966,-0.671899,-1.353593
63013,5.475229,-7.233373,5.680905,-0.641598,-0.408013,-1.308621
63014,5.164280,-8.104420,6.198118,-0.716553,-0.156863,-1.263181
63015,4.437007,-8.292847,6.624242,-0.736632,0.064828,-1.259899
63016,4.011509,-8.012100,6.302662,-0.798644,0.186675,-1.243530
63017,3.531201,-8.272990,5.581288,-0.844363,0.212006,-1.250834
63018,3.596572,-8.839742,5.184202,-0.818506,0.124911,-1.247503
63019,3.991096,-9.275839,4.731933,-0.717543,-0.036144,-1.220331
63020,4.558706,-9.599487,4.418097,-0.558517,-0.220934,-1.184439
63021,4.880119,-9.950863,4.421757,-0.288344,-0.407039,-1.150552
63022,5.145217,-9.753583,4.504953,0.037837,-0.555480,-1.117452
63023,5.399125,-8.759054,4.128639,0.330305,-0.652647,-1.107065
63024,5.861702,-7.656627,4.091687,0.444091,-0.697048,-1.078248
63025,6.443306,-7.300632,4.277873,0.423999,-0.649647,-1.038760
63026,6.950491,-7.628664,4.819117,0.372531,-0.472703,-0.978722
63027,6.665997,-7.385350,5.549072,0.282870,-0.256847,-0.925128
63028,6.071591,-6.375646,6.127718,0.050768,-0.080588,-0.896277
63029,5.726897,-5.429017,6.511878,-0.385053,0.057962,-0.883890
63030,5.548265,-5.477028,6.274020,-0.862565,0.155031,-0.894574
63031,5.308291,-6.829401,5.464945,-1.146744,0.160884,-0.891012
63032,5.405406,-8.429840,4.606552,-1.048821,0.059836,-0.893804
63033,5.717515,-9.704814,4.213779,-0.610279,-0.070538,-0.884860
63034,6.131961,-10.096438,4.162369,-0.018138,-0.203625,-0.855817
63035,6.442713,-9.507114,4.286740,0.539469,-0.302179,-0.812566
63036,6.668858,-7.805635,4.247599,0.868262,-0.363774,-0.771909
63037,6.832024,-6.297516,4.104841,0.874992,-0.396057,-0.718933
63038,7.173632,-5.587432,4.008332,0.648863,-0.354591,-0.677261
63039,6.911217,-5.330650,4.270348,0.366709,-0.270226,-0.649393
63040,6.448533,-5.047128,4.656720,0.090163,-0.206708,-0.663581
63041,6.360466,-5.060416,5.068348,-0.192827,-0.139468,-0.688505
63042,6.325503,-5.427104,5.184570,-0.423093,-0.069322,-0.721278
63043,6.315699,-5.762956,5.024406,-0.569344,-0.024185,-0.732855
63044,6.427092,-6.026928,4.816426,-0.641891,-0.024418,-0.742315
63045,6.587363,-6.429880,4.593288,-0.632422,-0.046238,-0.742803
63046,6.780233,-6.774318,4.412280,-0.528802,-0.054361,-0.730853
63047,6.795739,-6.700987,4.359593,-0.392379,-0.076477,-0.711158
63048,6.861401,-6.352641,4.172464,-0.274095,-0.098508,-0.696411
63049,6.879151,-6.132016,4.022558,-0.222305,-0.100282,-0.693661
63050,6.892803,-6.240426,3.900862,-0.187067,-0.108565,-0.691093
63051,7.089703,-6.335974,4.012045,-0.133472,-0.125997,-0.701602
63052,7.307830,-6.213627,4.065698,-0.094780,-0.134923,-0.697808
63053,7.421446,-6.062120,4.064867,-0.097926,-0.139456,-0.681404
63054,7.471979,-6.090910,4.025248,-0.120627,-0.128282,-0.638723
63055,7.532932,-6.093756,3.995768,-0.145407,-0.121286,-0.587814
63056,7.572702,-6.013541,4.017592,-0.174200,-0.111147,-0.535547
63057,7.516022,-5.971517,3.914783,-0.197628,-0.107734,-0.491544
63058,7.411811,-6.141643,3.894061,-0.163907,-0.103118,-0.467210
63059,7.423046,-6.463190,4.095160,-0.106334,-0.118519,-0.425001
63060,7.421198,-6.440052,4.231655,-0.062582,-0.121404,-0.379737
63061,7.538110,-6.352951,4.428850,-0.064205,-0.118579,-0.339373
63062,7.578099,-6.206214,4.485063,-0.082647,-0.108906,-0.301452
63063,7.611840,-6.054966,4.415105,-0.125069,-0.063717,-0.265419
63064,7.418807,-6.174500,4.132201,-0.193074,-0.038486,-0.206419
63065,7.415689,-6.268238,3.771163,-0.200692,-0.037463,-0.168893
63066,8.222789,-6.642093,4.937106,-0.343598,0.021241,-0.043100
63067,7.391621,-6.789206,4.409109,-0.466631,0.076780,0.019919
63068,7.315695,-8.097778,3.821990,-0.266209,0.053586,0.009203
63069,7.093489,-8.518541,4.094023,0.079453,0.062247,0.033176
63070,7.246142,-7.678831,4.292209,0.316790,0.017069,0.069054
63071,7.538406,-6.384789,4.610576,0.297287,0.007207,0.100532
63072,7.923141,-5.758828,4.745127,0.097312,-0.004332,0.126640
63073,8.157472,-5.878347,4.470009,-0.066778,0.000219,0.138014
63074,8.063918,-6.218647,4.110860,-0.110381,-0.009481,0.163229
63075,7.923873,-6.490865,3.822501,-0.055919,-0.024979,0.194072
63076,8.003514,-6.358353,3.750838,0.092374,-0.046518,0.213413
63077,8.381648,-6.112640,3.596475,0.219440,-0.042320,0.235139
63078,8.870595,-5.737239,3.555556,0.280328,0.003729,0.263807
63079,9.288010,-4.961356,4.193446,0.208137,0.082542,0.309456
63080,8.985423,-3.700211,4.669029,-0.098222,0.144520,0.367472
63081,8.500007,-2.446292,4.527009,-0.603675,0.165885,0.391651
63082,7.845908,-2.408214,3.870242,-1.110674,0.167863,0.378839
63083,7.586047,-3.657742,3.004596,-1.338263,0.102383,0.325169
63084,7.628855,-5.413100,2.509847,-1.212717,0.037607,0.294167
63085,7.739400,-6.578227,2.373670,-0.809036,-0.034913,0.252915
63086,7.931695,-6.685424,2.245719,-0.322867,-0.073020,0.238150
63087,7.780107,-6.058512,2.842821,0.067798,-0.105164,0.217476
63088,7.673042,-5.375219,3.450408,0.267971,-0.159133,0.206183
63089,7.637569,-4.776676,3.922954,0.294611,-0.194088,0.192007
63090,7.914931,-4.645577,4.105899,0.194403,-0.244628,0.216720
63091,8.347564,-4.836064,4.411903,0.031482,-0.206571,0.248671
63092,8.340023,-4.925603,4.500370,-0.161434,-0.135024,0.260728
63093,8.077699,-4.581122,4.125213,-0.393790,-0.078843,0.244478
63094,7.498884,-3.753883,3.958453,-0.730465,-0.033616,0.215146
63095,7.483466,-3.254672,4.304894,-1.204362,0.007763,0.209755
63096,7.994154,-4.021962,4.426045,-1.726942,0.148698,0.247821
63097,8.186832,-5.156155,4.063738,-2.071775,0.300107,0.269854
63098,7.903179,-6.198990,3.129492,-2.135874,0.396185,0.268774
63099,7.411259,-7.005014,2.230828,-1.997993,0.415551,0.246450
63100,6.913615,-7.299221,1.724421,-1.688710,0.442197,0.156601
63101,5.629033,-7.241888,1.127919,-1.299109,0.434205,0.003627
63102,4.171930,-7.273019,1.385921,-0.877422,0.308466,-0.175058
63103,3.735270,-7.652152,1.886455,-0.481850,0.160549,-0.331950
63104,4.126244,-7.615468,2.302240,-0.116094,0.043020,-0.461734
63105,5.026801,-7.490487,2.509304,0.145766,-0.053683,-0.574237
63106,6.121783,-7.555920,2.322637,0.373377,-0.146957,-0.638994
63107,7.293196,-7.622838,2.368585,0.551935,-0.175976,-0.642303
63108,7.960860,-6.913266,2.500042,0.621465,-0.166838,-0.594746
63109,8.148768,-5.637710,2.229641,0.481409,-0.178035,-0.501423
63110,8.082643,-4.864062,1.922957,0.194007,-0.148932,-0.412758
63111,8.003545,-5.012175,2.003326,-0.136474,-0.053147,-0.336571
63112,7.765671,-5.386314,1.943232,-0.375700,0.078826,-0.314781
63113,7.238619,-5.489809,2.001702,-0.496333,0.212397,-0.351088
63114,6.442124,-5.291636,2.256743,-0.567060,0.279874,-0.419296
63115,6.210163,-5.032825,2.692673,-0.711855,0.307748,-0.491708
63116,6.438810,-4.854194,3.187530,-0.967743,0.282996,-0.562555
63117,6.631392,-5.044518,2.995553,-1.229856,0.195048,-0.613010
63118,6.435538,-6.131053,2.241857,-1.298966,0.018778,-0.653959
63119,6.285797,-7.179673,1.931043,-1.157007,-0.143117,-0.707069
63120,6.460502,-7.785576,1.854733,-0.875490,-0.262687,-0.761436
63121,7.300848,-7.951008,2.214283,-0.565450,-0.334768,-0.778940
63122,8.200804,-7.192644,2.464086,-0.347903,-0.256230,-0.774322
63123,8.350332,-5.892489,2.116827,-0.343898,-0.159407,-0.766954
63124,8.288755,-5.137676,1.338951,-0.510432,-0.072505,-0.726575
63125,8.128390,-5.063472,0.477041,-0.707311,0.010032,-0.704228
63126,7.885616,-5.480188,0.185896,-0.855415,0.072265,-0.643433
63127,8.138543,-6.460805,2.458887,-1.038945,0.213126,-0.566373
63128,7.988813,-6.693022,3.430862,-1.158745,0.388954,-0.535518
63129,7.635461,-6.405503,3.394522,-1.326691,0.504729,-0.522021
63130,7.219056,-6.186693,3.710407,-1.602723,0.582819,-0.505472
63131,7.076849,-6.270120,3.808362,-1.862316,0.572741,-0.544599
63132,6.452842,-7.147781,2.020413,-1.827403,0.468392,-0.650825
63133,5.947978,-8.496979,0.261719,-1.481693,0.301600,-0.720095
63134,5.785306,-9.528998,-0.040919,-0.889852,0.134653,-0.776435
63135,6.201119,-9.770596,0.918168,-0.213419,0.004252,-0.799195
63136,6.878970,-8.795953,1.910375,0.345540,-0.061977,-0.802421
63137,7.526368,-7.388125,2.217720,0.625011,-0.036047,-0.787938
63138,7.991158,-6.390479,2.732866,0.588126,0.067918,-0.721297
63139,7.681537,-5.093024,2.050760,0.324669,0.168714,-0.686524
63140,7.639558,-4.166473,1.016463,-0.068634,0.199643,-0.650707
63141,7.619358,-4.074742,0.608268,-0.510907,0.256704,-0.596582
63142,7.640021,-4.262431,0.595257,-0.880571,0.327161,-0.594434
63143,7.571399,-4.786865,1.254568,-1.173628,0.444561,-0.605037
63144,7.287107,-5.582886,1.558840,-1.311386,0.516050,-0.622247
63145,6.917630,-6.318281,0.928316,-1.215260,0.495850,-0.674776
63146,6.980940,-6.783424,1.526070,-0.979791,0.422264,-0.702822
63147,7.146590,-6.426034,1.468582,-0.677523,0.299610,-0.748224
63148,7.410334,-6.345368,0.828191,-0.307409,0.082110,-0.795912
63149,7.816964,-6.023657,0.631797,0.019948,-0.067510,-0.824208
63150,8.059450,-5.576545,0.627440,0.224158,-0.197399,-0.830974
63151,8.795671,-5.333147,1.057047,0.291162,-0.226244,-0.819455
63152,9.160591,-5.035950,1.436337,0.219402,-0.148946,-0.776847
63153,8.628270,-4.285824,0.719061,0.010292,-0.066216,-0.756310
63154,8.295308,-3.843068,0.038498,-0.254999,-0.026828,-0.731869
63155,8.126825,-4.038474,0.265821,-0.530472,0.060326,-0.688387
63156,7.864451,-3.838984,-0.074370,-0.779007,0.111266,-0.689220
63157,7.632810,-3.802813,0.567115,-1.057575,0.178960,-0.672358
63158,7.833117,-4.230654,1.979583,-1.353124,0.273081,-0.668500
63159,7.796455,-4.982660,1.539469,-1.484882,0.332729,-0.710249
63160,7.828822,-5.856979,1.285793,-1.477682,0.312799,-0.727437
63161,8.073335,-6.375798,2.090857,-1.359315,0.269627,-0.747824
63162,8.112088,-6.700023,1.607925,-1.134761,0.154611,-0.759948
63163,8.417874,-6.748514,1.331682,-0.896609,0.024972,-0.717716
63164,8.679414,-6.246495,1.260803,-0.762747,-0.076237,-0.655438
63165,9.387559,-5.851420,1.043795,-0.767884,-0.148016,-0.559586
63166,10.242532,-5.866838,0.879964,-0.855338,-0.103945,-0.439463
63167,10.193919,-5.673947,0.680283,-0.959131,0.040781,-0.359745
63168,8.826073,-4.936662,-0.288380,-1.042798,0.091584,-0.331148
63169,8.611952,-5.166682,-0.681803,-1.080303,0.153533,-0.297896
63170,8.027357,-5.597565,-0.341748,-1.031767,0.233311,-0.287944
63171,7.712358,-5.451290,0.430150,-0.958977,0.285118,-0.316071
63172,7.536025,-4.843429,1.773363,-0.983030,0.325044,-0.340198
63173,7.672313,-4.112312,2.122606,-1.136590,0.326167,-0.382580
63174,7.752451,-4.004751,1.313587,-1.335442,0.283700,-0.418104
63175,7.749173,-4.635394,0.874104,-1.475291,0.176295,-0.451708
63176,8.100329,-5.765090,0.766065,-1.406991,0.050892,-0.476751
63177,8.661874,-6.810862,0.804201,-1.053845,-0.047679,-0.497652
63178,9.071441,-7.156041,0.645934,-0.559325,-0.100091,-0.499270
63179,9.423234,-6.894551,0.475315,-0.087833,-0.113089,-0.467108
63180,9.679706,-6.364755,0.415541,0.253381,-0.079482,-0.424419
63181,9.550970,-5.564348,0.818974,0.421960,-0.022060,-0.373112
63182,8.959149,-4.188423,0.631752,0.405194,0.032444,-0.360459
63183,8.540037,-2.997131,0.521093,0.174968,0.047735,-0.353221
63184,8.442084,-2.773676,0.772723,-0.179005,0.080738,-0.352627
63185,8.224360,-3.180280,1.021332,-0.459926,0.147577,-0.366331
63186,8.064591,-3.950195,1.181459,-0.569745,0.221290,-0.402763
63187,8.032288,-4.592028,1.564375,-0.498493,0.303789,-0.446369
63188,8.220658,-5.228262,1.513105,-0.255004,0.359846,-0.509680
63189,8.516694,-5.794449,0.924880,0.139736,0.379705,-0.566441
63190,8.897875,-6.035487,0.579704,0.597356,0.348678,-0.591797
63191,9.141009,-5.313215,0.542609,1.017097,0.321419,-0.599660
63192,8.977425,-4.066019,0.754833,1.238027,0.283656,-0.609224
63193,8.773935,-2.922846,1.458145,1.218961,0.237189,-0.632252
63194,8.813068,-2.713590,2.061239,0.962688,0.193981,-0.638999
63195,9.244998,-3.381329,2.645430,0.691364,0.201235,-0.627512
63196,9.787877,-3.806515,3.020711,0.531810,0.231954,-0.630641
63197,10.007085,-3.771873,2.770434,0.412558,0.270338,-0.598120
63198,9.943150,-3.620306,1.881373,0.225503,0.261513,-0.552839
63199,9.885667,-4.032424,1.066750,-0.009108,0.227222,-0.455835
63200,9.737885,-4.307352,0.781120,-0.155652,0.195352,-0.359061
63201,9.390319,-3.888797,0.380619,-0.257677,0.135083,-0.286831
63202,9.107790,-3.154247,-0.199656,-0.352763,0.058806,-0.251657
63203,9.202447,-2.981364,-0.803342,-0.443747,0.020127,-0.230270
63204,9.279324,-3.580163,-0.555721,-0.444361,0.053319,-0.200717
63205,9.062471,-3.995630,-0.067274,-0.335188,0.096422,-0.217659
63206,9.045889,-3.826252,0.642276,-0.187635,0.141272,-0.235733
63207,9.133118,-3.024184,1.806801,-0.102699,0.176598,-0.263302
63208,9.135761,-2.190971,2.385243,-0.176507,0.149361,-0.304933
63209,9.044993,-2.390559,2.274533,-0.329638,0.064577,-0.317881
63210,9.171838,-3.411421,1.840278,-0.341945,-0.037636,-0.316820
63211,9.546868,-4.319923,1.377380,-0.126137,-0.086467,-0.315647
63212,9.851290,-4.248564,1.275961,0.183713,-0.099400,-0.323419
63213,10.025203,-3.484671,1.135667,0.353863,-0.099247,-0.306280
63214,10.090452,-2.994604,0.724637,0.372934,-0.072669,-0.274217
63215,9.836108,-2.636744,0.604441,0.284991,-0.031014,-0.235015
63216,9.314086,-2.081985,0.438541,0.107830,-0.029017,-0.201770
63217,9.096895,-1.981471,0.290499,-0.116942,-0.030172,-0.180728
63218,8.970572,-2.233803,0.256310,-0.290790,-0.011988,-0.173169
63219,8.944813,-2.648683,0.918035,-0.398931,0.025774,-0.181970
63220,9.116617,-3.324316,1.790971,-0.408823,0.089075,-0.198215
63221,9.143498,-4.015429,1.809697,-0.243539,0.105764,-0.249716
63222,9.068633,-4.306961,1.652338,0.029000,0.084082,-0.282139
63223,9.098561,-4.210741,1.666507,0.319204,0.036096,-0.307430
63224,9.434665,-3.795515,1.528026,0.579700,-0.026491,-0.307264
63225,9.849009,-3.131318,1.488854,0.761351,-0.060252,-0.294681
63226,10.136014,-2.432957,1.756675,0.773160,-0.058668,-0.273512
63227,10.234508,-1.973287,1.540057,0.635193,-0.048925,-0.253422
63228,10.115379,-1.735064,1.197397,0.409080,-0.036813,-0.215965
63229,9.840693,-1.767707,1.028078,0.159724,-0.000411,-0.176254
63230,9.389137,-1.815310,0.877313,-0.040088,-0.009386,-0.154760
63231,9.203136,-2.204507,0.488519,-0.160972,-0.024127,-0.163855
63232,9.230518,-2.804088,0.315744,-0.130810,-0.018232,-0.158735
63233,9.294905,-2.940577,0.720774,-0.008179,0.011166,-0.179629
63234,9.394674,-2.435742,1.649504,0.047535,0.046298,-0.199110
63235,9.328093,-1.753651,1.993966,-0.016798,0.072026,-0.222252
63236,9.257440,-1.503828,1.832006,-0.162847,0.075457,-0.261627
63237,9.096728,-1.766034,1.474829,-0.279974,0.065914,-0.293742
63238,9.168043,-2.114812,1.231413,-0.337172,0.040817,-0.324109
63239,9.567584,-2.357121,1.367248,-0.342575,0.029458,-0.343305
63240,10.076451,-2.390692,1.739414,-0.336738,0.042292,-0.353999
63241,10.435696,-2.460394,2.174881,-0.351608,0.070763,-0.347280
63242,10.273338,-2.515003,1.699355,-0.324394,0.078456,-0.330651
63243,10.177435,-2.226600,0.973417,-0.318173,0.066587,-0.325876
63244,9.938442,-2.179632,0.853302,-0.359996,0.048355,-0.280822
63245,9.443316,-2.164064,0.326771,-0.416814,-0.013861,-0.244372
63246,9.445657,-2.342867,-0.244139,-0.442125,-0.105673,-0.208462
63247,9.398458,-2.705756,-0.078997,-0.423672,-0.132574,-0.179268
63248,9.484321,-3.166045,0.512642,-0.349539,-0.129236,-0.153749
63249,9.449613,-3.388196,0.893561,-0.253681,-0.101777,-0.131946
63250,9.244026,-3.220626,1.133163,-0.154601,-0.072882,-0.113928
63251,9.082701,-2.867696,1.313729,-0.124064,-0.054955,-0.108192
63252,9.017155,-2.599944,1.319737,-0.166138,-0.040311,-0.098880
63253,9.052740,-2.529550,1.298797,-0.234354,-0.034059,-0.092431
63254,9.120103,-2.778124,1.146623,-0.264477,-0.044528,-0.093533
63255,9.233516,-3.265221,1.020972,-0.196957,-0.052035,-0.089454
63256,9.412534,-3.610973,1.028558,-0.031348,-0.058102,-0.088695
63257,9.535506,-3.691192,0.917379,0.183535,-0.055543,-0.088040
63258,9.639952,-3.279660,0.966357,0.386146,-0.054315,-0.078772
63259,9.763237,-2.700250,1.165865,0.500335,-0.044102,-0.068579
63260,9.805543,-2.260732,1.332672,0.521172,-0.024802,-0.060316
63261,9.758860,-2.062000,1.279399,0.458880,-0.023063,-0.045618
63262,9.636955,-1.958751,1.308509,0.377923,-0.015825,-0.037294
63263,9.572063,-1.920684,1.303040,0.290521,-0.017903,-0.027414
63264,9.551768,-2.068472,1.274844,0.233568,-0.027110,-0.024706
63265,9.570696,-2.171988,1.245589,0.221528,-0.025222,-0.021049
63266,9.545395,-2.144759,1.249568,0.230795,-0.028086,-0.016510
63267,9.602213,-2.028505,1.336397,0.238222,-0.020101,-0.021999
63268,9.643976,-1.978735,1.380516,0.229727,-0.016832,-0.021706
63269,9.699284,-1.984170,1.296570,0.223027,-0.006479,-0.012517
63270,9.657477,-1.918308,1.232443,0.208084,-0.002485,-0.029151
63271,9.633906,-1.890631,1.280068,0.194376,0.005413,-0.032282
63272,9.667082,-1.873326,1.283092,0.188356,0.011504,-0.041177
63273,9.666513,-1.919414,1.258981,0.177441,0.007096,-0.044853
63274,9.757238,-1.965921,1.230324,0.161352,0.004754,-0.036008
63275,9.763852,-2.032085,1.219280,0.154783,0.002590,-0.034332
63276,9.861403,-1.940719,1.204033,0.138439,0.002608,-0.022566
63277,9.843877,-1.880945,1.250581,0.124983,0.016097,-0.011233
63278,9.756334,-1.792672,1.201668,0.092547,0.019118,0.000566
63279,9.690187,-1.762215,1.193396,0.043490,0.016806,0.006740
63280,9.628783,-1.857211,1.142198,-0.003423,0.021991,0.009778
63281,9.588148,-1.956185,1.118169,-0.030140,0.028682,0.004773
63282,9.539247,-2.089058,1.051826,-0.027242,0.019009,0.004799
63283,9.536039,-2.142079,0.983075,-0.014684,0.022409,-0.006999
63284,9.514790,-2.243102,0.943770,0.007333,0.018230,-0.010884
63285,9.503957,-2.309031,0.988538,0.040344,0.008064,-0.022083
63286,9.560682,-2.245481,1.087382,0.081442,0.019608,-0.025545
63287,9.502964,-2.105051,1.263117,0.113183,0.028503,-0.041169
63288,9.496661,-1.975021,1.268065,0.111021,0.033718,-0.049610
63289,9.491966,-1.949378,1.301562,0.093782,0.032668,-0.062998
63290,9.538026,-1.968031,1.290487,0.073236,0.033147,-0.075206
63291,9.558134,-1.963354,1.280201,0.053383,0.036969,-0.085172
63292,9.591060,-2.101397,1.242347,0.037221,0.039716,-0.091983
63293,9.703811,-2.253288,1.230144,0.034880,0.049900,-0.097037
63294,9.869025,-2.344297,1.230323,0.054256,0.050626,-0.087898
63295,9.922442,-2.274286,1.249507,0.086674,0.073351,-0.080542
63296,9.897239,-2.083912,1.300703,0.111457,0.079834,-0.082491
63297,9.733860,-1.815340,1.356984,0.115337,0.091680,-0.083917
63298,9.687594,-1.568146,1.408225,0.080211,0.083814,-0.090349
63299,9.683386,-1.591919,1.459299,0.016967,0.068324,-0.094113
63300,9.688144,-1.898476,1.469514,-0.013490,0.055142,-0.108422
63301,9.734674,-2.264044,1.506523,0.008554,0.053681,-0.102201
63302,9.694246,-2.438180,1.545206,0.073840,0.058388,-0.104311
63303,9.688414,-2.355577,1.567230,0.145242,0.067669,-0.086097
63304,9.639399,-2.162314,1.548537,0.177736,0.080539,-0.066499
63305,9.580823,-2.006635,1.447002,0.170934,0.094093,-0.043546
63306,9.524536,-1.904640,1.402976,0.151689,0.101363,-0.035085
63307,9.526927,-1.867852,1.330227,0.110182,0.112666,-0.023160
63308,9.571406,-1.837063,1.354912,0.070278,0.115185,-0.021276
63309,9.590639,-1.836812,1.395059,0.030693,0.125560,-0.027525
63310,9.550269,-1.933507,1.340535,0.003227,0.130956,-0.041554
63311,9.444168,-2.000739,1.272889,-0.017173,0.136435,-0.053097
63312,9.332476,-1.911452,1.074741,-0.022644,0.139925,-0.074461
63313,9.281507,-1.829611,0.917159,-0.039200,0.133851,-0.093875
63314,9.349498,-1.712090,0.825520,-0.083550,0.125538,-0.112533
63315,9.412286,-1.572994,0.802917,-0.135741,0.119004,-0.125689
63316,9.413996,-1.262517,0.861984,-0.228605,0.120978,-0.155578
63317,9.475616,-1.012671,0.934918,-0.359367,0.114168,-0.187067
63318,9.495698,-0.946730,0.997711,-0.504116,0.131900,-0.231299
63319,9.433403,-1.006584,0.977242,-0.633272,0.112372,-0.259182
63320,9.505504,-1.173424,0.908943,-0.729297,0.100216,-0.290392
63321,9.542037,-1.575965,0.834670,-0.758263,0.080225,-0.306646
63322,9.580297,-1.924728,0.823969,-0.700393,0.060202,-0.304568
63323,9.657190,-2.175826,0.922540,-0.578420,0.038490,-0.295935
63324,9.745900,-2.360761,1.062927,-0.415683,0.012743,-0.270945
63325,9.845079,-2.340060,1.223853,-0.237849,-0.002340,-0.237835
63326,9.848683,-2.269476,1.291110,-0.081433,-0.020556,-0.210448
