// Start Time: Unknown
// Update Rate: 100.0Hz
// Filter Profile: human (46.1)
// Firmware Version: 4.3.5
PacketCounter,Acc_X,Acc_Y,Acc_Z,Gyr_X,Gyr_Y,Gyr_Z
46027,9.449856,-2.078615,2.010868,0.022042,-0.032561,-0.067149
46028,9.510981,-2.125064,2.021653,0.020486,-0.037366,-0.080988
46029,9.540747,-2.163387,2.020747,0.020617,-0.025815,-0.098864
46030,9.489108,-2.172185,2.003367,0.021314,-0.016817,-0.112517
46031,9.419687,-2.229226,1.957788,0.022310,-0.015359,-0.122815
46032,9.359229,-2.204223,1.933087,0.010487,-0.008757,-0.128944
46033,9.362605,-2.256306,1.897169,0.002576,-0.009651,-0.127839
46034,9.365999,-2.294010,1.918806,-0.005082,-0.014287,-0.126899
46035,9.447465,-2.429343,1.831258,0.002824,-0.017180,-0.124424
46036,9.605465,-2.489633,1.879588,0.016124,-0.011780,-0.120961
46037,9.608617,-2.477794,1.879119,0.026433,-0.008981,-0.117172
46038,9.565667,-2.419157,1.826262,0.035548,-0.000026,-0.110091
46039,9.530902,-2.329409,1.817399,0.019802,0.007381,-0.101048
46040,9.529089,-2.376000,1.750437,0.003070,0.013326,-0.081710
46041,9.529792,-2.319798,1.729076,-0.010052,0.019332,-0.058507
46042,9.456391,-2.207110,1.733708,-0.039502,0.026008,-0.037384
46043,9.521434,-2.296582,1.665678,-0.063709,0.023457,-0.013656
46044,9.494961,-2.363865,1.652662,-0.067990,0.031842,-0.001823
46045,9.414162,-2.452087,1.623823,-0.050158,0.022337,0.008500
46046,9.404137,-2.421257,1.616570,-0.023463,0.015234,0.007450
46047,9.439561,-2.387167,1.639650,-0.000873,0.006807,0.001818
46048,9.389767,-2.380491,1.576529,0.014353,-0.001822,-0.007901
46049,9.389116,-2.314824,1.611828,0.028462,-0.008636,-0.016669
46050,9.380330,-2.280166,1.602901,0.023514,-0.021129,-0.027350
46051,9.422803,-2.315059,1.621227,0.025993,-0.029018,-0.035257
46052,9.479081,-2.340433,1.657245,0.034635,-0.039807,-0.042661
46053,9.558711,-2.388316,1.719508,0.040660,-0.039424,-0.051504
46054,9.602108,-2.420682,1.736720,0.061612,-0.046749,-0.051022
46055,9.644740,-2.403184,1.731215,0.081681,-0.047259,-0.048727
46056,9.628029,-2.367690,1.793353,0.097376,-0.044832,-0.044991
46057,9.601502,-2.300389,1.847683,0.096763,-0.041223,-0.037476
46058,9.601831,-2.231121,1.881096,0.089663,-0.035382,-0.028986
46059,9.601873,-2.162643,1.914768,0.075720,-0.028510,-0.023887
46060,9.585283,-2.194346,1.943547,0.068217,-0.018990,-0.011598
46061,9.558427,-2.180222,2.022627,0.050117,-0.008588,-0.002908
46062,9.611525,-2.109525,2.015852,0.037791,0.006458,0.002917
46063,9.611166,-2.109539,2.017549,0.019522,0.016262,0.009413
46064,9.568895,-2.072524,1.999733,0.002935,0.029904,0.014327
46065,9.639222,-2.004054,2.046568,-0.023716,0.036955,0.015348
46066,9.756283,-2.027692,1.973461,-0.049532,0.045927,0.015581
46067,9.781847,-2.012709,2.014057,-0.078728,0.059809,0.012795
46068,9.722841,-2.091757,1.934586,-0.098321,0.061563,0.011225
46069,9.731434,-2.141493,1.888802,-0.098712,0.060367,0.006891
46070,9.786370,-2.236980,1.896309,-0.080836,0.058099,-0.002937
46071,9.758244,-2.240398,1.921380,-0.054468,0.054243,-0.009627
46072,9.634897,-2.224737,1.910579,-0.029552,0.051012,-0.019741
46073,9.553345,-2.245697,1.919940,-0.006484,0.043347,-0.030473
46074,9.493430,-2.189628,1.910109,0.006048,0.041503,-0.040279
46075,9.435604,-2.211546,1.807261,0.016621,0.039556,-0.048356
46076,9.328144,-2.247005,1.779619,0.039094,0.035509,-0.051579
46077,9.247603,-2.264385,1.788724,0.059378,0.026367,-0.053930
46078,9.176036,-2.263832,1.782935,0.079373,0.020966,-0.056109
46079,9.131862,-2.260084,1.756032,0.105700,0.013289,-0.055573
46080,9.097000,-2.273007,1.795126,0.124153,0.004119,-0.059815
46081,9.175975,-2.282471,1.783055,0.142130,-0.001913,-0.066061
46082,9.222742,-2.270292,1.816573,0.151462,-0.006435,-0.071794
46083,9.280087,-2.304489,1.800824,0.168166,-0.006307,-0.074738
46084,9.295193,-2.285615,1.822466,0.166124,-0.006404,-0.072950
46085,9.314347,-2.241182,1.796019,0.162791,-0.005294,-0.072412
46086,9.388267,-2.225888,1.808615,0.138691,-0.000181,-0.063145
46087,9.416660,-2.215775,1.790660,0.114816,0.006110,-0.045898
46088,9.431237,-2.216954,1.754557,0.097005,0.013893,-0.025816
46089,9.441181,-2.245904,1.766809,0.079677,0.018562,-0.003710
46090,9.487708,-2.306457,1.766802,0.078083,0.017040,0.021214
46091,9.460153,-2.326197,1.733859,0.093083,0.019438,0.039646
46092,9.466697,-2.295882,1.780715,0.106892,0.018693,0.054535
46093,9.414681,-2.279276,1.778741,0.126315,0.013242,0.063485
46094,9.425221,-2.224545,1.777132,0.135473,0.008662,0.061468
46095,9.407661,-2.122607,1.772316,0.147554,0.006113,0.053295
46096,9.373008,-2.053992,1.796970,0.143689,0.000379,0.042810
46097,9.434855,-2.017024,1.799944,0.125400,-0.004732,0.032061
46098,9.449384,-2.073393,1.786795,0.107845,-0.003575,0.022787
46099,9.395188,-2.094323,1.773251,0.106185,-0.003627,0.017203
46100,9.445282,-2.114117,1.781266,0.107885,-0.008544,0.014722
46101,9.503254,-2.272425,1.756159,0.112550,-0.009605,0.023572
46102,9.582895,-2.609814,1.741720,0.159972,-0.011980,0.050076
46103,9.680877,-3.012592,1.748713,0.261378,-0.015796,0.085540
46104,9.722795,-3.406225,1.664258,0.437208,-0.023926,0.133225
46105,9.810596,-3.536768,1.676042,0.634043,-0.030412,0.203416
46106,9.784896,-3.311715,1.750111,0.785174,-0.038604,0.275074
46107,9.815454,-3.298304,1.827889,0.889084,-0.039078,0.349143
46108,9.869457,-3.587267,1.954199,1.015198,-0.041663,0.416664
46109,10.182320,-4.039436,2.115502,1.185488,-0.038375,0.497812
46110,10.545361,-4.178512,2.714605,1.442971,-0.004977,0.576728
46111,10.797062,-3.662328,3.304846,1.623435,0.068395,0.666999
46112,10.830704,-2.845830,3.716289,1.695582,0.193283,0.754010
46113,10.875024,-1.245918,4.702774,1.602114,0.381948,0.802097
46114,10.376732,0.402016,4.503534,1.045493,0.565731,0.845461
46115,9.687773,1.131129,4.006864,0.243721,0.702595,0.873922
46116,9.088146,0.977487,3.539689,-0.596303,0.782621,0.866223
46117,8.866202,-0.039063,3.393316,-1.284098,0.814188,0.833273
46118,8.912564,-1.626004,3.560478,-1.716082,0.844191,0.793461
46119,8.950242,-2.661397,4.057234,-1.892747,0.851837,0.779925
46120,8.818343,-3.266499,4.199264,-2.003710,0.852542,0.804163
46121,8.422714,-4.555121,3.494968,-1.979966,0.840669,0.837247
46122,7.668200,-7.034432,1.844729,-1.600218,0.743403,0.895670
46123,6.944981,-10.576317,0.306438,-0.514436,0.520280,0.933149
46124,7.227340,-12.779964,1.347109,1.444145,0.183093,0.852329
46125,8.936461,-11.270313,3.134891,3.365821,-0.099803,0.801692
46126,10.190033,-8.081227,3.139811,4.673374,-0.234062,0.877061
46127,10.646879,-4.848007,2.885368,5.161274,-0.274538,1.035171
46128,10.560669,-2.564280,2.755445,4.923186,-0.261297,1.209130
46129,10.429622,-1.389075,2.981260,4.277964,-0.233125,1.328957
46130,10.645689,-0.720386,4.301728,3.525350,-0.114444,1.347042
46131,10.962677,0.073297,5.751361,2.668685,0.113858,1.316390
46132,11.013160,1.190808,6.413000,1.666380,0.453382,1.276238
46133,10.474451,2.292186,5.981737,0.363255,0.864153,1.197719
46134,9.550986,1.914602,3.451765,-1.074611,1.244633,1.081192
46135,8.565642,-0.294683,1.084222,-2.196360,1.506498,0.963931
46136,8.208162,-3.250680,0.824576,-2.737289,1.685681,0.848380
46137,7.999248,-6.366517,0.701959,-2.884702,1.774477,0.868376
46138,7.592498,-8.766308,0.911602,-2.528069,1.715830,0.991884
46139,6.974103,-9.932100,0.647847,-2.060937,1.514776,1.177986
46140,6.123241,-11.498470,0.210630,-1.299953,1.177392,1.408166
46141,5.997523,-12.507338,1.496510,-0.073474,0.668686,1.563342
46142,7.383576,-12.056901,3.229646,1.462094,0.166919,1.674216
46143,9.398694,-9.338885,4.885778,2.737543,-0.119488,1.763286
46144,9.901781,-6.181764,4.589726,3.338500,-0.192820,1.875971
46145,8.911966,-3.807141,4.072702,3.424291,-0.211926,1.980096
46146,8.331990,-2.055985,4.967994,3.199199,-0.174762,1.974066
46147,8.198473,-1.338860,5.488274,2.542975,0.014000,1.869175
46148,8.118214,-1.607519,5.980174,1.819306,0.325267,1.676395
46149,8.190186,-2.293493,6.472222,1.121071,0.758913,1.442993
46150,7.616699,-3.009267,5.229642,0.455841,1.226183,1.218680
46151,6.249060,-2.740409,4.680028,-0.082926,1.562476,0.997422
46152,5.721059,-2.088101,5.468425,-0.696279,1.793128,0.786435
46153,5.803862,-2.959654,5.184118,-1.495516,1.952459,0.705485
46154,4.793447,-5.503420,3.345811,-2.168324,1.872254,0.859378
46155,4.166417,-8.318901,3.759053,-2.135815,1.614951,1.041742
46156,4.590371,-10.740420,4.797265,-1.365214,1.209997,1.199007
46157,5.351751,-11.845702,5.303723,-0.063350,0.650831,1.385518
46158,6.793755,-11.334848,5.277910,1.390728,0.202987,1.567833
46159,7.740386,-9.887364,5.033435,2.624497,-0.027421,1.704195
46160,7.707314,-7.639229,5.062606,3.398869,-0.120550,1.788557
46161,7.515792,-5.023682,6.136454,3.629322,-0.090388,1.803236
46162,7.536315,-3.025043,7.832673,3.230992,0.082452,1.722168
46163,7.397141,-2.670797,8.617542,2.513737,0.398157,1.572906
46164,6.803350,-2.319716,8.502887,1.826676,0.742139,1.358358
46165,5.753061,-0.628212,7.662975,1.145753,1.007726,1.086740
46166,4.668669,1.273930,6.344693,0.307237,1.222200,0.801517
46167,4.036817,1.438170,5.997213,-0.599316,1.425021,0.587028
46168,4.392416,-0.402017,7.186259,-1.365045,1.605704,0.418036
46169,5.392471,-2.642454,8.544807,-1.910621,1.804164,0.312289
46170,5.069571,-5.567659,6.689120,-2.497126,1.894214,0.402203
46171,3.593689,-9.197672,4.456821,-2.435269,1.760707,0.626570
46172,2.515848,-11.813629,4.661282,-1.584474,1.447749,0.751773
46173,2.352650,-12.970990,5.523241,-0.224681,0.910521,0.883451
46174,3.393932,-12.767042,6.054706,1.249078,0.347384,1.086403
46175,4.848364,-11.186415,6.165120,2.486529,-0.006658,1.282899
46176,5.187925,-8.331974,6.434131,3.266273,-0.157123,1.415832
46177,4.778879,-4.916536,7.530306,3.368140,-0.147314,1.447181
46178,4.175622,-2.724432,7.925077,2.807629,-0.024028,1.364848
46179,4.139561,-2.192403,8.282508,2.142731,0.267558,1.123039
46180,3.964601,-1.956852,9.035807,1.562432,0.659003,0.809025
46181,3.711223,-1.545707,9.726273,1.039168,1.058967,0.480294
46182,3.361219,-0.547661,10.341338,0.412062,1.459985,0.162472
46183,2.742501,-0.338829,9.738532,-0.466798,1.767602,-0.048299
46184,2.674978,-1.145970,9.562459,-1.331696,1.973209,-0.200905
46185,2.704938,-3.672548,7.793564,-2.156257,2.066231,-0.214760
46186,2.009727,-7.193838,6.041134,-2.480338,2.000236,-0.093248
46187,0.753907,-10.715443,4.229968,-2.125614,1.685584,0.129936
46188,-0.221543,-13.198692,3.582958,-0.965680,1.167230,0.321075
46189,0.139739,-13.605288,4.251184,0.638089,0.525508,0.476684
46190,1.598516,-11.728859,5.173945,2.124681,-0.047316,0.652009
46191,2.958984,-8.698655,5.731758,3.117914,-0.361922,0.761035
46192,3.492361,-5.620182,6.441602,3.422469,-0.473034,0.810154
46193,3.431250,-3.442077,6.940734,3.140499,-0.461527,0.783978
46194,3.644944,-2.399182,8.136182,2.638628,-0.260789,0.619951
46195,3.613548,-1.862068,8.943935,1.986551,0.066324,0.362604
46196,3.319148,-1.251422,9.505008,1.324877,0.431307,0.099279
46197,2.894519,-0.235778,9.831223,0.559366,0.764617,-0.157475
46198,2.568452,0.141693,9.359537,-0.365993,1.023049,-0.346606
46199,2.557428,-1.395776,8.620694,-1.256057,1.227205,-0.443528
46200,1.953222,-5.066758,6.216282,-1.904134,1.269457,-0.362458
46201,0.985538,-9.572193,4.599084,-1.738660,1.142198,-0.197591
46202,0.221801,-13.447124,4.445717,-0.801371,0.821503,-0.001783
46203,0.309811,-14.980029,6.069465,0.777150,0.327149,0.145999
46204,1.800514,-14.079176,6.785590,2.620684,-0.324176,0.391507
46205,3.657029,-10.534050,6.656985,4.079782,-0.788635,0.687499
46206,3.812880,-6.534264,6.429914,4.636253,-1.016077,1.001152
46207,3.632184,-4.075955,6.777370,4.420421,-1.144649,1.251339
46208,3.959578,-2.265881,8.470787,3.953681,-1.095967,1.286003
46209,3.753777,-0.201186,10.346551,3.295775,-0.830649,1.168804
46210,3.185913,1.035447,10.921507,2.533471,-0.486819,1.001054
46211,2.796850,2.408747,11.622961,1.709503,-0.055313,0.690458
46212,2.423656,3.524846,12.125392,0.769801,0.411075,0.318309
46213,2.660308,4.535188,12.980927,-0.340490,0.886460,-0.117489
46214,2.854962,3.948077,11.808372,-1.678511,1.319470,-0.416409
46215,3.098695,2.035493,11.221554,-2.849600,1.641400,-0.614190
46216,2.522033,-1.932143,7.890135,-3.942834,1.795080,-0.543918
46217,0.570936,-7.136357,5.445455,-4.078812,1.692268,-0.245716
46218,-1.011768,-10.884152,5.505038,-3.413701,1.307875,0.029899
46219,-1.070570,-13.291827,6.829045,-1.782174,0.726007,0.286158
46220,0.333019,-12.808737,8.728325,0.426877,0.122370,0.475480
46221,2.269798,-9.238433,8.922213,2.422231,-0.329925,0.616965
46222,2.701658,-4.445622,8.968840,3.562462,-0.494643,0.761223
46223,2.115162,-0.623808,9.704018,3.689168,-0.457475,0.811279
46224,1.842583,1.196859,10.798873,3.106422,-0.273566,0.738780
46225,1.923159,1.011135,11.200571,2.252017,0.073133,0.504620
46226,1.842046,1.104971,11.825424,1.513132,0.510777,0.134185
46227,1.926200,3.192433,13.717706,0.774382,0.952884,-0.304044
46228,1.847371,5.537603,13.805347,-0.584432,1.440131,-0.702950
46229,1.553285,6.094744,13.366782,-2.167231,1.850732,-0.967381
46230,2.449501,4.210451,12.858505,-3.698463,2.186353,-1.167334
46231,4.115848,0.468837,11.610287,-4.811546,2.515845,-1.265162
46232,3.692134,-3.720919,7.907088,-5.607733,2.713170,-1.109637
46233,0.487470,-8.821663,3.896518,-5.692919,2.556018,-0.642102
46234,-2.632045,-13.797462,3.295226,-4.598709,2.074992,-0.310263
46235,-2.742552,-16.570877,4.674437,-2.432059,1.326712,-0.109613
46236,-0.578222,-15.187372,6.161324,0.109976,0.570927,0.129491
46237,0.872068,-10.611182,6.859135,2.156540,0.149837,0.330664
46238,0.977942,-6.211911,7.152522,3.116797,-0.007862,0.466085
46239,0.763331,-3.997278,7.139093,3.205212,0.025543,0.510520
46240,0.557693,-3.026400,7.507787,2.797026,0.137547,0.446208
46241,0.484465,-2.321159,8.275971,2.174236,0.301225,0.291468
46242,1.021801,-0.393421,10.451878,1.430875,0.559300,0.070409
46243,1.025037,1.767781,11.511999,0.124402,0.923911,-0.127634
46244,0.787494,2.534009,11.129160,-1.460821,1.270899,-0.283769
46245,0.549329,0.798761,10.052219,-2.933319,1.539155,-0.344703
46246,0.772750,-2.733110,8.596910,-3.905969,1.709223,-0.356758
46247,0.000563,-6.931847,6.088663,-4.143607,1.719766,-0.214197
46248,-1.155549,-9.955249,5.284599,-3.619607,1.519667,-0.062583
46249,-2.229585,-12.536508,3.272867,-2.530402,1.117065,0.168037
46250,-2.952115,-13.616937,3.152557,-0.877376,0.569811,0.386244
46251,-2.977582,-14.007709,2.058918,0.867909,-0.061250,0.651051
46252,-2.234279,-13.000637,2.740182,2.704215,-0.668822,0.873407
46253,-0.665511,-10.933995,3.223283,4.208459,-1.124363,1.032689
46254,0.327737,-7.991950,4.684678,5.298551,-1.320377,1.140332
46255,1.019809,-4.143994,7.688117,5.896636,-1.285184,1.117039
46256,1.543231,0.124610,9.983189,5.621823,-0.970349,0.938396
46257,1.055038,3.118415,9.993502,4.479600,-0.479217,0.720294
46258,-0.330426,5.051466,10.168724,2.817178,0.011968,0.421739
46259,-1.138840,6.488961,11.544785,0.899063,0.393838,0.067409
46260,-0.468148,6.787620,12.719781,-1.176707,0.719189,-0.247677
46261,0.378257,5.399152,12.408962,-3.137688,1.053789,-0.428494
46262,0.302323,1.901811,10.669965,-4.611309,1.320992,-0.476325
46263,0.134261,-1.711239,8.332876,-5.283042,1.444585,-0.509447
46264,-1.040547,-5.186305,4.679166,-5.511662,1.408182,-0.391739
46265,-2.992877,-9.315300,3.495172,-4.824537,1.199770,-0.225448
46266,-3.855882,-13.087267,3.369615,-3.314221,0.750228,-0.082964
46267,-3.714261,-15.510505,3.768363,-0.899423,0.172048,0.033663
46268,-2.131606,-13.923477,4.968632,1.750798,-0.426011,0.119286
46269,-0.543822,-9.529903,5.292445,3.695279,-0.763225,0.219814
46270,-0.274669,-5.423534,6.367123,4.649341,-0.829613,0.328639
46271,-0.522974,-2.334822,8.590359,4.770668,-0.757565,0.397190
46272,-0.305743,-0.432069,10.640809,4.228625,-0.627919,0.398368
46273,0.316931,0.102711,12.119822,3.175312,-0.389715,0.367083
46274,-0.086083,-0.077305,10.590275,1.869538,-0.082361,0.295691
46275,-1.101098,1.348185,9.612673,0.771114,0.138299,0.141254
46276,-0.556743,4.678774,10.484441,-0.552116,0.371972,-0.262704
46277,0.160700,6.990434,10.868272,-2.210624,0.730959,-0.625788
46278,0.414562,7.984643,10.203456,-4.105423,1.081764,-0.886672
46279,0.770723,6.622979,8.428703,-6.136453,1.396318,-0.992296
46280,1.134336,3.359409,6.532253,-8.062949,1.702997,-0.945160
46281,0.754390,-2.652218,3.107589,-9.378802,1.942937,-0.787108
46282,-1.852260,-11.100191,-2.755372,-9.586123,1.928821,-0.411877
46283,-5.563052,-19.967045,-2.526476,-7.332422,1.519471,-0.197863
46284,-6.171044,-24.910860,1.686675,-3.318951,0.674300,-0.192150
46285,-2.870324,-21.451133,3.284632,1.360520,-0.421342,-0.153152
46286,-0.518337,-13.118488,3.167620,4.641811,-0.887531,0.031949
46287,-0.988921,-6.992713,2.940551,6.170534,-1.027704,0.259868
46288,-1.752168,-3.167950,3.582878,6.495033,-1.083485,0.364831
46289,-1.458382,0.360619,6.224251,5.997939,-1.100870,0.282180
46290,-0.238526,2.823714,8.616378,4.583723,-0.851237,0.074059
46291,0.275751,3.856168,9.768838,2.716315,-0.432010,-0.116225
46292,0.390969,5.205598,10.492314,0.651481,-0.041370,-0.383211
46293,-0.556505,6.298023,10.390188,-1.688337,0.295328,-0.638387
46294,-0.429729,5.200652,10.019636,-3.963813,0.543150,-0.764120
46295,0.497822,1.650543,8.958557,-5.846220,0.791149,-0.758720
46296,0.895293,-3.066316,6.259401,-6.916966,1.021061,-0.656150
46297,-0.191541,-8.176108,2.302027,-7.150369,1.022897,-0.414252
46298,-2.031196,-14.193404,-0.154652,-6.019514,0.903953,-0.149994
46299,-2.433179,-19.555233,0.917398,-3.371770,0.539121,-0.100663
46300,-1.466407,-20.969671,0.308409,0.374711,-0.235352,0.058324
46301,-0.173559,-15.927285,0.830404,3.886176,-0.833692,0.308509
46302,-0.283642,-9.316698,1.496444,5.942595,-1.144843,0.528411
46303,-1.032666,-4.152877,3.261716,6.645009,-1.271107,0.641060
46304,-0.834969,-0.142221,6.675730,6.246315,-1.248724,0.596564
46305,0.029476,1.964898,9.465996,4.926214,-1.013471,0.421629
46306,0.467912,1.806796,9.602788,3.150722,-0.691236,0.291194
46307,0.112756,2.304162,10.136263,1.409035,-0.321767,0.077111
46308,-0.549727,3.851584,10.555068,-0.552203,-0.014891,-0.233073
46309,-0.441573,4.078485,10.137675,-2.626343,0.273556,-0.513306
46310,0.087169,1.922599,9.397548,-4.400022,0.543195,-0.685890
46311,0.325022,-2.113107,6.440562,-5.730620,0.746289,-0.717696
46312,-2.069352,-8.823469,1.809057,-6.146538,0.756085,-0.500110
46313,-5.519744,-15.328869,1.212303,-4.939493,0.488656,-0.358290
46314,-6.343553,-19.336286,3.195151,-2.279611,-0.148796,-0.359709
46315,-3.229622,-18.471183,5.475097,1.108443,-0.983186,-0.277988
46316,-0.378495,-14.039896,5.088516,3.804313,-1.441767,-0.048419
46317,-0.852686,-10.206249,3.669494,5.361263,-1.668753,0.257341
46318,-1.264492,-8.359972,2.951711,6.068104,-1.951844,0.520632
46319,-0.086191,-6.161797,5.057247,6.356350,-2.152156,0.685877
46320,1.236777,-2.016032,10.366731,6.158301,-2.000988,0.583425
46321,1.432351,1.957602,12.809448,4.864226,-1.566853,0.422395
46322,0.172358,3.747645,12.647659,3.082449,-1.055541,0.271081
46323,-0.929871,4.632169,13.230988,1.100735,-0.546245,-0.099161
46324,-0.408889,3.958345,13.390810,-0.726649,-0.174360,-0.507712
46325,0.707290,1.804346,12.174405,-2.282845,0.174251,-0.754479
46326,0.597590,-0.777388,11.013817,-3.419324,0.439457,-0.785424
46327,-0.318687,-5.706646,6.942129,-4.123735,0.462997,-0.629536
46328,-1.598858,-10.332571,5.186816,-3.559703,0.264435,-0.448211
46329,-1.772984,-13.481491,4.649105,-2.228348,-0.160030,-0.304111
46330,-0.712111,-14.404753,5.633443,-0.097806,-0.686584,-0.117099
46331,1.261572,-12.632760,6.227143,1.916122,-1.165210,0.099560
46332,1.869497,-10.105471,5.123665,3.307663,-1.462863,0.429154
46333,1.525936,-6.968059,6.239314,4.221733,-1.611212,0.699868
46334,1.644066,-3.214243,9.057363,4.261891,-1.578439,0.751698
46335,1.690815,-1.393806,9.539995,3.618456,-1.374957,0.740411
46336,1.520560,0.210704,10.880621,2.740715,-1.016195,0.593582
46337,1.153980,1.940274,11.673219,1.536431,-0.623203,0.347409
46338,1.287409,3.715441,12.271321,0.019682,-0.169554,-0.003821
46339,0.465868,3.152967,11.592525,-1.556708,0.259740,-0.319184
46340,0.514403,0.779572,10.826132,-2.791943,0.515776,-0.565405
46341,1.355803,-1.847651,9.832983,-3.585038,0.674633,-0.747772
46342,1.235441,-4.809010,6.528398,-4.211221,0.709785,-0.735490
46343,-1.735955,-8.840235,2.071388,-4.337903,0.483394,-0.449689
46344,-4.042747,-12.064687,2.082120,-3.387939,-0.048931,-0.279684
46345,-2.828868,-13.791801,3.643239,-1.720177,-0.766408,-0.151937
46346,0.521857,-13.634434,6.360489,0.294802,-1.342657,-0.015692
46347,2.688257,-12.714152,5.982321,2.054215,-1.764758,0.215375
46348,2.402394,-9.912451,6.458889,3.618038,-2.002914,0.497463
46349,2.054608,-5.256495,9.063122,4.430729,-2.046603,0.642750
46350,1.530522,-2.045167,9.719375,4.109005,-1.878393,0.686856
46351,0.923454,-0.733918,9.366285,3.250671,-1.583217,0.619181
46352,0.289571,0.793430,9.792095,2.166476,-1.221519,0.382795
46353,0.481365,3.381309,12.014638,0.906320,-0.840233,-0.004277
46354,1.414526,4.956082,13.875351,-0.700194,-0.331024,-0.435803
46355,1.542446,3.334737,13.378543,-2.364580,0.175985,-0.714036
46356,1.306004,0.239391,12.193705,-3.605155,0.503564,-0.879935
46357,1.573342,-3.677069,9.313440,-4.403242,0.682926,-0.978786
46358,0.565684,-7.508677,5.436087,-4.483233,0.645229,-0.892861
46359,-1.128638,-9.804073,3.624607,-3.932202,0.342483,-0.783475
46360,-1.575824,-11.417532,3.022651,-2.816428,-0.167480,-0.653729
46361,-0.127779,-11.896212,4.818966,-1.273143,-0.745651,-0.539595
46362,2.628677,-11.952981,6.425859,0.263081,-1.231910,-0.376105
46363,4.104215,-11.366821,6.547829,1.612155,-1.548469,-0.135071
46364,3.564582,-9.124746,6.557023,2.656302,-1.756102,0.089978
46365,3.165212,-5.873872,7.940276,3.120223,-1.836037,0.231035
46366,2.869436,-3.231811,8.850180,2.868315,-1.742538,0.287245
46367,2.137994,-1.665046,8.338476,2.158076,-1.557567,0.251962
46368,1.630286,-0.010096,9.108859,1.350615,-1.279598,0.051468
46369,1.792057,1.381372,10.262683,0.318388,-0.946502,-0.249610
46370,2.425427,1.862850,11.185149,-0.829861,-0.542693,-0.571019
46371,2.674687,0.505680,10.857439,-1.913369,-0.166256,-0.818726
46372,2.571042,-1.705782,9.766102,-2.731435,0.066365,-0.969345
46373,1.974011,-4.257359,7.194563,-3.263789,0.103826,-0.975865
46374,0.866386,-6.681075,4.609322,-3.415430,-0.075140,-0.892803
46375,-0.421491,-9.271620,2.318393,-3.041487,-0.495052,-0.737877
46376,-0.333535,-10.972536,2.543126,-1.995468,-1.081376,-0.626706
46377,2.193061,-11.141864,4.505441,-0.634383,-1.674527,-0.577989
46378,4.828731,-10.977415,4.945552,0.530030,-2.121961,-0.450334
46379,5.327965,-10.194053,4.795757,1.550011,-2.473830,-0.220229
46380,5.006515,-8.498683,4.790714,2.244326,-2.801198,-0.004224
46381,5.288736,-6.852662,5.002664,2.567902,-3.010215,0.125449
46382,5.732528,-5.385399,6.631376,2.720012,-3.037998,0.178426
46383,5.621982,-4.061222,8.267320,2.569920,-2.891670,0.191915
46384,4.864477,-3.131389,8.882386,2.279932,-2.634344,0.171939
46385,4.116381,-1.665145,9.209752,1.858420,-2.283190,0.042676
46386,3.600721,0.257373,9.646775,1.185213,-1.875692,-0.228089
46387,3.773987,1.865423,10.340201,0.267923,-1.434645,-0.584570
46388,4.604775,2.453502,11.052659,-0.823049,-0.941407,-0.978181
46389,5.380282,1.479704,10.875792,-1.923266,-0.470100,-1.297042
46390,5.311263,-0.813905,9.326596,-2.915235,-0.109779,-1.488523
46391,4.586083,-4.061639,7.090362,-3.511903,0.007049,-1.530715
46392,3.841188,-7.078914,5.074355,-3.606634,-0.136625,-1.467239
46393,3.678836,-9.334199,4.057900,-3.170582,-0.484852,-1.345476
46394,4.545002,-10.261071,5.004398,-2.286992,-0.895995,-1.241710
46395,6.267399,-10.234828,6.309750,-1.286012,-1.257916,-1.151418
46396,7.896570,-9.940585,6.620810,-0.277254,-1.495080,-1.043448
46397,8.313863,-9.544595,6.083979,0.703627,-1.649629,-0.892703
46398,7.753124,-7.972568,6.430318,1.567601,-1.728781,-0.744395
46399,7.351408,-5.717982,7.220948,2.008920,-1.728172,-0.666451
46400,6.928154,-4.032758,7.777299,1.956210,-1.616248,-0.647571
46401,6.955370,-3.534729,7.162304,1.639069,-1.457458,-0.633730
46402,6.441260,-2.580961,7.322105,1.208173,-1.172471,-0.719152
46403,6.221197,-0.958204,7.634611,0.592751,-0.889335,-0.905524
46404,6.370693,0.778786,8.068823,-0.326550,-0.586494,-1.155399
46405,6.886203,1.308103,8.739213,-1.346851,-0.243323,-1.418373
46406,7.583534,-0.447886,8.346332,-2.243611,0.106726,-1.681750
46407,7.467015,-4.701549,5.491926,-2.676183,0.335569,-1.789402
46408,6.479338,-9.205746,2.563978,-2.333546,0.290935,-1.718755
46409,5.531267,-12.016312,1.538533,-1.203531,-0.069560,-1.495134
46410,6.147630,-11.381469,3.749270,0.279724,-0.536761,-1.273107
46411,7.698482,-8.394345,6.833474,1.449425,-0.923179,-1.055170
46412,9.955736,-5.850951,8.721283,2.092112,-1.183545,-0.776004
46413,10.276580,-4.313725,8.839231,2.334110,-1.157648,-0.461676
46414,8.803224,-2.806204,8.189742,2.286315,-1.126451,-0.234155
46415,7.561920,-2.071498,7.365393,1.923697,-1.067455,-0.180893
46416,6.803223,-1.848790,6.388540,1.379240,-0.975174,-0.289538
46417,6.788810,-1.285010,6.161138,0.808155,-0.829396,-0.504110
46418,6.876333,0.241238,7.012620,0.078901,-0.614482,-0.786992
46419,6.925948,1.624421,7.680647,-0.916264,-0.373881,-1.058523
46420,7.266924,2.196684,8.373946,-2.019766,-0.138514,-1.307330
46421,7.903065,0.960028,7.824888,-3.008675,0.099163,-1.507015
46422,8.280496,-0.964725,6.668552,-3.694558,0.282795,-1.643066
46423,7.315161,-4.386646,2.907623,-4.243341,0.295839,-1.544960
46424,6.219536,-7.880857,1.059894,-3.806334,0.047314,-1.353049
46425,6.083785,-9.196124,1.841659,-2.813074,-0.268785,-1.244351
46426,6.447866,-9.538117,2.699443,-1.412669,-0.659837,-1.099372
46427,7.516904,-7.556320,4.826733,0.142976,-0.997717,-1.009433
46428,8.483353,-5.355061,6.340256,1.304387,-1.168804,-0.946263
46429,8.229698,-4.048146,5.743081,2.022022,-1.273903,-0.843619
46430,6.863795,-2.846898,4.843636,2.177403,-1.418010,-0.719632
46431,6.612752,-2.114642,4.675582,1.924466,-1.553467,-0.728083
46432,7.435551,-0.975410,5.613397,1.348557,-1.531981,-0.901769
46433,8.048003,1.139247,6.463732,0.500889,-1.411446,-1.153937
46434,9.003790,4.191734,8.025329,-0.716697,-1.187613,-1.444372
46435,9.841018,5.835132,7.252022,-2.523981,-0.848013,-1.629849
46436,10.092326,4.515715,4.382345,-4.395561,-0.507929,-1.711459
46437,10.026127,0.197174,2.057667,-5.381363,-0.237846,-1.791870
46438,10.502449,-5.581175,1.030863,-5.109689,-0.024744,-1.903951
46439,10.871832,-10.196570,0.083501,-3.702014,-0.069876,-1.893475
46440,10.481791,-11.432637,0.747779,-1.728123,-0.230255,-1.768701
46441,10.147055,-10.069732,1.763501,0.153970,-0.497012,-1.546899
46442,10.448078,-7.778961,3.121077,1.710669,-0.715744,-1.293840
46443,11.058725,-5.123961,4.495999,2.725610,-0.788445,-1.073386
46444,10.924016,-3.028597,3.826292,3.216700,-0.765789,-0.838040
46445,10.154054,-0.547516,3.293863,3.276333,-0.742622,-0.606995
46446,9.750655,1.353438,3.311858,2.693987,-0.727245,-0.415233
46447,10.187751,0.386104,3.176126,1.826864,-0.592086,-0.295788
46448,10.576335,-1.064149,2.892216,1.226234,-0.370526,-0.366283
46449,10.542912,-0.035181,3.733112,0.632285,-0.198732,-0.464506
46450,10.426806,1.820400,2.986555,-0.426378,-0.064217,-0.491981
46451,9.689571,1.806370,2.419989,-1.500622,0.094717,-0.532159
46452,9.230049,0.980027,3.469329,-2.317446,0.162680,-0.578866
46453,9.254979,-0.646962,3.606880,-2.871299,0.206593,-0.607469
46454,9.229430,-2.602886,2.923453,-2.994320,0.196785,-0.591494
46455,8.766034,-4.472511,1.970873,-2.667109,0.139860,-0.507066
46456,8.177673,-5.731803,2.323447,-1.814981,-0.029141,-0.466268
46457,8.229952,-7.064325,2.219665,-0.551613,-0.259062,-0.449548
46458,8.829767,-7.579621,2.797054,1.033730,-0.472524,-0.422452
46459,9.088378,-5.861638,3.379197,2.340073,-0.616977,-0.340490
46460,9.227607,-2.881471,3.430372,3.014848,-0.694340,-0.201707
46461,9.323674,0.871627,4.037413,2.908836,-0.691841,-0.106636
46462,9.448002,4.056810,4.238275,1.878195,-0.611701,-0.109644
46463,9.661711,3.282696,2.360749,0.396030,-0.449122,-0.144581
46464,9.461987,1.074420,1.163801,-0.610263,-0.310477,-0.354017
46465,8.994559,0.380517,0.955940,-1.301501,-0.277204,-0.554967
46466,9.342553,0.608200,1.644557,-1.862426,-0.307469,-0.675240
46467,10.124191,0.846641,2.844864,-2.461639,-0.231131,-0.766167
46468,10.012841,0.138782,2.862429,-2.946477,-0.136780,-0.760032
46469,9.584364,-1.059302,2.392345,-3.168720,-0.115446,-0.709334
46470,9.187340,-2.464038,1.869076,-3.009864,-0.138984,-0.665010
46471,8.949820,-4.097688,1.883532,-2.378362,-0.206785,-0.633464
46472,9.232018,-4.800767,2.591002,-1.397727,-0.327200,-0.616054
46473,9.587166,-4.211554,3.083349,-0.477521,-0.427862,-0.560728
46474,9.879438,-2.727751,3.353031,0.161368,-0.469649,-0.485307
46475,10.056480,-1.535962,3.496754,0.434085,-0.444006,-0.408198
46476,10.123557,-0.794466,3.685796,0.432330,-0.386977,-0.357428
46477,10.005625,-0.212040,3.692908,0.242090,-0.338868,-0.324947
46478,9.899078,0.139703,3.554711,-0.055378,-0.300891,-0.305915
46479,9.886454,0.196109,3.354762,-0.368977,-0.247918,-0.300666
46480,9.981585,-0.023614,3.106476,-0.646789,-0.204383,-0.296922
46481,10.091245,-0.615994,2.819127,-0.818852,-0.153364,-0.271758
46482,10.002266,-1.159885,2.548993,-0.893368,-0.124514,-0.239026
46483,9.800815,-1.524341,2.299529,-0.865131,-0.114078,-0.199561
46484,9.773388,-1.611721,2.228576,-0.791447,-0.118229,-0.164752
46485,9.867746,-1.750000,2.229482,-0.652691,-0.115485,-0.144358
46486,9.938109,-1.733899,2.409491,-0.508062,-0.090680,-0.124106
46487,9.864408,-1.711172,2.578219,-0.390225,-0.068156,-0.089494
46488,9.746905,-1.675621,2.582737,-0.269392,-0.053889,-0.058220
46489,9.682719,-1.693481,2.600944,-0.120255,-0.039350,-0.037500
46490,9.660654,-1.510075,2.636545,0.035244,-0.032566,-0.019645
46491,9.764815,-1.403841,2.692434,0.160686,-0.017839,-0.001962
46492,9.759110,-1.299298,2.608322,0.254128,-0.011774,0.015775
46493,9.724532,-1.069069,2.582266,0.335926,-0.000264,0.024849
46494,9.734051,-0.976767,2.462952,0.368660,0.002251,0.031233
46495,9.777132,-0.925968,2.357218,0.400419,0.017758,0.035852
46496,9.774047,-0.905945,2.276662,0.427246,0.033805,0.038726
46497,9.650643,-0.820606,2.299695,0.448535,0.043812,0.044103
46498,9.556895,-0.720445,2.248981,0.455247,0.050694,0.047461
46499,9.548260,-0.515765,2.341597,0.452403,0.062545,0.036798
46500,9.594275,-0.035255,2.629075,0.403251,0.087605,0.016402
46501,9.619548,0.393344,2.519301,0.202411,0.119653,0.009683
46502,9.586947,0.589041,2.443148,-0.061573,0.149612,-0.002027
46503,9.589004,0.185402,2.225909,-0.330541,0.174145,-0.017882
46504,9.663104,-0.301269,2.070242,-0.499523,0.173378,-0.023285
46505,9.692093,-0.704081,2.052779,-0.572975,0.163593,-0.025996
46506,9.816161,-1.005185,2.016873,-0.570825,0.148560,-0.010608
46507,9.816438,-1.185303,1.991140,-0.502390,0.133533,0.012238
46508,9.741726,-1.269965,2.041364,-0.379172,0.111453,0.030427
46509,9.758220,-1.349759,2.096771,-0.241056,0.084915,0.039037
46510,9.820308,-1.382604,2.042628,-0.080558,0.075148,0.052132
46511,9.763238,-1.306600,2.125568,0.059679,0.065101,0.060423
46512,9.692147,-1.074092,2.227993,0.156740,0.047942,0.064961
46513,9.742967,-0.806347,2.176382,0.191268,0.044832,0.071144
46514,9.612143,-0.545769,2.110235,0.181226,0.050141,0.065801
46515,9.549157,-0.592851,2.088073,0.152194,0.043616,0.057964
46516,9.630988,-0.690604,2.083396,0.141502,0.030472,0.052139
46517,9.715200,-0.745518,2.112713,0.145631,0.031562,0.046030
46518,9.634564,-0.735419,2.125625,0.146346,0.027146,0.039254
46519,9.597828,-0.835776,2.133993,0.158566,0.021680,0.034560
46520,9.653743,-0.974178,2.149542,0.188939,0.014657,0.032221
46521,9.633659,-0.874654,2.188505,0.223078,0.009801,0.034441
46522,9.670107,-0.687984,2.219066,0.224524,0.003408,0.032147
46523,9.662221,-0.700653,2.239822,0.208540,0.013564,0.036749
46524,9.576647,-0.647000,2.216202,0.176484,0.010465,0.040227
46525,9.510168,-0.578116,2.276618,0.143568,0.014389,0.039478
46526,9.500451,-0.538173,2.209347,0.094233,0.014323,0.036016
46527,9.469719,-0.583607,2.198206,0.045854,0.017879,0.035686
46528,9.451299,-0.530495,2.235311,-0.017405,0.013569,0.041523
46529,9.472417,-0.591304,2.235186,-0.079995,0.015817,0.043081
46530,9.450451,-0.669925,2.205120,-0.128668,0.015496,0.053196
46531,9.493249,-0.916528,2.170579,-0.136528,0.016599,0.047968
46532,9.538330,-1.119616,2.169316,-0.082944,0.013820,0.050722
46533,9.583102,-1.194459,2.200703,-0.017857,0.009959,0.055570
46534,9.579647,-1.115624,2.200245,0.023857,0.003409,0.064568
46535,9.542254,-0.952961,2.184496,0.059038,-0.004266,0.064128
46536,9.640565,-0.953514,2.259898,0.075518,-0.017285,0.062021
46537,9.755431,-0.967988,2.298406,0.091791,-0.018903,0.066003
46538,9.718609,-0.944529,2.336000,0.091669,-0.013826,0.066253
46539,9.654285,-0.781919,2.339018,0.074127,-0.018451,0.075206
46540,9.627858,-0.690269,2.303881,0.035258,-0.017964,0.070894
46541,9.697004,-0.778637,2.365965,-0.010603,-0.011075,0.073646
46542,9.695891,-0.913933,2.333113,-0.028408,-0.001731,0.077653
46543,9.646211,-0.867228,2.354438,-0.049159,-0.000300,0.086973
46544,9.568627,-0.809596,2.309224,-0.086068,0.003676,0.094394
46545,9.579224,-0.806794,2.324681,-0.124962,0.006782,0.101352
46546,9.635194,-1.073247,2.253240,-0.124499,0.020057,0.106531
46547,9.619030,-1.143305,2.204521,-0.084726,0.021800,0.108422
46548,9.582381,-1.000072,2.276965,-0.045880,0.021167,0.112755
46549,9.614697,-0.913295,2.238784,-0.041707,0.024688,0.117872
46550,9.592288,-0.869379,2.242437,-0.050696,0.027705,0.113261
46551,9.582284,-0.853156,2.262379,-0.063689,0.024275,0.111002
46552,9.639586,-0.822373,2.257051,-0.080829,0.024548,0.111583
46553,9.630527,-0.835674,2.190017,-0.099531,0.024066,0.106608
46554,9.636701,-0.847401,2.260111,-0.112739,0.024866,0.102539
46555,9.636063,-0.888449,2.174777,-0.113052,0.023135,0.098447
46556,9.626413,-0.871701,2.194056,-0.115788,0.023000,0.087920
46557,9.577445,-0.868905,2.217414,-0.116596,0.015211,0.086572
46558,9.580970,-0.908035,2.164918,-0.126170,0.006283,0.082398
46559,9.567375,-0.862054,2.234995,-0.129604,0.005544,0.078449
46560,9.598225,-0.871858,2.248225,-0.121411,0.003226,0.073029
46561,9.641794,-0.937365,2.190587,-0.120744,0.003867,0.066479
46562,9.653274,-1.016558,2.206009,-0.099403,0.005761,0.065411
46563,9.683906,-0.982268,2.219507,-0.087648,0.003813,0.060379
46564,9.654945,-0.905624,2.239881,-0.073099,0.006664,0.062616
46565,9.654297,-0.913217,2.239589,-0.074773,0.001232,0.060356
46566,9.637577,-0.906698,2.275769,-0.078221,0.005582,0.056665
46567,9.676722,-0.941708,2.270912,-0.074229,0.001028,0.051726
46568,9.636472,-0.920128,2.275057,-0.069026,0.005620,0.048781
46569,9.628049,-0.982307,2.292774,-0.060357,0.003443,0.038229
46570,9.631401,-1.029280,2.326855,-0.044215,0.008424,0.029356
