// Start Time: Unknown
// Update Rate: 100.0Hz
// Filter Profile: human (46.1)
// Firmware Version: 4.3.5
PacketCounter,Acc_X,Acc_Y,Acc_Z,Gyr_X,Gyr_Y,Gyr_Z
45355,10.192505,-0.455826,0.282305,0.005108,0.070786,0.119036
45356,10.153110,-0.351895,0.301249,0.014561,0.057513,0.100873
45357,10.146220,-0.362052,0.340706,0.024077,0.050102,0.088668
45358,10.040368,-0.293482,0.362200,0.028284,0.045336,0.076197
45359,9.957563,-0.216335,0.387756,0.025210,0.044949,0.064098
45360,9.949019,-0.206104,0.408425,0.023098,0.042226,0.058181
45361,9.887523,-0.142512,0.349263,0.015810,0.039321,0.053204
45362,9.841484,-0.161533,0.344245,0.012162,0.040047,0.043909
45363,9.814847,-0.139189,0.308351,0.002893,0.038876,0.039570
45364,9.822924,-0.159163,0.295405,-0.002186,0.028563,0.036385
45365,9.776949,-0.176915,0.289090,-0.003469,0.026341,0.035436
45366,9.809701,-0.206071,0.297238,-0.011995,0.019797,0.030116
45367,9.857151,-0.211384,0.325585,-0.018951,0.014917,0.024342
45368,9.948719,-0.185291,0.345740,-0.021394,0.028006,0.020116
45369,9.854665,-0.013008,0.421986,-0.029903,0.046193,-0.002359
45370,9.841037,0.093661,0.460420,-0.034359,0.037702,-0.021354
45371,9.941085,0.001618,0.500267,-0.038805,0.051770,-0.034718
45372,9.894995,-0.008430,0.496526,-0.044845,0.056881,-0.052974
45373,9.933444,0.117859,0.512316,-0.046385,0.066131,-0.070572
45374,9.915796,0.264821,0.519472,-0.052663,0.092196,-0.090960
45375,9.850749,0.378114,0.430313,-0.057575,0.095773,-0.125222
45376,9.789245,0.558416,0.097550,-0.052961,0.107953,-0.161563
45377,9.555071,0.977878,-0.263874,-0.048705,0.108980,-0.208421
45378,9.532669,1.361243,-0.583789,-0.076553,0.102347,-0.269115
45379,9.543567,1.805127,-0.277323,-0.140534,0.115434,-0.337368
45380,9.582848,2.062133,0.420804,-0.343467,0.074256,-0.401140
45381,9.895767,1.758755,0.683933,-0.559773,0.047853,-0.441798
45382,9.913668,1.080722,0.711747,-0.695814,0.043529,-0.451601
45383,9.857979,0.522526,0.790197,-0.740029,0.027034,-0.447797
45384,10.012349,0.177010,0.912453,-0.756333,0.013579,-0.432210
45385,10.224241,-0.208261,0.844181,-0.763953,0.034647,-0.403883
45386,10.382454,-0.559167,0.852395,-0.727542,0.072630,-0.362790
45387,10.672275,-0.907589,1.205694,-0.659475,0.126694,-0.315519
45388,10.987805,-1.071320,1.620567,-0.569898,0.212947,-0.273207
45389,11.022076,-1.160775,2.315822,-0.449559,0.341363,-0.247751
45390,11.344647,-1.117454,3.245325,-0.320204,0.487770,-0.230247
45391,11.565324,-1.263202,3.754240,-0.194797,0.705798,-0.211709
45392,11.145542,-1.217450,3.778761,0.042631,0.924827,-0.210284
45393,10.816870,-1.181857,3.680591,0.288778,1.077896,-0.206354
45394,11.476268,-1.422437,3.975382,0.538597,1.226359,-0.169021
45395,11.774398,-1.839069,3.900657,0.788804,1.442809,-0.132002
45396,11.094509,-2.019918,3.057841,1.108393,1.592343,-0.132678
45397,9.826420,-1.608726,1.371208,1.472422,1.589601,-0.151188
45398,8.386108,-0.458608,-0.613071,1.759036,1.410963,-0.242131
45399,7.926442,0.716582,-1.969782,1.853760,1.102074,-0.324293
45400,8.037628,1.369948,-2.662142,1.744787,0.804929,-0.350003
45401,8.157133,1.961044,-2.880805,1.506496,0.563058,-0.362669
45402,8.404271,2.563790,-2.641444,1.109188,0.367520,-0.343099
45403,8.655495,2.773408,-1.931256,0.626923,0.208910,-0.288314
45404,8.939620,2.813131,-0.929629,0.066408,0.079181,-0.197123
45405,9.200089,2.816686,0.273364,-0.522415,0.007762,-0.109351
45406,9.975670,2.026793,2.133332,-1.060611,0.034169,0.001003
45407,10.887824,0.697888,4.356455,-1.437918,0.241668,0.173553
45408,11.473851,-0.333830,6.315784,-1.612833,0.593885,0.354515
45409,11.230006,-1.252313,6.720742,-1.600301,0.932671,0.543387
45410,10.319215,-2.280524,5.712309,-1.305035,1.064033,0.658100
45411,10.224102,-3.600852,4.083378,-0.785505,1.005721,0.698493
45412,10.818546,-4.376186,2.864838,-0.112651,0.960139,0.702587
45413,10.743719,-3.821446,2.012679,0.530604,0.978845,0.647970
45414,9.723761,-2.563630,1.163397,1.020168,0.936223,0.557376
45415,8.743970,-1.245836,0.086797,1.349545,0.770210,0.465662
45416,8.282399,-0.547634,-1.165513,1.518460,0.543201,0.408246
45417,8.096385,-0.230750,-2.287554,1.578952,0.313585,0.391855
45418,8.001850,0.168850,-2.909080,1.486999,0.094895,0.415076
45419,8.034143,0.638223,-2.897963,1.286753,-0.113417,0.489692
45420,8.397368,1.412549,-2.056791,0.905889,-0.257357,0.604223
45421,8.513171,2.329594,-0.808772,0.288199,-0.338772,0.715496
45422,8.987312,2.877021,1.787834,-0.363122,-0.359757,0.809263
45423,10.713563,2.414997,5.801652,-1.097881,-0.158355,0.979716
45424,11.727745,2.055316,8.498314,-1.814386,0.319990,1.143433
45425,11.385841,1.415037,9.061493,-2.316603,0.838056,1.292195
45426,9.651458,-0.842845,7.573091,-2.384250,1.030231,1.394040
45427,9.102077,-3.594088,5.405260,-1.999266,0.859360,1.414006
45428,9.779730,-5.935728,3.270170,-1.361753,0.636322,1.378980
45429,10.005760,-6.903252,1.516221,-0.546077,0.503773,1.308845
45430,9.664602,-6.698224,0.377867,0.317603,0.404018,1.210117
45431,9.178326,-5.665312,-0.517062,1.110434,0.289377,1.134170
45432,8.455433,-4.137797,-1.249969,1.643924,0.130005,1.056416
45433,7.910231,-2.546952,-1.620305,1.878983,-0.108748,0.986917
45434,8.070709,-1.176941,-1.425855,1.828461,-0.336161,0.955423
45435,8.548140,0.034463,-0.795325,1.519674,-0.477220,0.978570
45436,9.064979,1.015836,0.760125,1.038754,-0.523442,1.014821
45437,10.202572,1.639856,3.812963,0.472664,-0.423767,1.063431
45438,11.678315,2.187284,8.092431,-0.167087,-0.094588,1.109015
45439,13.053610,2.740821,10.830900,-0.969645,0.473527,1.160685
45440,11.778605,1.872592,10.273870,-1.608200,1.052446,1.176021
45441,9.353341,-0.664796,8.284448,-1.782951,1.272281,1.142689
45442,9.025187,-3.478669,6.043878,-1.550688,1.155376,1.081201
45443,9.626343,-5.420152,4.186970,-1.039560,1.060105,1.003346
45444,9.609127,-6.286055,2.786070,-0.422324,0.985156,0.919988
45445,9.280155,-6.485374,1.527829,0.265120,0.889832,0.853922
45446,8.701137,-5.442773,0.591727,0.892820,0.785490,0.804150
45447,8.195209,-4.062278,0.142383,1.291835,0.616078,0.774838
45448,8.201988,-3.180772,0.252303,1.462915,0.434488,0.773609
45449,8.558313,-2.555104,0.861360,1.458124,0.331669,0.812999
45450,8.845547,-1.586486,1.887458,1.283182,0.311935,0.853827
45451,9.284958,-0.534887,3.421585,0.941948,0.357660,0.901324
45452,10.016214,0.153919,5.616972,0.468323,0.508571,0.962847
45453,10.485994,0.416238,7.165848,-0.160592,0.757488,1.047834
45454,9.697894,0.144042,7.156625,-0.738385,0.981981,1.077783
45455,8.859782,-1.095671,6.299890,-1.098720,1.021880,1.092505
45456,8.756550,-3.013598,5.183046,-1.216356,0.962656,1.112434
45457,8.881153,-4.802720,4.045414,-1.101054,0.903899,1.123206
45458,8.374451,-6.089178,2.867733,-0.745145,0.843576,1.122739
45459,7.515722,-6.600119,1.594993,-0.235273,0.704467,1.104605
45460,6.833761,-6.577636,0.433106,0.314940,0.500466,1.081170
45461,6.315396,-5.973031,-0.753273,0.801346,0.258409,1.056023
45462,5.703375,-5.052784,-1.657920,1.111021,-0.052342,1.009929
45463,5.883323,-4.168691,-1.336093,1.228672,-0.373699,0.986571
45464,6.840217,-3.279814,-0.119881,1.047203,-0.554333,1.006532
45465,7.501993,-2.212632,1.296994,0.562827,-0.572397,1.084069
45466,7.933798,-1.128929,3.412884,0.010529,-0.530138,1.135100
45467,9.438765,-0.083461,7.227411,-0.689583,-0.386427,1.190786
45468,11.222315,0.378878,10.746476,-1.766132,0.013185,1.257215
45469,10.935742,-0.189780,11.052567,-2.670698,0.532139,1.333143
45470,8.735181,-2.147465,9.076257,-3.113802,0.746700,1.369185
45471,7.856649,-5.477772,6.452303,-3.036383,0.679646,1.362007
45472,7.923286,-8.341725,4.466079,-2.573969,0.553320,1.347060
45473,7.272054,-10.401987,2.735398,-1.834739,0.395765,1.314095
45474,6.446113,-11.445140,1.143529,-0.803598,0.176874,1.259111
45475,6.138790,-11.238645,-0.268294,0.311082,-0.024925,1.205450
45476,5.794669,-9.724524,-0.874320,1.291783,-0.195215,1.132586
45477,5.935836,-7.800779,-0.239057,1.897485,-0.347408,1.081245
45478,6.687259,-5.847647,1.190177,2.036643,-0.420885,1.073115
45479,7.673000,-4.202536,2.822772,1.757529,-0.366688,1.120989
45480,8.107064,-2.868298,4.204337,1.229036,-0.225660,1.182793
45481,7.831111,-1.527390,5.692676,0.513603,-0.125836,1.221324
45482,8.118526,-1.203947,7.019715,-0.358300,-0.090526,1.270565
45483,8.571824,-1.659957,8.102294,-1.205319,0.087930,1.271918
45484,8.603998,-3.523700,7.796947,-1.823756,0.327087,1.275065
45485,7.903647,-5.722756,6.632869,-1.924673,0.534792,1.311517
45486,7.097561,-8.150090,5.564750,-1.634481,0.539181,1.344672
45487,7.499017,-10.282916,5.537621,-1.034285,0.502789,1.390390
45488,8.036554,-11.577976,5.791300,-0.300425,0.563819,1.414300
45489,7.608307,-11.925013,5.144305,0.601761,0.577946,1.404259
45490,6.855548,-11.834408,3.460557,1.598310,0.467270,1.334512
45491,5.616992,-10.873926,0.542769,2.569748,0.283609,1.187537
45492,4.614667,-9.562985,-1.708347,3.444947,0.081555,1.038023
45493,4.569203,-8.143405,-1.554390,3.939357,-0.065258,0.981309
45494,5.100209,-6.101041,-0.167168,3.820066,-0.074328,1.001280
45495,4.837823,-3.648612,1.006762,3.284220,-0.016326,1.044063
45496,4.192081,-2.010866,1.687029,2.606325,-0.044308,1.079635
45497,4.237060,-1.027489,2.385869,1.720072,-0.141640,1.127532
45498,4.762279,-0.331789,3.237697,0.502078,-0.270492,1.219222
45499,5.459008,-0.054846,4.219136,-0.851186,-0.348055,1.340334
45500,6.587254,-0.847351,6.305269,-2.072889,-0.279482,1.454336
45501,7.687577,-2.895288,9.029001,-3.060959,0.001990,1.508879
45502,7.036767,-5.422794,9.537572,-3.677539,0.354246,1.466869
45503,5.495024,-8.067816,8.007041,-3.615383,0.437510,1.404413
45504,4.922321,-12.127902,6.521243,-2.879058,0.368966,1.432450
45505,5.316809,-14.961222,5.766702,-1.717465,0.218306,1.450167
45506,5.747922,-15.919692,4.895831,-0.352513,0.119662,1.419933
45507,5.412464,-15.378732,3.510898,1.092507,0.035989,1.309845
45508,4.570640,-13.645351,0.900372,2.496561,-0.062261,1.121048
45509,3.342170,-10.444001,-1.644630,3.583909,-0.162624,0.868549
45510,2.863256,-7.377815,-1.780627,4.077312,-0.240971,0.745778
45511,3.172105,-4.416349,0.176775,3.717903,-0.272621,0.787814
45512,3.463387,-1.445561,2.230388,2.659031,-0.233505,0.919417
45513,3.429386,0.534753,3.811656,1.242986,-0.222582,1.094456
45514,3.648079,1.463959,5.322830,-0.311068,-0.248989,1.221530
45515,4.079812,2.073487,6.529720,-1.978305,-0.270342,1.279213
45516,4.505034,1.406076,7.191672,-3.520062,-0.327916,1.264450
45517,6.019797,-2.626075,8.369708,-4.378920,-0.145616,1.184099
45518,7.259545,-7.251903,10.081268,-4.496531,0.409221,1.115035
45519,5.516666,-11.538889,8.730012,-4.044478,0.741807,1.093859
45520,2.454016,-16.454514,5.506347,-2.453508,0.611257,1.048827
45521,3.153968,-18.785775,3.410610,-0.205247,0.183383,0.917413
45522,4.778939,-18.156582,2.346816,1.897476,0.042471,0.766691
45523,3.838552,-15.044165,1.066792,3.621626,0.000628,0.445785
45524,2.383032,-10.318120,-1.050971,4.854588,-0.168524,0.067801
45525,1.821423,-4.931933,-2.147126,5.419360,-0.302712,-0.171086
45526,2.265019,-0.971237,-0.447830,4.987325,-0.244725,-0.173711
45527,2.151427,2.622385,2.786245,3.449672,-0.134117,0.000436
45528,2.125027,4.394042,5.134045,1.272795,-0.110929,0.220152
45529,2.941406,3.593246,6.352942,-0.887395,-0.078836,0.393055
45530,3.809790,1.297875,6.401502,-2.619437,-0.002857,0.535632
45531,4.395911,-1.611137,6.330200,-3.713534,0.070944,0.594830
45532,5.227220,-5.429780,7.199598,-4.271921,0.309223,0.532878
45533,5.082974,-9.537360,7.217285,-4.241262,0.554232,0.386774
45534,4.071220,-13.042578,6.835002,-3.368962,0.602518,0.222427
45535,3.477215,-16.329068,5.974877,-1.857773,0.496162,0.146693
45536,2.914677,-17.781806,4.090357,-0.093725,0.242558,0.015198
45537,2.754632,-15.816373,2.149233,1.668925,0.031511,-0.198748
45538,2.515399,-11.621408,1.106740,2.835731,-0.085914,-0.420546
45539,2.402079,-7.232011,1.222142,3.335806,-0.189699,-0.540870
45540,2.525409,-4.006360,2.152993,3.047488,-0.236020,-0.506218
45541,2.157429,-1.506337,2.604977,2.035663,-0.207399,-0.420772
45542,1.799423,-0.394076,2.600207,0.642412,-0.218521,-0.295208
45543,2.204809,-0.629517,3.121905,-0.978218,-0.256002,-0.093868
45544,2.939290,-1.279497,3.497031,-2.535406,-0.315861,0.073610
45545,4.032662,-2.259627,3.647137,-3.798843,-0.347492,0.206720
45546,4.854267,-4.028462,4.867113,-4.544611,-0.250212,0.200081
45547,7.373877,-7.993177,8.739389,-4.768357,0.125851,0.134470
45548,7.315566,-10.775569,9.716783,-4.586984,0.789729,-0.007845
45549,3.089060,-13.648066,6.000919,-3.454784,0.834900,-0.197434
45550,1.820090,-16.496948,4.194170,-1.585891,0.532037,-0.260279
45551,3.606012,-16.382311,3.402177,0.070624,0.268766,-0.323051
45552,3.153195,-13.872622,1.552191,1.458077,0.164838,-0.559371
45553,2.318876,-10.665459,-0.082616,2.512353,-0.046601,-0.826600
45554,2.623626,-7.933768,-0.546638,3.020224,-0.208888,-0.927561
45555,2.557140,-5.450067,-0.014065,2.889559,-0.236813,-0.941308
45556,2.287345,-2.984670,1.233230,2.157980,-0.323685,-0.888783
45557,3.032620,-1.398735,2.613369,0.925577,-0.396552,-0.757182
45558,3.985843,-1.478476,3.019156,-0.434783,-0.332431,-0.636676
45559,4.296637,-1.941346,3.214394,-1.518320,-0.287444,-0.584855
45560,5.390012,-3.044085,4.783969,-2.354376,-0.235935,-0.594768
45561,7.310538,-5.206456,6.851410,-3.005355,0.101504,-0.646296
45562,7.241495,-6.612990,7.213924,-3.261035,0.600780,-0.734848
45563,5.005989,-8.123854,5.871709,-3.070328,0.801572,-0.796884
45564,2.834490,-11.017215,3.779285,-2.345371,0.581633,-0.853350
45565,3.515541,-13.114866,2.473912,-1.301755,0.250757,-0.962485
45566,4.554453,-13.611898,0.952141,-0.237868,0.087988,-1.111257
45567,4.241101,-12.691740,-0.291488,0.941332,0.012616,-1.339762
45568,3.805005,-10.810329,-0.690768,1.878155,-0.041467,-1.507186
45569,3.185610,-8.843305,-1.104863,2.361844,-0.153806,-1.523960
45570,2.988360,-6.718853,-1.031318,2.354677,-0.329881,-1.453042
45571,3.793234,-5.137901,0.443049,1.844774,-0.464639,-1.312291
45572,5.419797,-4.395068,3.233567,0.938334,-0.493447,-1.144973
45573,7.029227,-4.245497,6.011482,-0.099106,-0.313702,-1.049929
45574,8.233035,-4.447002,7.701788,-0.972815,0.067540,-1.009146
45575,8.178640,-4.519724,7.430423,-1.602147,0.442065,-1.017630
45576,7.207671,-5.210520,6.511872,-1.880957,0.585148,-1.066711
45577,6.711664,-7.873633,5.060514,-1.979485,0.512783,-1.071940
45578,5.441020,-11.597754,2.003632,-1.503723,0.349515,-1.096685
45579,3.729827,-13.570843,-0.749798,-0.474914,0.071824,-1.153114
45580,2.683850,-13.759427,-2.164461,0.624594,-0.262270,-1.121166
45581,2.774009,-12.679818,-2.448275,1.435818,-0.508911,-1.046719
45582,3.101312,-10.144516,-2.191971,1.818245,-0.609688,-0.994256
45583,3.612467,-7.789921,-1.795632,1.884535,-0.745522,-0.976612
45584,4.470752,-5.098541,0.093672,1.677334,-0.865895,-0.989154
45585,6.278006,-3.009086,2.259809,0.936922,-0.951754,-0.965912
45586,8.092684,-1.582961,5.058620,0.011478,-0.805934,-0.930403
45587,10.054386,-1.349604,8.840349,-1.101925,-0.414567,-0.848986
45588,9.975194,-2.023717,9.572324,-2.168276,0.103538,-0.805743
45589,8.014985,-3.414005,7.802495,-2.647872,0.337469,-0.841090
45590,6.983222,-6.343752,5.899618,-2.649637,0.289596,-0.852095
45591,7.171119,-9.461786,4.233502,-2.231564,0.185332,-0.916471
45592,7.344567,-11.385632,2.703059,-1.414139,0.145536,-1.110908
45593,6.362927,-11.851155,0.975355,-0.282653,0.138615,-1.340072
45594,4.981840,-11.020260,-0.417302,0.902789,0.026929,-1.487523
45595,4.531411,-10.368032,-1.172758,1.774937,-0.202253,-1.488800
45596,4.899711,-9.186496,-1.422999,2.252808,-0.358890,-1.419226
45597,5.345408,-7.332226,-1.036774,2.304311,-0.487307,-1.365360
45598,6.085888,-4.999312,0.479279,2.049810,-0.607854,-1.313462
45599,7.840056,-2.716071,2.258086,1.494036,-0.689219,-1.273336
45600,9.643505,-1.023865,5.211249,0.719280,-0.541169,-1.304115
45601,11.320681,-0.625489,8.318665,-0.254688,-0.154314,-1.264128
45602,10.761412,-1.023246,8.597324,-1.137903,0.290292,-1.254544
45603,9.543452,-2.224694,7.901181,-1.624604,0.492917,-1.249691
45604,9.198540,-5.022634,6.614380,-1.765327,0.561028,-1.167757
45605,8.957219,-7.938321,5.205726,-1.382720,0.583942,-1.103940
45606,8.329944,-9.700052,4.013023,-0.591909,0.516607,-1.135348
45607,7.726061,-10.510974,2.215506,0.365717,0.379057,-1.247687
45608,6.931151,-11.083262,-0.187224,1.449202,0.197981,-1.283803
45609,5.354108,-10.976123,-2.933710,2.468092,-0.081296,-1.346845
45610,3.896041,-9.927778,-4.906068,3.347112,-0.426382,-1.518010
45611,4.570914,-8.411552,-5.036527,3.927240,-0.690509,-1.554563
45612,6.199979,-6.452786,-3.633204,3.957012,-0.751911,-1.483537
45613,6.852747,-3.158135,-1.309900,3.476521,-0.716944,-1.388276
45614,8.070551,-0.133229,2.010493,2.568003,-0.754717,-1.215176
45615,10.007832,2.224346,6.079772,1.251507,-0.694637,-0.979532
45616,11.703720,3.606670,9.501883,-0.330101,-0.435909,-0.752098
45617,12.163576,3.209242,10.511726,-1.895224,-0.083269,-0.579521
45618,11.577555,0.540486,9.005436,-2.885106,0.187453,-0.465372
45619,10.497560,-2.830937,6.526978,-3.084083,0.285927,-0.442840
45620,9.729861,-5.868079,4.432505,-2.574951,0.233826,-0.594629
45621,9.571032,-8.196792,3.051925,-1.618697,0.172536,-0.821935
45622,8.088229,-8.862496,1.215054,-0.444458,0.185827,-1.073542
45623,5.854690,-7.644421,-0.350721,0.717091,0.037206,-1.302797
45624,5.422990,-6.545700,-1.082189,1.564204,-0.273118,-1.387395
45625,6.318492,-5.446810,-1.201902,2.000393,-0.473937,-1.351983
45626,6.921866,-4.181493,-1.132578,2.107092,-0.576973,-1.276963
45627,7.412699,-2.680379,-0.662263,2.023632,-0.712994,-1.221084
45628,8.467467,-0.890843,0.482343,1.697526,-0.838473,-1.165710
45629,9.746811,0.943793,2.217521,1.035171,-0.840061,-1.094222
45630,10.878976,2.099384,5.080572,0.181363,-0.706423,-1.038625
45631,12.819427,1.753597,8.928252,-0.764048,-0.337048,-0.893408
45632,13.146934,0.311850,10.145903,-1.719927,0.230033,-0.683816
45633,10.538719,-1.472300,7.877568,-2.167660,0.525494,-0.542966
45634,8.067397,-4.086343,4.052203,-1.919910,0.252721,-0.515999
45635,8.119949,-6.873218,1.156543,-1.158717,-0.162081,-0.654404
45636,8.797855,-8.681498,-0.426339,-0.176458,-0.304089,-0.792809
45637,8.205443,-8.066811,-1.258810,0.768648,-0.278351,-0.902114
45638,7.358045,-6.318601,-1.911709,1.406937,-0.327511,-0.945103
45639,7.322053,-4.887778,-2.401959,1.754382,-0.436158,-0.907633
45640,7.402667,-2.844228,-1.996396,1.787397,-0.573294,-0.867062
45641,7.864201,-0.029682,0.020897,1.435535,-0.692500,-0.828187
45642,8.743438,2.624866,2.768344,0.629580,-0.768913,-0.757779
45643,9.958239,3.970829,5.290507,-0.345905,-0.720526,-0.660222
45644,11.493765,3.355086,8.099498,-1.223157,-0.470875,-0.550662
45645,12.181758,1.347053,9.074079,-1.888783,-0.066208,-0.444075
45646,10.574891,-0.595525,6.750629,-2.081818,0.132329,-0.437621
45647,9.736534,-2.127184,3.921522,-1.749748,-0.024033,-0.581575
45648,10.790938,-3.699749,2.211454,-1.158893,-0.119434,-0.776537
45649,11.069059,-4.175601,1.847927,-0.482114,0.033600,-0.959877
45650,10.087803,-3.389913,2.091107,0.110446,0.139110,-1.111985
45651,9.811325,-2.448341,2.004718,0.540787,0.118927,-1.194243
45652,9.575971,-1.959201,1.455009,0.817504,0.079679,-1.215653
45653,8.606209,-1.407507,0.330632,0.887313,-0.067400,-1.204351
45654,7.968801,-0.962957,-1.322190,0.749743,-0.340135,-1.164587
45655,8.197954,-0.927981,-2.292664,0.503125,-0.609813,-1.076366
45656,9.119729,-0.919481,-1.648797,0.216060,-0.761917,-0.924355
45657,9.631888,-0.755046,-0.653969,-0.188916,-0.803353,-0.788216
45658,9.283965,0.062612,-0.019507,-0.609719,-0.822633,-0.704497
45659,9.335296,0.559388,1.627593,-0.956641,-0.842919,-0.623286
45660,11.062223,0.040414,5.493968,-1.161410,-0.690562,-0.511571
45661,11.786791,-1.098397,7.422178,-1.440653,-0.306598,-0.426948
45662,10.041849,-1.236245,6.463322,-1.449381,-0.046166,-0.445058
45663,8.990310,-1.881030,4.299161,-1.160755,-0.117674,-0.484067
45664,9.857919,-3.137366,2.077499,-0.602296,-0.229678,-0.550602
45665,10.654613,-3.409442,1.321108,-0.012090,-0.140811,-0.636925
45666,10.426948,-3.144663,1.245119,0.406290,-0.052647,-0.651389
45667,9.495881,-2.676022,-0.049678,0.582306,-0.107492,-0.638390
45668,8.530088,-2.169753,-1.974939,0.578203,-0.317831,-0.588612
45669,8.458134,-1.842128,-3.761024,0.452722,-0.620609,-0.493211
45670,8.844813,-1.200390,-3.129839,0.365499,-0.744200,-0.330034
45671,8.945410,-0.667556,-2.093252,-0.038085,-0.816628,-0.092498
45672,8.632536,-0.123809,-2.244004,-0.538737,-0.900183,0.077823
45673,8.353847,0.363605,-1.835197,-0.931946,-1.050578,0.201455
45674,9.014990,0.776691,-0.372540,-1.294491,-1.209462,0.280171
45675,10.596315,1.096868,3.791231,-1.488146,-1.141465,0.288028
45676,12.956989,0.417690,8.363381,-1.632986,-0.754001,0.251017
45677,12.143577,-0.379666,8.653035,-1.676600,-0.336394,0.106959
45678,10.005602,-0.027207,6.958337,-1.304417,-0.291894,-0.097990
45679,11.002430,-1.170407,4.301116,-0.772272,-0.388154,-0.286614
45680,12.156406,-2.407462,2.351866,-0.034463,-0.163242,-0.452417
45681,10.600693,-2.021240,1.043551,0.450414,0.054323,-0.580057
45682,9.092061,-0.347823,-0.180464,0.590862,0.004706,-0.618764
45683,9.452654,0.790655,-0.628946,0.514779,-0.089674,-0.551217
45684,9.767411,1.036589,-0.834745,0.174686,-0.106870,-0.480312
45685,9.257309,1.665139,-1.308720,-0.296893,-0.201426,-0.448169
45686,9.192847,1.905471,-1.951497,-0.766483,-0.391705,-0.398176
45687,9.821608,1.512197,-1.673086,-1.076997,-0.538479,-0.306522
45688,10.287951,0.866403,-0.031832,-1.276198,-0.551584,-0.231335
45689,10.890253,0.177306,3.269187,-1.292386,-0.403487,-0.235647
45690,11.474229,-0.847803,5.359875,-1.206337,-0.136338,-0.269336
45691,10.237709,-0.500996,5.063595,-0.980063,0.005882,-0.371251
45692,10.417387,-0.382069,3.641831,-0.717700,0.004699,-0.435720
45693,10.856722,-1.565980,1.984249,-0.382359,0.126736,-0.451351
45694,10.583542,-1.893097,1.183506,-0.015889,0.272272,-0.496953
45695,10.373316,-1.698138,0.825488,0.263005,0.350415,-0.490240
45696,9.394083,-1.316001,-0.589959,0.310580,0.323002,-0.471184
45697,8.215863,-0.063613,-2.049541,0.287308,0.161784,-0.442538
45698,8.566251,0.497460,-2.520520,0.152934,-0.042963,-0.350636
45699,9.220145,-0.050712,-2.153266,0.008009,-0.138795,-0.239520
45700,9.331105,-0.224075,-0.921106,-0.142304,-0.185271,-0.160957
45701,9.570970,-0.333401,0.261230,-0.264520,-0.241353,-0.091254
45702,9.707469,-0.346325,0.830740,-0.333565,-0.265797,-0.070136
45703,9.624810,-0.325395,1.039367,-0.353234,-0.271598,-0.065985
45704,9.806023,-0.362596,1.013120,-0.319787,-0.269517,-0.067854
45705,10.103201,-0.416178,1.069107,-0.165598,-0.214535,-0.064456
45706,10.119928,0.013803,1.524133,-0.006526,-0.152487,-0.096941
45707,10.048570,0.565219,1.787772,0.042756,-0.106294,-0.131135
45708,9.834007,0.908573,1.394062,0.026822,-0.088602,-0.151787
45709,9.743628,1.102166,0.619082,0.017329,-0.106003,-0.166301
45710,9.750516,1.437931,0.295850,0.003837,-0.125650,-0.175995
45711,9.816627,1.612813,0.478697,-0.061722,-0.130343,-0.189968
45712,9.935776,1.565158,0.846450,-0.152021,-0.112227,-0.209912
45713,9.915445,1.242917,0.961268,-0.246829,-0.090215,-0.210632
45714,9.707256,0.981848,0.827417,-0.308074,-0.087931,-0.209501
45715,9.722526,0.798850,0.671085,-0.319072,-0.112020,-0.219063
45716,9.698488,0.561878,0.362765,-0.289755,-0.123017,-0.209531
45717,9.683247,0.627903,0.086645,-0.226402,-0.133069,-0.206316
45718,9.705029,0.720344,0.169089,-0.175174,-0.151956,-0.194674
45719,9.706054,0.704516,0.274520,-0.148491,-0.166919,-0.186136
45720,9.652865,0.813563,0.395342,-0.133366,-0.182403,-0.184805
45721,9.729432,0.746359,0.411640,-0.137804,-0.200926,-0.189917
45722,9.856360,0.477571,0.262296,-0.140870,-0.199925,-0.190929
45723,9.788628,0.357741,0.196415,-0.135579,-0.178587,-0.166904
45724,9.774275,0.341445,0.350329,-0.143674,-0.180207,-0.141881
45725,9.810247,0.267524,0.502391,-0.166807,-0.167775,-0.101268
45726,9.820162,0.136195,0.545838,-0.177759,-0.154158,-0.056863
45727,9.912180,-0.102937,0.636596,-0.158349,-0.133288,-0.029745
45728,10.048001,-0.280044,0.681308,-0.099039,-0.111878,0.002072
45729,10.119956,-0.231868,0.553219,-0.004396,-0.091546,0.029911
45730,10.296448,0.040393,0.505987,0.076720,-0.062816,0.037699
45731,10.355425,0.391183,0.474719,0.099276,-0.025981,0.045903
45732,10.281808,0.529753,0.438682,0.077696,-0.000533,0.069897
45733,10.418190,0.355919,0.299796,0.059260,0.017386,0.083690
45734,10.335609,0.277100,0.395101,0.045718,0.041325,0.093367
45735,10.188476,0.251411,0.454782,0.042749,0.039280,0.093378
45736,9.984231,0.219127,0.264063,0.068627,0.026551,0.104087
45737,9.906234,0.130654,0.175585,0.117111,0.006736,0.113315
45738,9.913075,0.080344,0.204368,0.183821,0.008415,0.114751
45739,9.827487,0.230258,0.280028,0.240245,0.017633,0.113418
45740,9.776905,0.372259,0.252192,0.252836,0.019313,0.123578
45741,9.706639,0.582909,0.199816,0.225577,0.022547,0.151489
45742,9.721040,0.536634,0.196124,0.186770,0.015609,0.162207
45743,9.725780,0.487515,0.316691,0.159795,0.019016,0.163906
45744,9.689387,0.546993,0.344811,0.135137,0.016413,0.166312
45745,9.661392,0.575725,0.204595,0.132649,0.012535,0.165355
45746,9.708613,0.655884,0.199889,0.137632,0.005619,0.161924
45747,9.803069,0.733930,0.222422,0.152507,0.010556,0.150174
45748,9.802634,0.772406,0.251443,0.165263,0.009668,0.136545
45749,9.816796,0.728506,0.247133,0.166550,0.010155,0.121839
45750,9.862931,0.681802,0.231254,0.153429,0.013393,0.111609
45751,9.834050,0.570609,0.185551,0.152266,0.012735,0.109921
45752,9.794872,0.570058,0.124485,0.166546,-0.001438,0.105756
45753,9.813216,0.542225,0.176889,0.171350,-0.015817,0.099788
45754,9.809492,0.506689,0.221920,0.167601,-0.020395,0.097205
45755,9.824074,0.413441,0.186312,0.182804,-0.029477,0.093245
45756,9.814429,0.417289,0.200820,0.197044,-0.033307,0.090683
45757,9.756838,0.477597,0.215781,0.198995,-0.033778,0.073098
45758,9.735758,0.560165,0.170457,0.190852,-0.038684,0.076359
45759,9.771207,0.529350,0.169030,0.161583,-0.030524,0.077806
45760,9.765309,0.462218,0.170785,0.131931,-0.020993,0.088614
45761,9.701587,0.462434,0.191884,0.106192,-0.023596,0.095951
45762,9.790496,0.485915,0.214046,0.092012,-0.034016,0.099898
45763,9.912826,0.440442,0.301694,0.069543,-0.033537,0.105235
45764,9.954349,0.315216,0.303426,0.050071,-0.025589,0.107052
45765,9.990077,0.227977,0.275612,0.066831,-0.029560,0.108309
45766,10.000306,0.204602,0.254136,0.079035,-0.031857,0.106479
45767,10.057163,0.231955,0.287859,0.092965,-0.032359,0.094506
45768,10.075184,0.206265,0.339379,0.096066,-0.021909,0.080099
45769,10.025624,0.220792,0.295145,0.088891,-0.008320,0.074190
45770,9.981441,0.197440,0.282209,0.077427,0.003532,0.074617
45771,9.925042,0.099880,0.218168,0.069469,0.010067,0.077489
45772,9.858246,0.174537,0.255465,0.072054,0.009036,0.073382
45773,9.870815,0.135528,0.253425,0.074857,0.015452,0.071766
45774,9.865673,0.113625,0.197095,0.085151,0.013278,0.071166
45775,9.860471,0.145031,0.168613,0.096312,0.023096,0.066706
45776,9.845509,0.189683,0.158795,0.102540,0.025657,0.067030
45777,9.830620,0.234121,0.148906,0.103654,0.023896,0.071121
45778,9.934582,0.261557,0.215566,0.095881,0.026513,0.067092
45779,9.900120,0.279183,0.215310,0.079306,0.039498,0.067760
45780,9.858077,0.353672,0.169754,0.072128,0.031863,0.067315
45781,9.922678,0.327878,0.254818,0.053240,0.027616,0.056888
45782,10.011097,0.140992,0.174242,0.035587,0.036967,0.056922
45783,9.811225,0.117193,0.149007,0.038248,0.040883,0.057747
45784,9.838506,0.197444,0.137097,0.046719,0.025536,0.057990
45785,9.934842,0.229258,0.131198,0.040757,0.024025,0.055708
45786,9.831557,0.296786,0.123207,0.029819,0.026103,0.051250
45787,9.849056,0.337628,0.101293,0.019207,0.022327,0.048850
45788,9.881351,0.318968,0.197914,0.017633,0.026427,0.037252
45789,9.879122,0.325921,0.291049,0.009495,0.021993,0.022357
45790,9.871443,0.265029,0.299935,-0.013628,0.031889,0.016189
45791,9.782081,0.187897,0.144596,-0.011731,0.025257,0.010569
45792,9.779673,0.206214,0.131459,0.005751,0.017761,0.001643
45793,9.841343,0.205408,0.200550,0.010145,0.017963,-0.004179
45794,9.797077,0.243787,0.217019,0.007584,0.023405,-0.011479
45795,9.765217,0.303930,0.257684,-0.010173,0.015940,-0.017298
45796,9.779692,0.254689,0.271758,-0.015893,0.015443,-0.021531
45797,9.769282,0.154736,0.343526,-0.021352,0.021369,-0.031205
45798,9.793569,0.093806,0.340274,-0.000280,0.024362,-0.039708
45799,9.783453,0.057718,0.333577,0.027999,0.024181,-0.040783
