// Start Time: Unknown
// Update Rate: 100.0Hz
// Filter Profile: human (46.1)
// Firmware Version: 4.3.5
PacketCounter,Acc_X,Acc_Y,Acc_Z,Gyr_X,Gyr_Y,Gyr_Z
18657,9.549223,-2.443939,0.546313,0.037597,-0.031035,-0.026655
18658,9.561038,-2.388293,0.545951,0.044116,-0.028840,-0.015260
18659,9.526287,-2.369638,0.589901,0.041025,-0.018275,-0.009476
18660,9.549320,-2.339106,0.542555,0.032835,-0.019195,0.002317
18661,9.570042,-2.333043,0.568742,0.030017,-0.012219,0.002482
18662,9.576080,-2.357256,0.569011,0.023992,-0.008637,0.013231
18663,9.563442,-2.311303,0.567838,0.024314,-0.000918,0.016330
18664,9.583769,-2.306592,0.595257,0.024311,-0.000922,0.016333
18665,9.583380,-2.308079,0.595765,0.025876,-0.000556,0.017806
18666,9.585744,-2.309525,0.572173,0.033324,0.000185,0.016896
18667,9.591503,-2.334508,0.573752,0.040770,0.000922,0.015989
18668,9.564329,-2.318143,0.547200,0.051610,-0.001212,0.012418
18669,9.590345,-2.312602,0.526673,0.056111,-0.002842,0.007151
18670,9.575680,-2.342538,0.501596,0.064854,-0.002490,0.002216
18671,9.596311,-2.336298,0.530124,0.074893,0.001830,0.004361
18672,9.607908,-2.359830,0.484273,0.076180,0.001432,0.000343
18673,9.584448,-2.365549,0.483689,0.085034,0.002129,-0.001822
18674,9.572206,-2.317786,0.484153,0.085850,-0.002022,-0.000557
18675,9.530805,-2.329963,0.432059,0.092665,-0.005447,0.001093
18676,9.568868,-2.293529,0.462001,0.089433,-0.013204,0.000615
18677,9.592307,-2.287258,0.465677,0.090378,-0.008001,0.006376
18678,9.562604,-2.270019,0.463328,0.097377,-0.013062,0.006620
18679,9.556300,-2.246972,0.463236,0.097005,-0.016457,0.014692
18680,9.611879,-2.259373,0.445462,0.091497,-0.020086,0.014256
18681,9.593887,-2.212751,0.492216,0.083849,-0.019197,0.016594
18682,9.617110,-2.207675,0.494717,0.074520,-0.019048,0.014699
18683,9.596170,-2.215051,0.467618,0.066630,-0.018903,0.011517
18684,9.619538,-2.209456,0.469647,0.060693,-0.021642,0.006976
18685,9.596025,-2.215905,0.466553,0.061271,-0.017556,0.004447
18686,9.608251,-2.263267,0.467932,0.068779,-0.025499,0.004632
18687,9.590278,-2.270051,0.415528,0.068611,-0.034904,0.000207
18688,9.564255,-2.275605,0.435089,0.074868,-0.044475,0.000273
18689,9.554920,-2.228453,0.405847,0.084102,-0.053710,0.000548
18690,9.552426,-2.227947,0.426410,0.081317,-0.062327,0.004215
18691,9.594265,-2.214714,0.475728,0.073235,-0.060554,0.002452
18692,9.579556,-2.167269,0.493545,0.061338,-0.059557,0.008615
18693,9.576183,-2.144517,0.464303,0.054407,-0.047533,0.005878
18694,9.571067,-2.143772,0.509407,0.035328,-0.044250,0.002103
18695,9.556431,-2.174205,0.480635,0.024974,-0.036255,0.004467
18696,9.568740,-2.221669,0.480025,0.013438,-0.031898,0.002542
18697,9.584594,-2.292021,0.505291,0.017929,-0.024598,-0.001047
18698,9.597000,-2.338861,0.505783,0.031148,-0.023648,-0.004304
18699,9.558035,-2.351960,0.426609,0.045376,-0.028472,-0.007675
18700,9.600242,-2.337368,0.478100,0.064505,-0.035876,-0.012182
18701,9.609424,-2.359888,0.452891,0.085500,-0.044176,-0.013855
18702,9.603854,-2.334442,0.449540,0.097754,-0.046140,-0.015854
18703,9.598311,-2.308824,0.446319,0.109811,-0.046478,-0.016441
18704,9.637204,-2.270184,0.472080,0.111316,-0.046172,-0.014918
18705,9.566216,-2.186294,0.460783,0.099580,-0.040196,-0.015425
18706,9.563085,-2.161531,0.433528,0.082551,-0.037362,-0.013632
18707,9.563543,-2.159804,0.432034,0.062327,-0.026615,-0.015939
18708,9.555255,-2.212303,0.407005,0.046389,-0.020480,-0.012659
18709,9.544432,-2.264323,0.406350,0.029260,-0.018004,-0.013650
18710,9.557163,-2.309835,0.408348,0.033407,-0.009483,-0.018627
18711,9.529112,-2.312982,0.454511,0.038583,-0.011263,-0.014252
18712,9.576512,-2.298797,0.458695,0.051334,-0.016122,-0.016299
18713,9.590542,-2.244548,0.433537,0.061539,-0.020093,-0.010291
18714,9.556242,-2.224513,0.478034,0.059785,-0.018833,-0.010354
18715,9.559026,-2.224049,0.453181,0.057122,-0.020424,-0.009180
18716,9.564249,-2.224448,0.404132,0.064286,-0.018162,-0.008662
18717,9.611401,-2.211189,0.408333,0.056528,-0.013431,-0.000843
18718,9.605301,-2.187291,0.406884,0.047102,-0.011549,-0.001383
18719,9.606656,-2.208868,0.456708,0.031417,-0.009085,-0.003674
18720,9.603079,-2.185528,0.430754,0.022179,-0.008846,-0.005613
18721,9.579765,-2.191106,0.428218,0.009472,-0.006042,-0.007716
18722,9.558890,-2.197553,0.401505,0.001441,-0.002115,-0.005409
18723,9.539260,-2.226082,0.424769,0.000207,-0.003727,-0.005523
18724,9.554096,-2.273982,0.403248,0.004676,0.001123,0.004410
18725,9.560081,-2.298359,0.404784,0.016765,-0.003700,0.013250
18726,9.530031,-2.282553,0.401759,0.037340,0.002342,0.020143
18727,9.598744,-2.243707,0.359322,0.048623,-0.000435,0.023534
18728,9.585710,-2.199423,0.357354,0.055195,-0.004687,0.040239
18729,9.649016,-2.161432,0.363164,0.056231,-0.003860,0.055346
18730,9.631739,-2.097271,0.335256,0.046478,-0.003152,0.067038
18731,9.600564,-2.086919,0.332211,0.029202,-0.001389,0.081001
18732,9.637156,-2.058533,0.360097,0.019968,0.007550,0.098368
18733,9.634917,-2.068834,0.360971,-0.001070,0.006550,0.116152
18734,9.627425,-2.078889,0.410542,-0.007828,0.016601,0.129640
18735,9.547952,-2.086497,0.404369,-0.021133,0.026415,0.135886
18736,9.493000,-2.109891,0.450901,-0.023742,0.031757,0.134536
18737,9.496001,-2.146203,0.454911,-0.033658,0.034459,0.129919
18738,9.581543,-2.211131,0.468740,-0.035602,0.041844,0.121808
18739,9.598968,-2.294019,0.452405,-0.030271,0.047362,0.105901
18740,9.640090,-2.369724,0.438569,-0.026336,0.046360,0.096597
18741,9.642639,-2.380782,0.393741,-0.011939,0.040061,0.094703
18742,9.581104,-2.455235,0.393405,-0.004943,0.035240,0.097839
18743,9.501943,-2.459081,0.387864,0.004238,0.019634,0.106369
18744,9.440536,-2.433589,0.382259,0.006401,0.015395,0.106462
18745,9.481915,-2.531600,0.416522,-0.001022,0.023420,0.106197
18746,9.554917,-2.648329,0.431290,-0.008761,0.041330,0.103388
18747,9.598513,-2.746579,0.444096,-0.008560,0.061461,0.090165
18748,9.609939,-2.802522,0.429036,-0.006032,0.073342,0.068656
18749,9.611258,-2.830375,0.461321,0.007041,0.062731,0.036317
18750,9.594359,-2.841494,0.391979,0.017124,0.049698,0.020206
18751,9.575892,-2.872060,0.395716,0.042247,0.027881,0.004903
18752,9.549465,-2.877171,0.421016,0.074192,0.007340,0.005239
18753,9.469646,-2.848637,0.389401,0.115183,-0.009543,0.015946
18754,9.414661,-2.736480,0.405892,0.152495,-0.022245,0.027934
18755,9.437022,-2.530980,0.426551,0.172726,-0.023643,0.037672
18756,9.464901,-2.350069,0.448603,0.159809,-0.014661,0.048079
18757,9.469153,-2.175504,0.468327,0.126145,-0.001437,0.048809
18758,9.480492,-2.126463,0.469891,0.057326,0.015855,0.047051
18759,9.540808,-2.189332,0.506504,0.002872,0.028886,0.047559
18760,9.517342,-2.301021,0.487230,-0.040862,0.037377,0.040477
18761,9.491367,-2.410874,0.492086,-0.054299,0.042080,0.029987
18762,9.465524,-2.519984,0.496488,-0.050170,0.032872,0.024611
18763,9.475974,-2.569612,0.501353,-0.024479,0.019456,0.017926
18764,9.425318,-2.559885,0.472000,0.003532,0.010865,0.012872
18765,9.430490,-2.584810,0.474658,0.024424,0.002560,0.014202
18766,9.480386,-2.596897,0.506179,0.042313,0.000154,0.007176
18767,9.564852,-2.628645,0.493512,0.050779,0.001833,0.003695
18768,9.591164,-2.623473,0.473767,0.059863,0.013768,-0.010556
18769,9.562697,-2.624695,0.523399,0.070720,0.022341,-0.028868
18770,9.494025,-2.537427,0.516155,0.070139,0.028938,-0.043908
18771,9.439945,-2.337991,0.604052,0.045836,0.043967,-0.057766
18772,9.383938,-2.195767,0.595904,-0.007104,0.046320,-0.061592
18773,9.414234,-2.203892,0.332330,-0.077834,0.038751,-0.042148
18774,9.226282,-2.241562,0.044247,-0.121454,0.037304,-0.026068
18775,9.201944,-2.160509,-0.160751,-0.173216,-0.007745,0.007837
18776,9.466106,-2.080087,-0.241754,-0.286855,-0.065983,0.049496
18777,9.829309,-2.213960,-0.064200,-0.471877,-0.083045,0.099912
18778,10.031257,-2.359591,0.214892,-0.628809,-0.036136,0.116315
18779,10.123484,-2.370720,0.749544,-0.723803,0.033639,0.094510
18780,10.264062,-2.535797,1.642155,-0.773591,0.112478,0.058857
18781,10.456105,-2.917858,2.721330,-0.768092,0.203992,0.026305
18782,10.934117,-3.263780,3.130214,-0.677574,0.352323,-0.028931
18783,10.574425,-3.572943,2.434614,-0.407826,0.599660,-0.130907
18784,9.435018,-3.923275,1.519789,0.100744,0.723924,-0.231512
18785,8.869177,-4.304673,0.859743,0.656649,0.639661,-0.204540
18786,9.035301,-5.081905,0.777892,1.057280,0.445048,-0.055691
18787,9.180030,-5.304491,0.578124,1.381748,0.284596,0.058601
18788,8.882977,-4.551580,-0.203718,1.656758,0.197262,0.041598
18789,8.626668,-3.568925,-0.794219,1.919990,0.087424,-0.024873
18790,8.562838,-2.548035,-1.056466,2.052818,-0.063809,-0.041401
18791,8.860271,-1.780270,-0.949720,1.876456,-0.201206,0.045418
18792,9.176153,-1.006564,-0.860449,1.439894,-0.277354,0.142270
18793,9.581784,-0.298742,-0.534787,0.828093,-0.274513,0.214597
18794,10.050456,0.265569,0.056394,0.129056,-0.151471,0.256555
18795,10.268568,0.516237,0.692364,-0.604397,0.055759,0.294285
18796,10.198512,0.335526,1.217853,-1.269071,0.284662,0.299828
18797,10.163931,-0.175696,1.824734,-1.858125,0.478845,0.294152
18798,10.309735,-1.098175,2.021172,-2.275499,0.673698,0.286708
18799,10.188932,-2.311806,1.950214,-2.438428,0.848774,0.272912
18800,9.733244,-3.715835,1.788898,-2.329423,0.954574,0.241900
18801,9.257298,-5.178558,1.620112,-1.944537,0.962974,0.230960
18802,8.671806,-6.400374,1.317408,-1.302795,0.852505,0.258020
18803,8.179220,-7.042711,0.832827,-0.498140,0.653641,0.302410
18804,7.785111,-7.059792,0.275744,0.345178,0.379661,0.339838
18805,7.849720,-6.461599,-0.109937,1.082103,0.061784,0.371940
18806,8.322678,-5.511039,-0.215985,1.593180,-0.205879,0.407048
18807,8.905098,-4.492296,-0.183323,1.843886,-0.375570,0.436242
18808,9.272591,-3.375017,0.080103,1.860670,-0.434082,0.460178
18809,9.511674,-2.247544,0.367485,1.676639,-0.417266,0.472445
18810,9.740153,-1.399800,0.782547,1.335204,-0.342136,0.485629
18811,10.024245,-0.755816,1.454872,0.862616,-0.206901,0.512902
18812,10.309939,-0.344601,2.274175,0.278000,-0.023553,0.532548
18813,10.679647,-0.319236,2.841225,-0.369290,0.241665,0.555073
18814,10.723913,-0.823487,2.982105,-0.953545,0.540822,0.547332
18815,10.326060,-1.809709,2.428274,-1.347514,0.793601,0.518923
18816,9.538590,-3.183767,1.839525,-1.459507,0.923489,0.506973
18817,8.914070,-4.682732,1.498639,-1.314767,0.906198,0.541892
18818,8.511770,-5.992096,1.081024,-0.992638,0.798363,0.625261
18819,8.239586,-6.847381,0.757020,-0.541785,0.652352,0.712330
18820,7.841365,-7.019903,0.110718,-0.022697,0.477134,0.787527
18821,7.502195,-6.603648,-0.306790,0.505906,0.248816,0.837433
18822,7.707746,-5.741306,-0.319334,0.890963,-0.022517,0.912818
18823,8.411222,-4.887493,0.060608,1.022716,-0.243262,0.998713
18824,9.203231,-3.890803,0.461599,0.900822,-0.330910,1.089483
18825,9.703191,-2.807280,0.850701,0.564511,-0.295960,1.128756
18826,10.036863,-1.832934,1.338764,0.073815,-0.181093,1.130480
18827,10.254465,-1.097918,1.845417,-0.545769,-0.017363,1.111896
18828,10.218667,-0.874117,2.458832,-1.249153,0.179932,1.077250
18829,10.277361,-1.181893,3.202488,-1.960467,0.395978,1.020837
18830,10.324165,-2.190052,3.190536,-2.573680,0.671797,0.975249
18831,9.849593,-3.481338,2.920910,-2.863875,0.933234,0.902224
18832,9.249922,-5.184530,2.594287,-2.874140,1.114938,0.847760
18833,8.297742,-7.144027,2.372438,-2.565330,1.192790,0.836753
18834,7.356820,-9.007938,1.828914,-1.975489,1.136921,0.889660
18835,6.132363,-10.452112,0.877296,-1.062229,0.962905,1.007824
18836,5.257725,-11.166372,0.060721,0.035661,0.633843,1.166522
18837,5.191986,-10.967362,-0.582353,1.088696,0.230598,1.355768
18838,6.106793,-10.059159,-0.658448,1.921695,-0.160039,1.525045
18839,7.649739,-8.671131,-0.575478,2.314268,-0.443557,1.680124
18840,8.877772,-7.191575,-0.261856,2.370475,-0.561257,1.769593
18841,9.578123,-5.327666,0.383610,2.167522,-0.538754,1.749154
18842,9.864962,-3.377887,1.347310,1.669612,-0.412759,1.641786
18843,9.960836,-1.682464,2.319936,0.920981,-0.208310,1.510028
18844,9.789530,-0.610566,3.427354,0.005433,0.054234,1.365720
18845,9.881776,-0.513907,4.667080,-1.034225,0.376169,1.232160
18846,10.081328,-1.544648,4.699795,-1.971019,0.780018,1.140131
18847,9.511388,-3.139325,3.748911,-2.546072,1.166538,1.070082
18848,8.521128,-5.194787,2.816046,-2.709115,1.393589,1.012467
18849,7.536517,-7.651483,2.171793,-2.441806,1.448114,1.020227
18850,6.599224,-9.925626,1.524183,-1.815568,1.354840,1.076676
18851,5.596762,-11.598536,0.678343,-0.925234,1.106056,1.147426
18852,4.728254,-12.411598,-0.653615,0.174033,0.717011,1.199635
18853,4.180555,-12.397648,-1.863723,1.389739,0.235146,1.262484
18854,4.336930,-11.176616,-1.969480,2.440007,-0.288216,1.329300
18855,5.377003,-9.596253,-1.351161,3.009272,-0.728968,1.423335
18856,6.832347,-7.874027,-0.381836,3.116273,-0.961520,1.522355
18857,8.003739,-5.665276,0.856103,2.837503,-0.938222,1.538653
18858,8.677427,-3.424325,2.573818,2.236897,-0.735540,1.423986
18859,9.085858,-1.630458,4.603505,1.319156,-0.410397,1.236622
18860,9.221857,-1.018692,5.884550,0.239504,0.028386,1.024694
18861,8.962143,-1.731267,5.644089,-0.733277,0.487944,0.836974
18862,8.216975,-3.519056,4.256694,-1.321126,0.876111,0.694363
18863,7.194756,-5.770796,3.300678,-1.447389,1.098120,0.631681
18864,6.412026,-8.095583,2.869343,-1.331512,1.190867,0.679474
18865,5.497637,-10.307061,1.892399,-0.964711,1.151834,0.806693
18866,4.252350,-11.737224,0.579618,-0.261129,0.972152,0.907731
18867,3.112459,-12.092800,-0.385679,0.649036,0.636089,0.955897
18868,2.626615,-11.639107,-0.801196,1.533330,0.190416,0.979723
18869,3.022490,-10.550409,-0.835177,2.193023,-0.264824,1.038724
18870,3.893020,-9.170948,-0.491593,2.574476,-0.620242,1.116076
18871,4.880653,-7.750603,0.330114,2.652498,-0.829205,1.195673
18872,5.926750,-6.270384,1.813662,2.426942,-0.860031,1.227855
18873,6.797023,-4.650666,3.667355,1.881352,-0.700403,1.208104
18874,7.306213,-3.410501,5.544823,1.065567,-0.359329,1.137511
18875,7.320696,-2.902460,6.454448,0.147119,0.065604,1.017706
18876,6.881889,-3.624608,5.891063,-0.608984,0.446727,0.888831
18877,6.310854,-5.160766,5.072322,-0.991194,0.707984,0.785744
18878,5.775454,-7.080032,4.474163,-1.157226,0.867117,0.758168
18879,5.140840,-9.214519,3.905035,-1.132912,0.927947,0.817347
18880,4.324408,-11.064470,2.976324,-0.846702,0.897115,0.899590
18881,3.275625,-12.130764,1.801558,-0.249502,0.744768,0.968788
18882,2.345826,-12.333735,1.030944,0.559067,0.460921,0.996663
18883,1.945667,-11.691752,0.356867,1.334970,0.076935,1.022746
18884,2.158897,-10.623732,0.331122,1.936425,-0.322407,1.078640
18885,2.881768,-9.229808,0.639263,2.229176,-0.648493,1.158476
18886,3.753878,-7.816190,1.540451,2.187078,-0.838838,1.251838
18887,4.680919,-6.272640,2.848719,1.806774,-0.846953,1.324425
18888,5.331041,-4.661762,4.205542,1.122157,-0.699688,1.353554
18889,5.713504,-3.166508,5.387979,0.195832,-0.437750,1.319234
18890,5.998222,-2.367228,6.502622,-0.924122,-0.092145,1.228436
18891,6.075247,-2.745172,6.652591,-2.078395,0.306495,1.121918
18892,5.723943,-4.462892,5.716993,-2.968141,0.692171,1.044569
18893,4.908784,-6.780045,4.538184,-3.337706,0.961140,0.972663
18894,4.054183,-9.114133,4.118550,-3.313753,1.094517,0.952345
18895,3.326492,-11.581507,3.924099,-3.017930,1.082254,0.990528
18896,2.692152,-13.961028,3.256356,-2.380288,0.962614,1.054543
18897,1.946756,-15.724950,2.205855,-1.239453,0.740939,1.085733
18898,1.136593,-16.417314,1.067056,0.300249,0.393100,1.068241
18899,0.664646,-15.821040,0.142272,1.923128,-0.057731,1.042918
18900,0.741249,-14.143709,-0.088561,3.294080,-0.504894,1.044293
18901,1.483798,-11.944179,0.239081,4.168551,-0.860825,1.081949
18902,2.509806,-9.802906,0.857612,4.538450,-1.029489,1.159307
18903,3.206072,-7.692404,1.780653,4.480052,-1.010934,1.230984
18904,3.523076,-5.639602,2.825218,4.049981,-0.873197,1.242209
18905,3.613185,-3.647606,3.984165,3.282577,-0.660206,1.196557
18906,3.665062,-1.958893,5.265278,2.182407,-0.407531,1.102978
18907,3.869085,-0.856737,6.151151,0.794472,-0.100684,1.002019
18908,4.034241,-1.035603,6.436363,-0.670542,0.254561,0.912587
18909,3.953227,-2.440567,6.162086,-1.933097,0.637428,0.850315
18910,3.493639,-4.756959,5.695151,-2.797166,0.985282,0.804227
18911,2.723749,-7.585801,5.314156,-3.187164,1.210848,0.808528
18912,1.624948,-10.939280,4.611711,-3.013287,1.280248,0.856709
18913,0.476630,-14.277980,3.621904,-2.108914,1.162405,0.921234
18914,-0.633724,-16.442003,2.224033,-0.600322,0.833639,0.941273
18915,-1.285097,-16.849991,1.361475,1.176370,0.316740,0.927149
18916,-1.078496,-15.439425,1.006221,2.811524,-0.242577,0.885861
18917,-0.125389,-12.861011,1.026697,3.979133,-0.690799,0.850413
18918,0.966521,-10.201724,1.314053,4.575258,-0.950606,0.854169
18919,1.712470,-7.801376,2.039331,4.673370,-1.031549,0.880554
18920,1.956956,-5.602320,3.208300,4.349340,-0.972887,0.898430
18921,1.987405,-3.597960,4.865327,3.615127,-0.824128,0.909076
18922,2.179178,-1.858683,6.792687,2.469625,-0.543722,0.890174
18923,2.267430,-0.748253,8.239002,1.008359,-0.156384,0.834576
18924,2.356127,-1.452969,8.211625,-0.425932,0.274590,0.775065
18925,1.909043,-3.528439,7.323732,-1.395826,0.651765,0.725542
18926,1.005564,-5.691974,6.219047,-1.878820,0.832599,0.709482
18927,0.054156,-7.675692,5.265881,-2.030745,0.789212,0.756237
18928,-0.177054,-9.666418,4.764082,-1.901117,0.641925,0.853187
18929,-0.402903,-10.999626,4.411436,-1.537308,0.500321,0.871374
18930,-0.675089,-11.869124,3.953806,-0.907132,0.297446,0.857309
18931,-0.966918,-11.968873,3.656703,-0.061965,0.031498,0.816613
18932,-0.934251,-10.941568,3.556855,0.734669,-0.272980,0.778688
18933,-0.506442,-9.320240,3.860123,1.241590,-0.531424,0.773572
18934,0.064029,-7.271174,4.361785,1.350499,-0.674638,0.781685
18935,0.591178,-5.099812,5.004109,1.050711,-0.670817,0.778972
18936,0.878071,-3.012143,5.855840,0.334676,-0.528360,0.790465
18937,1.102535,-1.354834,6.531777,-0.732210,-0.304336,0.796746
18938,1.225081,-0.233460,7.098999,-2.100077,0.016375,0.734619
18939,0.860226,-0.457958,6.403282,-3.471939,0.264598,0.613960
18940,0.853874,-2.945439,5.327448,-4.542522,0.460465,0.539854
18941,0.616143,-6.497319,3.977570,-5.002257,0.648900,0.452941
18942,0.381604,-9.398531,3.171334,-4.876047,0.778243,0.389017
18943,0.149235,-11.348174,3.627140,-4.425637,0.855154,0.371456
18944,-0.480846,-12.741098,3.868468,-3.687560,0.905242,0.315087
18945,-1.274333,-14.222509,3.588886,-2.595052,0.802441,0.254566
18946,-1.971638,-15.538004,2.443499,-1.174858,0.549074,0.228362
18947,-2.300463,-15.273691,1.263997,0.392654,0.187816,0.175713
18948,-1.797629,-13.503508,1.299300,1.685892,-0.112442,0.126265
18949,-1.288057,-11.158130,1.979693,2.509953,-0.272524,0.079367
18950,-1.019624,-8.841165,2.511015,2.828737,-0.342139,0.050050
18951,-0.930299,-6.851109,2.975665,2.701439,-0.390325,0.056609
18952,-0.851202,-5.474275,3.174934,2.171755,-0.438091,0.074868
18953,-0.580536,-4.468050,3.463985,1.333989,-0.470648,0.091150
18954,-0.095952,-3.618449,3.488297,0.203054,-0.440111,0.105839
18955,0.397729,-3.134457,3.334793,-1.117651,-0.319570,0.133688
18956,0.743228,-3.211860,3.029854,-2.477163,-0.134264,0.161675
18957,0.923914,-4.196221,2.620596,-3.695382,0.058748,0.184076
18958,1.038784,-6.008711,2.120262,-4.636685,0.292041,0.202480
18959,0.563906,-8.534186,1.674297,-5.161819,0.509659,0.244668
18960,-0.502191,-11.347850,1.304718,-5.225174,0.580013,0.308340
18961,-1.865226,-14.182563,1.083945,-4.889182,0.428105,0.403596
18962,-2.957468,-16.576254,1.007180,-4.241219,0.069174,0.481980
18963,-2.848647,-17.841977,0.741498,-3.259846,-0.297064,0.544224
18964,-1.897881,-17.729688,0.547925,-2.043066,-0.471265,0.576710
18965,-0.943707,-16.148010,0.844026,-0.780857,-0.459228,0.544127
18966,-0.414938,-13.819016,1.408294,0.289535,-0.349712,0.455661
18967,-0.531914,-11.574744,1.673119,1.068515,-0.236066,0.336423
18968,-0.807690,-9.718519,1.531453,1.567905,-0.207415,0.233462
18969,-0.889836,-7.984225,1.202377,1.807754,-0.210251,0.146461
18970,-0.576980,-6.116912,1.354377,1.730158,-0.173886,0.111898
18971,-0.278754,-4.320821,1.517192,1.265272,-0.046855,0.085621
18972,-0.059594,-3.055775,1.502194,0.518534,0.105155,0.046631
18973,-0.046937,-2.725218,1.378735,-0.379472,0.263055,0.011141
18974,-0.081806,-3.538788,1.007778,-1.237639,0.391757,0.001395
18975,-0.088311,-4.789254,0.753468,-2.031295,0.494188,0.056977
18976,-0.273309,-5.989315,0.470537,-2.725676,0.591529,0.113507
18977,-0.530486,-7.328785,0.150699,-3.313689,0.609084,0.134577
18978,-0.731729,-9.106298,-0.485584,-3.709664,0.543067,0.136493
18979,-0.900501,-11.464924,-1.025365,-3.754478,0.458297,0.144879
18980,-1.262169,-13.841863,-1.313314,-3.357892,0.387080,0.151055
18981,-1.728971,-15.431071,-1.348355,-2.531771,0.311333,0.110942
18982,-2.060567,-16.045782,-1.297418,-1.429276,0.235033,0.011430
18983,-2.372270,-15.741613,-1.128302,-0.122797,0.094596,-0.178760
18984,-2.015870,-15.167371,-0.353523,1.172495,-0.025469,-0.367374
18985,-2.063063,-14.515048,-0.699738,2.493762,-0.166208,-0.566701
18986,-1.083074,-12.917212,-1.161059,3.815151,-0.309941,-0.709437
18987,-0.632777,-10.891648,-1.771549,4.823235,-0.240238,-0.785270
18988,-1.026215,-8.354704,-1.575537,5.202581,-0.131858,-0.776476
18989,-1.467019,-6.347955,-0.326022,4.796703,-0.080121,-0.639134
18990,-1.287648,-4.785468,1.081395,3.730547,0.015552,-0.446374
18991,-0.827622,-3.491155,1.968554,2.196950,0.165147,-0.221111
18992,-0.195407,-3.005014,2.268666,0.411558,0.283435,-0.001131
18993,0.379877,-4.113371,1.607921,-1.288721,0.359775,0.159731
18994,0.735492,-6.133871,0.485063,-2.616303,0.411309,0.219176
18995,0.728895,-8.483315,-0.451106,-3.448587,0.457452,0.188352
18996,0.472468,-10.831823,-0.729911,-3.732034,0.471401,0.141250
18997,-0.270742,-12.900502,-0.625604,-3.513986,0.471389,0.089450
18998,-1.280991,-14.561183,-0.215888,-2.829773,0.367558,0.053722
18999,-2.013802,-15.894329,0.418846,-1.773458,0.216419,0.044279
19000,-2.233115,-16.558696,0.166000,-0.464115,0.065205,0.067615
19001,-2.200462,-15.803449,-0.582148,0.986627,-0.040637,0.087208
19002,-1.891280,-13.449735,-0.757434,2.224237,-0.091214,0.063116
19003,-1.576561,-10.687057,-0.406394,2.951169,-0.112569,-0.006473
19004,-1.280179,-8.281693,-0.161880,3.121540,-0.114428,-0.075981
19005,-0.838343,-6.447362,0.125052,2.829954,-0.108501,-0.084817
19006,-0.378150,-5.201837,0.705169,2.171002,-0.057114,-0.048516
19007,-0.078893,-4.544113,1.260073,1.288621,0.024464,-0.003050
19008,0.035836,-4.611892,1.226915,0.359105,0.088333,0.003048
19009,0.168783,-5.682508,1.135229,-0.422131,0.141191,-0.064929
19010,0.252192,-7.589123,1.082479,-0.864248,0.224753,-0.152822
19011,0.125658,-10.028303,1.324785,-0.899966,0.364616,-0.203927
19012,-0.543611,-12.301620,1.244777,-0.524723,0.488002,-0.242186
19013,-1.173346,-13.653343,1.618146,0.147822,0.540810,-0.277618
19014,-1.593524,-14.484675,1.909259,0.981663,0.513647,-0.338471
19015,-1.632109,-15.046335,2.336344,1.947517,0.439202,-0.407721
19016,-1.558400,-16.095351,2.200891,3.070107,0.393982,-0.450258
19017,-1.605937,-16.784571,1.901831,4.406809,0.310933,-0.446804
19018,-1.539345,-16.709024,1.774096,5.824264,0.177112,-0.402072
19019,-1.301019,-15.538466,1.727637,7.194133,-0.001640,-0.309281
19020,-1.067382,-13.849345,1.667284,8.177081,-0.189423,-0.183854
19021,-0.793019,-11.949877,1.831605,8.724209,-0.375670,-0.030864
19022,-0.617669,-9.423078,2.343285,8.619584,-0.537684,0.083432
19023,-0.274698,-6.519523,2.767870,7.893053,-0.647089,0.151825
19024,0.018598,-4.129598,3.176067,6.806072,-0.593460,0.125286
19025,-0.019837,-2.415269,4.258940,5.494348,-0.452630,0.064771
19026,-0.493070,-2.296735,4.266090,4.096223,-0.345804,0.025506
19027,-0.580240,-2.787761,3.704609,2.976323,-0.305437,0.046772
19028,-0.512551,-3.243783,3.504200,2.059227,-0.257662,0.129871
19029,-0.331120,-3.320535,4.163748,1.348002,-0.159301,0.253467
19030,0.010200,-2.626216,5.842813,0.668765,0.003396,0.379017
19031,0.031214,-1.852902,7.725323,-0.132279,0.236615,0.485857
19032,-0.357182,-2.110895,8.752142,-0.904933,0.423865,0.572812
19033,-0.849878,-3.295029,9.039561,-1.383701,0.506707,0.621393
19034,-1.356667,-5.354910,8.820799,-1.576636,0.470170,0.615608
19035,-1.501035,-8.241920,8.565918,-1.320296,0.358808,0.555218
19036,-1.649335,-11.483170,8.564072,-0.495909,0.160474,0.489426
19037,-2.000387,-14.836558,7.267134,0.781668,-0.202534,0.407605
19038,-1.494899,-16.011942,5.567073,2.566125,-0.665982,0.264280
19039,-0.557486,-13.623498,4.663626,4.292230,-0.967965,0.084755
19040,-0.028263,-9.196157,4.791664,5.359808,-1.070897,-0.044574
19041,-0.011073,-4.787699,5.410441,5.647569,-1.018089,-0.103133
19042,-0.270425,-1.204775,5.622618,5.236622,-0.909681,-0.090788
19043,-0.431388,1.587645,5.824611,4.313620,-0.737175,-0.057335
19044,-0.695596,4.023352,6.380022,2.920133,-0.480519,-0.022860
19045,-0.973852,6.002105,7.274080,1.096277,-0.201252,0.041860
19046,-1.176319,7.208911,8.192842,-1.151667,0.081156,0.213358
19047,-1.284768,7.108796,7.914243,-3.739624,0.248174,0.457586
19048,-0.632857,6.059701,6.631662,-6.382487,0.333429,0.720116
19049,1.192665,5.419986,5.977143,-8.821172,0.519156,0.919077
19050,2.867006,4.855223,6.112241,-11.091038,1.019310,0.933099
19051,1.737282,0.511141,4.897695,-12.869364,1.609109,0.849855
19052,-2.390189,-11.107349,2.743047,-12.942515,1.855128,0.824899
19053,-6.426535,-29.098987,1.000791,-10.209416,1.318738,0.928791
19054,-4.153493,-43.061314,-0.567531,-4.059130,0.215602,0.622380
19055,-0.381452,-40.164342,1.227351,3.037435,-0.627513,0.214544
19056,-0.518478,-26.581961,1.564957,8.086782,-1.353269,-0.346786
19057,-0.116387,-14.680895,0.656223,10.580600,-1.856598,-0.828826
19058,0.417170,-6.334555,-0.696575,11.384407,-1.917779,-1.082543
19059,0.116287,-0.053794,-0.833888,11.035430,-1.687920,-1.114505
19060,-0.873910,4.551772,1.211305,9.781419,-1.354704,-0.987095
19061,-1.505879,7.849666,4.503232,7.795497,-1.049217,-0.769136
19062,-1.422815,10.088502,7.942042,5.257352,-0.696683,-0.552757
19063,-1.240342,10.931605,10.582703,2.325352,-0.399074,-0.340960
19064,-0.483482,9.623936,11.256722,-0.681472,-0.169935,-0.135166
19065,0.688138,6.532509,10.591547,-3.270651,0.151283,0.049472
19066,1.182403,2.412573,9.166280,-5.141093,0.581192,0.215537
19067,0.410451,-2.928889,7.427150,-6.019972,0.906048,0.409001
19068,-0.933374,-8.955244,6.362226,-5.771442,0.906206,0.556338
19069,-1.582014,-14.298410,5.847345,-4.580281,0.593460,0.486782
19070,-1.267942,-17.846097,5.158588,-2.718274,0.194664,0.220604
19071,-0.351042,-18.048243,5.191937,-0.474398,-0.173837,-0.146670
19072,0.272737,-14.484180,5.689777,1.472977,-0.460597,-0.409328
19073,0.539513,-9.232694,6.600648,2.651373,-0.596307,-0.527130
19074,0.633183,-4.344044,7.523376,2.893973,-0.543122,-0.519834
19075,0.308815,-0.489192,8.127049,2.314451,-0.407077,-0.409502
19076,0.028969,2.244134,8.480530,1.109957,-0.247976,-0.270913
19077,0.147221,4.047306,8.350889,-0.599529,-0.083701,-0.116275
19078,0.548663,4.754817,7.777376,-2.579401,0.117278,0.023030
19079,1.036186,4.720690,6.852244,-4.691763,0.360228,0.111926
19080,1.286011,3.891691,5.252207,-6.770509,0.619697,0.150563
19081,1.271172,2.178405,3.169914,-8.547833,0.807569,0.151141
19082,1.607065,-0.813494,1.691330,-9.792764,0.969200,0.113293
19083,1.523987,-4.535526,0.440497,-10.325265,1.237398,-0.059239
19084,0.615155,-9.769829,0.989299,-9.901444,1.474071,-0.223996
19085,-1.178798,-18.394499,2.778342,-8.651906,1.599343,-0.285711
19086,-3.523063,-28.676940,2.319401,-5.823281,1.320876,-0.263449
19087,-4.732478,-32.984814,2.159373,-1.291761,0.681362,-0.296806
19088,-4.267842,-31.295386,1.862692,3.387076,-0.126731,-0.411847
19089,-2.393624,-24.942974,0.443597,7.217108,-0.881557,-0.533937
19090,-0.753725,-17.511634,-1.227961,9.602375,-1.314201,-0.694040
19091,0.118882,-11.240174,-2.336423,10.659815,-1.548624,-0.810237
19092,0.718409,-5.783669,-2.189934,10.722916,-1.600929,-0.863029
19093,0.964363,-0.821130,-0.356518,9.898247,-1.463165,-0.844338
19094,0.570810,3.559471,2.563596,8.243350,-1.221451,-0.778952
19095,-0.006656,6.968730,5.464145,5.820122,-0.953695,-0.680688
19096,-0.285039,9.607048,7.968548,2.797438,-0.746214,-0.547911
19097,0.168328,10.990328,9.023276,-0.682721,-0.562775,-0.429269
19098,1.548941,10.270440,7.935802,-4.243763,-0.304025,-0.346686
19099,3.165193,7.648021,5.337645,-7.435720,0.095018,-0.258402
19100,4.202935,3.772303,2.287001,-9.853377,0.639562,-0.161989
19101,4.472865,-0.226179,0.193721,-11.386093,1.227859,-0.115093
19102,4.528751,-4.236714,-0.195999,-12.197046,1.823454,-0.187550
19103,4.046100,-9.147500,0.380045,-12.361015,2.488420,-0.307815
19104,0.996740,-18.067611,-0.091724,-11.556571,2.952509,-0.385590
19105,-3.985253,-29.530632,-2.238438,-8.731623,2.605241,-0.385390
19106,-7.098019,-36.885135,-3.086771,-3.812384,1.401258,-0.478386
19107,-5.268298,-35.263843,-2.093558,1.741051,-0.029598,-0.656425
19108,-2.261632,-26.489586,-1.659746,6.157577,-1.001620,-0.781888
19109,-0.506378,-17.649955,-2.335924,8.745876,-1.549613,-0.806086
19110,0.495089,-11.017861,-3.081003,9.900315,-1.873117,-0.719654
19111,1.183784,-5.884092,-2.775205,9.966836,-2.015473,-0.598450
19112,1.893061,-1.383941,-0.817766,9.124904,-2.005536,-0.477510
19113,2.235593,2.320804,2.250385,7.439067,-1.835891,-0.365469
19114,2.229487,5.310206,5.165403,5.134243,-1.556962,-0.288413
19115,2.003360,8.091149,7.196403,2.366600,-1.261765,-0.286478
19116,2.175710,9.851196,8.201228,-0.734821,-1.028669,-0.465681
19117,3.885317,8.751261,8.275148,-3.874094,-0.707833,-0.869188
19118,6.549008,4.749603,6.597363,-6.426024,0.023654,-1.240859
19119,7.476846,-0.512020,3.556751,-7.966744,1.041373,-1.375965
19120,6.108173,-6.165506,1.799669,-8.504892,1.912870,-1.332222
19121,3.778469,-11.842422,1.332856,-8.275451,2.499627,-1.134234
19122,0.572593,-17.553276,0.715386,-7.192766,2.610000,-0.820349
19123,-2.328381,-21.944141,-0.044492,-5.117444,2.119698,-0.627263
19124,-3.982828,-23.696689,-1.053730,-2.383062,1.182891,-0.685457
19125,-3.397661,-22.348994,-1.172452,0.546107,0.053993,-0.854469
19126,-1.532454,-18.435822,-1.156889,2.949292,-0.882617,-0.962870
19127,0.269663,-14.189790,-1.267387,4.453008,-1.503056,-0.939064
19128,1.818933,-10.848787,-0.697158,5.107054,-1.873352,-0.803965
19129,3.201943,-8.264047,0.794209,5.124409,-2.025521,-0.612758
19130,4.276997,-5.740529,3.228106,4.676245,-1.942649,-0.504634
19131,5.316425,-2.680596,6.871085,3.680708,-1.610701,-0.568553
19132,5.839451,-0.027232,9.117932,2.076935,-1.020612,-0.771376
19133,5.365012,0.143808,8.597092,0.493770,-0.372998,-1.030810
19134,4.574860,-1.647029,7.104630,-0.615055,0.118777,-1.270708
19135,3.944720,-3.868054,6.302084,-1.367296,0.497218,-1.389291
19136,3.689262,-6.077836,5.947253,-1.902029,0.783637,-1.355224
19137,3.723580,-8.414941,4.673126,-2.053508,0.965660,-1.279669
19138,3.202277,-10.322282,2.879985,-1.696731,0.989907,-1.245830
19139,2.115156,-11.358742,1.613082,-1.051262,0.809928,-1.244557
19140,1.064012,-11.594679,0.763651,-0.369241,0.409553,-1.223858
19141,0.744230,-11.158030,0.513380,0.307719,-0.100892,-1.156862
19142,1.155763,-10.012827,0.767216,0.770422,-0.619050,-1.061126
19143,2.355294,-8.684900,1.514191,0.928386,-1.064304,-0.943716
19144,4.017695,-7.364353,2.751447,0.811485,-1.303814,-0.822911
19145,5.663589,-5.902445,4.873256,0.413010,-1.263011,-0.771945
19146,6.964070,-4.406320,7.232412,-0.318594,-0.937568,-0.826396
19147,7.367165,-3.783759,8.345485,-1.239683,-0.412461,-0.963609
19148,6.673366,-4.687078,7.036588,-1.902837,0.111976,-1.128062
19149,5.248141,-6.653325,5.204811,-1.955337,0.443899,-1.239289
19150,4.089784,-8.609211,4.744928,-1.670569,0.526947,-1.249422
19151,3.909337,-10.352942,4.224338,-1.287461,0.438763,-1.170975
19152,4.132109,-11.575642,2.745110,-0.674974,0.291120,-1.115897
19153,3.876983,-11.697056,1.343290,0.164311,0.102216,-1.154727
19154,3.163796,-10.782452,0.419789,0.938436,-0.188924,-1.232311
19155,2.828925,-9.604925,0.030228,1.508277,-0.562724,-1.255020
19156,3.041283,-8.301446,0.026261,1.788691,-0.921830,-1.193935
19157,3.705352,-7.022975,0.317008,1.769088,-1.234409,-1.056509
19158,4.817230,-5.711968,1.151395,1.501075,-1.480034,-0.900956
19159,6.158646,-4.014649,2.859092,0.940829,-1.553154,-0.784999
19160,7.647678,-2.054017,5.292116,-0.024034,-1.398482,-0.797520
19161,8.737537,-0.572410,6.822560,-1.343362,-1.003667,-0.920159
19162,9.125597,-0.464905,7.078824,-2.672949,-0.450233,-1.131217
19163,8.696238,-2.068614,5.621578,-3.697024,0.097003,-1.381819
19164,7.653840,-5.314714,3.617701,-3.991248,0.499989,-1.560198
19165,6.685240,-8.673895,3.113578,-3.607533,0.712781,-1.593631
19166,6.118068,-11.533046,2.803409,-2.962668,0.744732,-1.490599
19167,5.593882,-13.612554,1.783338,-2.042452,0.603468,-1.336286
19168,4.924955,-14.210794,0.636856,-0.845313,0.334693,-1.239969
19169,4.098626,-13.510711,-0.284419,0.366035,-0.050404,-1.224739
19170,3.717463,-12.038021,-0.973421,1.450892,-0.499016,-1.207893
19171,3.957413,-10.059485,-0.873000,2.236437,-0.929635,-1.166464
19172,4.816763,-8.045734,-0.221975,2.557930,-1.280967,-1.081657
19173,6.222227,-6.199339,0.824424,2.449812,-1.511503,-0.938157
19174,7.743010,-4.080672,2.091599,1.977411,-1.548912,-0.824048
19175,8.954090,-2.087318,3.916000,1.187357,-1.407093,-0.819449
19176,9.920169,-0.488592,6.009584,0.061490,-1.109440,-0.950207
19177,10.457939,-0.305838,6.693390,-1.237550,-0.646043,-1.130573
19178,9.955004,-1.779022,5.180956,-2.240435,-0.119006,-1.315443
19179,8.794740,-4.378221,3.527671,-2.548674,0.243319,-1.477054
19180,8.384450,-7.178251,3.489967,-2.415363,0.454848,-1.521077
19181,8.523523,-9.812111,3.499338,-2.054051,0.591706,-1.405818
19182,8.343219,-11.656733,2.825351,-1.402737,0.652829,-1.243370
19183,7.551338,-12.246056,1.570159,-0.477636,0.606476,-1.175751
19184,6.183911,-12.026057,0.228509,0.660487,0.423679,-1.191582
19185,4.861890,-11.105142,-0.664796,1.847668,0.086502,-1.227233
19186,4.249878,-9.746978,-1.122039,2.772335,-0.356998,-1.181347
19187,4.469531,-8.417366,-1.124808,3.318807,-0.838568,-1.021185
19188,5.271793,-6.830150,-0.794947,3.485129,-1.252858,-0.796679
19189,6.631922,-5.067753,0.065953,3.291429,-1.531388,-0.561968
19190,8.190674,-3.085602,1.380659,2.742287,-1.599353,-0.383606
19191,9.522650,-1.076275,2.682261,1.888186,-1.440568,-0.313376
19192,10.270811,0.540152,3.745336,0.871110,-1.127481,-0.354386
19193,10.673445,1.514251,5.066552,-0.299680,-0.738810,-0.488450
19194,11.166886,1.189167,5.978546,-1.552140,-0.296383,-0.642603
19195,11.525517,-0.283404,6.344495,-2.644910,0.210968,-0.791163
19196,11.083092,-2.412434,4.537896,-3.345830,0.716100,-0.924446
19197,9.843982,-4.931002,2.894409,-3.270612,1.014676,-1.084447
19198,9.319048,-7.439094,2.570500,-2.696599,1.112555,-1.153723
19199,8.840361,-9.712023,2.402104,-1.841107,1.074124,-1.100833
19200,8.143263,-10.859121,1.679430,-0.735678,0.879676,-1.034737
19201,6.777232,-10.487250,-0.082499,0.490158,0.564766,-1.041309
19202,5.470011,-9.380845,-1.322110,1.765185,0.078129,-1.085891
19203,5.028192,-7.572373,-1.718881,2.736444,-0.548528,-1.066053
19204,5.555687,-5.902500,-1.834366,3.219464,-1.171646,-0.937401
19205,6.565530,-4.388207,-1.766974,3.256378,-1.666891,-0.726525
19206,7.582745,-2.866007,-1.746288,2.941778,-1.996135,-0.490638
19207,8.498283,-1.378778,-1.396833,2.374185,-2.162645,-0.346770
19208,9.444406,0.231809,-0.467621,1.543674,-2.219106,-0.293529
19209,10.479914,1.684630,0.787493,0.408243,-2.125429,-0.313174
19210,11.541878,2.772848,2.144239,-0.954977,-1.805834,-0.397216
19211,12.525396,3.142500,4.318459,-2.426328,-1.240358,-0.537586
19212,13.591317,2.385538,5.957529,-3.878336,-0.438051,-0.693978
19213,13.909619,0.793292,5.355212,-5.060339,0.551533,-0.843114
19214,12.151618,-1.470253,2.711495,-5.645885,1.323494,-1.047120
19215,9.770913,-4.355699,0.280819,-5.418524,1.665906,-1.212364
19216,8.388928,-7.603164,0.110200,-4.586944,1.683748,-1.207184
19217,7.690328,-10.690744,0.451644,-3.412966,1.487293,-1.017188
19218,6.839611,-12.377014,0.103297,-2.042089,1.083142,-0.789923
19219,6.203191,-12.384422,-0.833884,-0.525349,0.506865,-0.628743
19220,6.257244,-11.282960,-1.602481,0.972773,-0.110774,-0.519831
19221,6.997513,-9.582641,-2.124326,2.290594,-0.683772,-0.395685
19222,7.929597,-7.659886,-2.248737,3.280032,-1.163899,-0.246811
19223,8.668323,-5.818111,-1.948622,3.858902,-1.541883,-0.122010
19224,9.407026,-3.961875,-1.218472,4.001375,-1.816058,-0.059464
19225,10.330689,-1.511818,-0.062274,3.701136,-1.911468,-0.093614
19226,11.477765,1.033226,1.727735,2.935022,-1.787202,-0.223680
19227,12.774371,3.141254,3.705258,1.837721,-1.331335,-0.407292
19228,13.377363,3.831713,4.196532,0.620149,-0.620102,-0.608832
19229,12.715205,2.903086,3.396850,-0.350090,0.095093,-0.796422
19230,11.662387,0.935359,2.407750,-0.850699,0.571923,-0.971367
19231,10.707924,-1.220374,2.215306,-0.989246,0.887580,-1.062647
19232,9.906275,-3.457572,2.295965,-0.804244,1.052475,-1.051854
19233,8.911713,-5.092712,2.118762,-0.368885,1.055991,-0.985995
19234,7.902340,-6.296295,1.081661,0.180823,0.911575,-0.909147
19235,6.393093,-6.846236,-0.897567,0.916029,0.643415,-0.783799
19236,4.828559,-6.595290,-2.249006,1.706935,0.164005,-0.598994
19237,4.659225,-5.708542,-3.029573,2.304504,-0.565093,-0.393759
19238,6.377141,-4.544035,-3.119222,2.544739,-1.274241,-0.182615
19239,9.130867,-3.445687,-2.632560,2.420891,-1.708207,0.033015
19240,11.212036,-2.215894,-1.766184,2.035373,-1.668540,0.157862
19241,11.420366,-0.887601,-0.411097,1.506346,-1.326512,0.125481
19242,10.979403,0.217027,1.141993,0.918173,-1.012122,0.026348
19243,11.252698,1.458575,2.724364,0.250185,-0.721459,-0.061937
19244,11.913095,2.509955,4.062600,-0.554109,-0.321994,-0.154645
19245,12.315102,2.741206,4.212020,-1.363741,0.159080,-0.241477
19246,11.708880,2.098450,3.296463,-1.977500,0.648597,-0.322334
19247,10.417444,0.638457,2.127718,-2.233004,0.941263,-0.362544
19248,9.711230,-1.470839,1.316207,-2.130534,0.964433,-0.346579
19249,9.673685,-3.849940,0.733779,-1.732746,0.845137,-0.295717
19250,9.373337,-5.632684,0.008993,-1.076105,0.679858,-0.283577
19251,8.300439,-6.033410,-0.511144,-0.200668,0.455127,-0.344062
19252,7.617427,-5.176794,-1.057085,0.729271,0.069880,-0.440291
19253,7.843951,-3.553242,-1.313119,1.402085,-0.429634,-0.486921
19254,8.696674,-2.098313,-1.320564,1.641871,-0.876735,-0.456406
19255,9.404062,-0.957433,-1.345589,1.472992,-1.134504,-0.397672
19256,9.957520,-0.166006,-1.279136,1.059517,-1.217664,-0.345940
19257,10.491619,0.681211,-0.751733,0.458405,-1.152080,-0.299380
19258,11.082956,1.590874,0.704002,-0.292748,-0.908006,-0.264674
19259,11.732745,2.245937,2.159192,-1.188215,-0.515515,-0.232094
19260,12.390283,2.206460,3.023818,-2.061287,0.009696,-0.227650
19261,12.605194,1.320347,3.340959,-2.698616,0.627156,-0.336070
19262,11.682314,-0.057230,2.501877,-2.916748,1.127961,-0.521066
19263,10.388399,-2.527677,1.593456,-2.704863,1.394150,-0.595387
19264,8.824807,-5.388075,0.909337,-2.087378,1.366183,-0.495724
19265,7.598380,-7.553307,0.243149,-1.123596,1.029634,-0.389538
19266,7.015738,-8.328890,-0.659958,0.005836,0.510341,-0.315075
19267,6.908589,-7.423618,-1.408037,1.104833,-0.048826,-0.249184
19268,7.243513,-5.108455,-1.814494,1.965277,-0.544423,-0.233923
19269,8.110863,-2.753511,-2.100211,2.400650,-0.962550,-0.222459
19270,9.273659,-1.181232,-2.029301,2.368108,-1.210319,-0.143888
19271,10.059426,0.016109,-1.767755,1.959569,-1.234678,-0.073426
19272,10.542365,1.016423,-1.120303,1.333322,-1.094720,-0.032191
19273,10.853949,1.718493,-0.373014,0.595523,-0.861425,-0.010426
19274,10.935443,2.497024,0.536077,-0.171753,-0.573803,-0.006912
19275,11.153794,3.026399,1.508766,-0.991539,-0.236253,-0.025596
19276,11.192754,2.822516,1.853503,-1.784578,0.125265,-0.063907
19277,10.853044,1.804418,1.550299,-2.393795,0.434481,-0.105130
19278,10.363390,0.059487,1.004739,-2.674635,0.622547,-0.147134
19279,9.852731,-2.046910,0.508399,-2.576412,0.694135,-0.153075
19280,9.329075,-3.961270,0.262931,-2.116625,0.626261,-0.142725
19281,8.795933,-5.335638,0.015133,-1.398540,0.452963,-0.129481
19282,8.470995,-5.708797,-0.114390,-0.532330,0.177167,-0.122564
19283,8.439331,-5.027805,-0.150440,0.287353,-0.139725,-0.136219
19284,8.912600,-3.865877,-0.105269,0.872157,-0.418237,-0.131335
19285,9.498064,-2.601005,-0.074262,1.180850,-0.570350,-0.125161
19286,9.933286,-1.406821,-0.168598,1.253822,-0.580596,-0.118267
19287,10.141166,-0.384230,-0.258713,1.108203,-0.508617,-0.103922
19288,10.270053,0.355199,-0.225921,0.814164,-0.402760,-0.077774
19289,10.355900,0.785111,0.027941,0.424544,-0.284553,-0.035665
19290,10.637874,0.963106,0.587218,-0.013861,-0.135433,-0.002415
19291,10.947257,0.699158,1.211556,-0.401478,0.060310,0.008937
19292,10.851008,-0.002090,1.529118,-0.662496,0.257744,-0.007424
19293,10.428838,-1.001046,1.472728,-0.763702,0.416735,-0.022321
19294,9.868586,-2.026735,1.001286,-0.655286,0.477802,-0.031513
19295,9.341902,-2.982859,0.491326,-0.327922,0.407446,-0.007935
19296,9.202195,-3.679072,0.103820,0.122503,0.255118,0.020681
19297,9.250838,-3.855118,-0.144223,0.596323,0.095110,0.035293
19298,9.286193,-3.565822,-0.425781,0.997081,-0.043935,0.036230
19299,9.323591,-2.856904,-0.726066,1.302419,-0.167244,0.032535
19300,9.393534,-1.886347,-0.948255,1.470254,-0.265364,0.028518
19301,9.581696,-0.807449,-0.980974,1.463063,-0.338337,0.036209
19302,9.807003,0.204285,-0.764463,1.253278,-0.351847,0.049983
19303,10.119892,0.953955,-0.472944,0.865258,-0.291424,0.062132
19304,10.242599,1.288341,-0.117608,0.353481,-0.181466,0.091004
19305,10.217227,1.195307,0.052973,-0.148967,-0.042422,0.112894
19306,10.103522,0.766682,0.106770,-0.586608,0.067045,0.122762
19307,9.990500,0.031243,0.111498,-0.894081,0.138021,0.122647
19308,9.871698,-0.827988,0.174642,-1.045381,0.183468,0.119504
19309,9.770509,-1.500669,0.326382,-1.022207,0.195972,0.101842
19310,9.718020,-1.972414,0.425742,-0.882559,0.202852,0.076917
19311,9.617607,-2.200206,0.488785,-0.653143,0.175270,0.055806
19312,9.544677,-2.289548,0.490986,-0.389049,0.124763,0.028857
19313,9.558004,-2.376047,0.429337,-0.127575,0.057427,0.007240
19314,9.642407,-2.245286,0.355655,0.106974,-0.004612,-0.022477
19315,9.745707,-1.968817,0.294763,0.292760,-0.042820,-0.042374
19316,9.814371,-1.659795,0.175596,0.400903,-0.061203,-0.064093
19317,9.846127,-1.275545,0.116012,0.433571,-0.063872,-0.070739
19318,9.943948,-0.933707,0.116344,0.395084,-0.044436,-0.076694
19319,9.944852,-0.681746,0.139032,0.281819,-0.008319,-0.068370
19320,9.946947,-0.561481,0.178366,0.139485,0.031653,-0.055564
19321,9.854310,-0.578039,0.125004,-0.004372,0.064979,-0.045641
19322,9.839064,-0.776670,0.079006,-0.120792,0.086624,-0.036737
19323,9.779231,-0.995393,0.030332,-0.189904,0.105122,-0.028190
19324,9.720371,-1.172324,0.076038,-0.212687,0.113316,-0.018704
19325,9.668215,-1.298749,0.091806,-0.204744,0.114851,-0.009955
19326,9.664502,-1.352077,0.104702,-0.176784,0.094015,-0.011992
19327,9.666938,-1.425408,0.143754,-0.135617,0.078779,-0.005064
19328,9.714771,-1.408251,0.128837,-0.086838,0.063977,-0.006539
19329,9.755720,-1.442778,0.142466,-0.039149,0.050049,-0.004276
19330,9.816418,-1.408573,0.200664,0.002758,0.040829,-0.003936
19331,9.807705,-1.328946,0.219903,0.040074,0.029909,-0.007930
19332,9.818473,-1.221822,0.189110,0.060240,0.028120,-0.013687
19333,9.845241,-1.099651,0.208230,0.058951,0.025766,-0.016380
19334,9.855214,-1.063292,0.234278,0.047333,0.035098,-0.020204
19335,9.801333,-1.058362,0.230986,0.023765,0.043069,-0.017436
19336,9.791618,-1.091040,0.212874,0.001672,0.042897,-0.018357
19337,9.775879,-1.103815,0.166795,-0.015966,0.041281,-0.021418
19338,9.756973,-1.113816,0.144487,-0.027878,0.040556,-0.023908
19339,9.772569,-1.153597,0.178898,-0.037476,0.031991,-0.023508
19340,9.776056,-1.153737,0.157848,-0.038016,0.038615,-0.026196
19341,9.760030,-1.180694,0.186702,-0.039105,0.036955,-0.026283
19342,9.770302,-1.087402,0.231489,-0.047845,0.040499,-0.019393
19343,9.751364,-1.098080,0.208590,-0.065552,0.038197,-0.013373
19344,9.748103,-1.094740,0.235386,-0.093654,0.035713,-0.008398
19345,9.712492,-1.192517,0.217586,-0.127441,0.029836,-0.007855
19346,9.784806,-1.296434,0.214313,-0.141001,0.027784,-0.002666
19347,9.815734,-1.422638,0.183170,-0.138776,0.045925,0.004051
19348,9.734575,-1.556863,0.237122,-0.113964,0.048322,0.018281
19349,9.730436,-1.613574,0.245153,-0.076685,0.051101,0.027253
19350,9.663231,-1.588998,0.261306,-0.030810,0.034809,0.031906
19351,9.625354,-1.503249,0.250365,0.007831,0.025720,0.039706
19352,9.613164,-1.410731,0.216888,0.032829,0.011502,0.046146
19353,9.594299,-1.313998,0.230366,0.042571,-0.002852,0.048459
19354,9.617239,-1.236989,0.176441,0.043270,-0.005704,0.048549
19355,9.686196,-1.230376,0.234657,0.032149,-0.003054,0.047431
19356,9.689420,-1.180802,0.230466,0.024192,0.006968,0.050513
19357,9.726788,-1.161589,0.284029,0.006445,0.010886,0.046115
19358,9.729605,-1.168226,0.261175,-0.006639,0.014068,0.042188
19359,9.748105,-1.160035,0.288771,-0.012562,0.015610,0.033790
19360,9.776781,-1.158286,0.244588,-0.013531,0.023321,0.029780
19361,9.757413,-1.173001,0.220487,-0.012638,0.024282,0.027274
19362,9.724941,-1.219242,0.197327,-0.006932,0.016514,0.022672
19363,9.728034,-1.223705,0.174513,0.001827,0.009870,0.020977
19364,9.769138,-1.204046,0.203700,0.011749,0.002440,0.015499
19365,9.781508,-1.230367,0.183335,0.014424,-0.000916,0.018381
19366,9.816862,-1.190475,0.184222,0.017636,-0.004654,0.013515
19367,9.838481,-1.238677,0.166612,0.012421,-0.009059,0.010391
19368,9.920455,-1.253407,0.203625,0.004189,-0.005924,0.009545
19369,9.916373,-1.308240,0.208268,-0.000525,0.003510,0.002541
19370,9.893958,-1.318015,0.206669,-0.001937,0.009181,0.002385
19371,9.903689,-1.284202,0.230433,-0.004888,0.011162,0.005982
19372,9.829696,-1.308694,0.273212,-0.001644,0.016084,0.006305
19373,9.797976,-1.296830,0.269235,-0.012204,0.020793,0.013023
19374,9.788603,-1.275656,0.267470,-0.011681,0.017282,0.010483
19375,9.778587,-1.311157,0.246271,-0.020637,0.020122,0.014769
19376,9.769200,-1.290078,0.244874,-0.026252,0.028582,0.010282
