// Start Time: Unknown
// Update Rate: 100.0Hz
// Filter Profile: human (46.1)
// Firmware Version: 4.3.5
PacketCounter,Acc_X,Acc_Y,Acc_Z,Gyr_X,Gyr_Y,Gyr_Z
04265,9.715043,-1.499266,0.284707,-0.020311,0.017024,-0.031510
04266,9.680832,-1.555465,0.250469,-0.020451,0.015866,-0.030469
04267,9.681258,-1.552584,0.251872,-0.015172,0.018824,-0.029965
04268,9.648455,-1.557045,0.247702,-0.009732,0.011878,-0.033519
04269,9.695944,-1.564278,0.303777,0.000233,0.007642,-0.029871
04270,9.721673,-1.520440,0.312199,-0.001306,0.007932,-0.027684
04271,9.755299,-1.510374,0.318237,0.000197,0.003901,-0.024499
04272,9.759068,-1.505595,0.294696,-0.002991,0.007063,-0.024458
04273,9.757250,-1.453897,0.349490,-0.009359,0.007857,-0.025887
04274,9.743834,-1.433561,0.300372,-0.015725,0.008651,-0.027315
04275,9.677704,-1.446225,0.289864,-0.018105,0.005740,-0.024272
04276,9.686069,-1.477268,0.287769,-0.015850,0.001963,-0.027786
04277,9.653218,-1.482362,0.282133,-0.009773,-0.001143,-0.024281
04278,9.652360,-1.531934,0.252109,-0.002330,0.005367,-0.018901
04279,9.682433,-1.525043,0.282019,-0.002624,0.003053,-0.016826
04280,9.715873,-1.516096,0.287638,0.005788,-0.000880,-0.010997
04281,9.728604,-1.494684,0.291582,0.007271,0.000621,-0.006303
04282,9.750442,-1.455534,0.323644,0.010842,0.002721,-0.002577
04283,9.765331,-1.483992,0.273934,0.006251,0.007324,-0.001387
04284,9.763053,-1.434595,0.328826,0.003619,0.005840,-0.001640
04285,9.750449,-1.455036,0.325680,-0.001664,0.008401,-0.000633
04286,9.767634,-1.470343,0.352167,-0.001664,0.008401,-0.000633
04287,9.761866,-1.486029,0.301276,-0.009991,0.015278,-0.000622
04288,9.749212,-1.506669,0.298863,-0.010845,0.017608,0.001745
04289,9.728481,-1.494080,0.298690,-0.008655,0.015622,0.005109
04290,9.706581,-1.533455,0.268313,-0.005774,0.015678,0.008655
04291,9.712089,-1.518719,0.321848,-0.010510,0.019124,0.010881
04292,9.735962,-1.530184,0.301208,-0.008812,0.019993,0.007661
04293,9.725406,-1.538206,0.375493,-0.000762,0.025600,0.007389
04294,9.727539,-1.588063,0.324304,0.002309,0.036081,0.006052
04295,9.722753,-1.642616,0.321998,0.015645,0.039125,0.004780
04296,9.714502,-1.609648,0.328375,0.032960,0.038467,0.007986
04297,9.723330,-1.592378,0.360296,0.040135,0.031604,0.012427
04298,9.780319,-1.596641,0.347139,0.040238,0.029019,0.016761
04299,9.775454,-1.562187,0.328818,0.036518,0.031290,0.015580
04300,9.763558,-1.532660,0.358546,0.030792,0.030385,0.019692
04301,9.766670,-1.532058,0.338118,0.029708,0.034139,0.018767
04302,9.801522,-1.512561,0.423715,0.019921,0.039515,0.014063
04303,9.837268,-1.530762,0.555917,0.025428,0.047363,0.008179
04304,9.899517,-1.608443,0.613350,0.033579,0.067746,0.005580
04305,9.929202,-1.731468,0.713976,0.057209,0.097274,0.002297
04306,9.904108,-1.809499,0.764548,0.095656,0.123618,-0.016061
04307,9.876733,-1.860568,0.696014,0.152162,0.137296,-0.039778
04308,9.743396,-2.051979,0.500564,0.255969,0.129126,-0.056342
04309,9.592803,-2.152275,0.187959,0.369204,0.107200,-0.058407
04310,9.136149,-2.073515,-0.255617,0.492303,0.065316,-0.055250
04311,8.868132,-1.728757,-0.604275,0.577105,-0.040935,-0.035787
04312,8.999103,-1.267717,-0.747076,0.554966,-0.171692,0.017251
04313,9.435293,-0.873187,-0.615765,0.383778,-0.243818,0.081070
04314,9.874582,-0.652309,-0.158218,0.100014,-0.218941,0.130640
04315,10.162710,-0.452585,0.277477,-0.196002,-0.121319,0.152005
04316,10.375342,-0.344126,0.656216,-0.444873,-0.001044,0.156638
04317,10.384377,-0.504495,1.121314,-0.653251,0.119011,0.145335
04318,10.542916,-0.961987,1.717445,-0.796585,0.219050,0.143311
04319,10.760794,-1.595531,2.360977,-0.874558,0.316571,0.136908
04320,10.812286,-2.216998,2.662501,-0.829541,0.456858,0.093283
04321,10.514615,-2.880124,2.265694,-0.615272,0.597845,0.005810
04322,9.768938,-3.590105,1.595904,-0.193107,0.675498,-0.053063
04323,8.994231,-4.108837,1.019606,0.338737,0.599702,-0.027390
04324,8.970877,-4.333081,0.712683,0.800774,0.425411,0.060923
04325,9.096318,-4.365579,0.259049,1.143233,0.271163,0.154648
04326,9.007357,-3.947260,-0.267155,1.425141,0.171183,0.201690
04327,8.713371,-3.152001,-0.841811,1.663155,0.066726,0.225966
04328,8.738227,-2.292858,-1.235559,1.758726,-0.074408,0.279099
04329,9.018402,-1.342204,-1.347928,1.632439,-0.220218,0.372942
04330,9.562535,-0.492740,-0.962993,1.253773,-0.301925,0.468558
04331,10.178294,0.329850,-0.223768,0.643496,-0.270157,0.547221
04332,10.609160,0.930936,0.478961,-0.075503,-0.097962,0.607811
04333,10.707656,1.158307,0.925693,-0.801000,0.158258,0.650413
04334,10.459680,1.015096,1.144269,-1.444161,0.392718,0.656199
04335,10.244989,0.574534,1.929017,-1.943845,0.545635,0.633979
04336,10.906760,-0.224099,3.442567,-2.407381,0.694866,0.593407
04337,11.917630,-1.136926,4.254553,-2.802653,0.994491,0.534036
04338,11.797651,-2.499648,3.797113,-2.933579,1.395137,0.407502
04339,10.226999,-4.464775,2.430692,-2.501498,1.653799,0.262224
04340,8.267279,-6.471370,1.477238,-1.509113,1.599397,0.232130
04341,7.175617,-7.938456,0.817537,-0.317603,1.230659,0.331697
04342,6.789639,-8.662008,-0.118883,0.838980,0.728791,0.451973
04343,6.920136,-8.364310,-1.100419,1.899435,0.241215,0.530226
04344,7.215347,-6.873978,-2.231708,2.792067,-0.192336,0.564996
04345,7.784964,-5.097691,-2.729996,3.397969,-0.572561,0.599516
04346,8.664215,-3.092328,-2.073949,3.586025,-0.895064,0.657753
04347,9.811673,-0.787735,-0.803307,3.198971,-1.050656,0.716920
04348,10.953083,1.348031,0.454937,2.327805,-0.932611,0.770658
04349,11.626030,3.076048,1.449107,1.213030,-0.542050,0.778013
04350,11.495437,4.084092,2.013750,-0.052454,-0.049894,0.750337
04351,10.954756,4.088720,2.446753,-1.360401,0.356095,0.752911
04352,10.764204,3.402132,3.827026,-2.640122,0.674836,0.747321
04353,11.984684,2.030213,4.808501,-3.864735,1.051771,0.733835
04354,12.555361,0.251594,4.080795,-4.811924,1.641750,0.672589
04355,11.182141,-2.002685,2.290947,-5.132494,2.108015,0.491303
04356,9.222750,-4.876090,0.386835,-4.743140,2.223649,0.333213
04357,6.912002,-8.305753,-0.983837,-3.675823,2.012406,0.326016
04358,4.973669,-10.719555,-1.556634,-2.200108,1.451215,0.419010
04359,4.180623,-11.546648,-1.773670,-0.759425,0.659848,0.548814
04360,4.970987,-11.108151,-1.690212,0.413621,-0.124103,0.717417
04361,6.631976,-9.604018,-1.498743,1.303905,-0.657104,0.931605
04362,8.314774,-7.410063,-0.866759,1.959679,-0.898551,1.128392
04363,9.918112,-4.766741,0.216822,2.261067,-0.925686,1.242840
04364,11.016179,-2.157497,1.421185,2.085582,-0.802632,1.266765
04365,11.505911,0.292025,2.484046,1.478198,-0.582447,1.215937
04366,11.524040,2.156781,3.120081,0.522545,-0.314300,1.059661
04367,11.328244,3.022391,3.704659,-0.633278,-0.007013,0.845026
04368,11.357946,2.615034,4.149048,-1.833857,0.360207,0.654769
04369,11.315348,1.102741,3.941613,-2.873451,0.802728,0.532185
04370,10.868862,-0.958274,3.005568,-3.525342,1.226435,0.474165
04371,9.982273,-3.194207,2.166798,-3.697777,1.498380,0.425489
04372,9.033707,-5.447698,1.414493,-3.437625,1.586546,0.379419
04373,7.683079,-7.774357,0.075832,-2.743326,1.488956,0.360679
04374,5.986841,-9.667080,-1.008283,-1.616860,1.167961,0.366246
04375,4.926327,-10.674161,-1.395309,-0.346791,0.623591,0.414733
04376,5.021164,-10.750020,-1.445464,0.780273,-0.001289,0.546066
04377,6.136743,-9.749262,-1.271688,1.656184,-0.520042,0.731533
04378,7.495009,-7.941082,-1.060020,2.214094,-0.813440,0.896935
04379,8.418977,-5.903076,-0.389368,2.476537,-0.924556,0.953851
04380,9.242177,-3.690904,0.703877,2.398947,-0.921281,0.930199
04381,9.893404,-1.652593,2.074786,1.936477,-0.786774,0.844393
04382,10.579292,-0.127213,4.075791,1.108281,-0.511323,0.719423
04383,11.295782,0.323401,5.459027,0.035567,-0.048038,0.583394
04384,11.449711,-0.350393,5.786271,-0.913572,0.522085,0.432290
04385,10.971676,-1.806447,4.573250,-1.563902,1.035752,0.303041
04386,9.470034,-3.843340,2.887035,-1.694832,1.330360,0.218384
04387,8.331898,-5.880581,2.380689,-1.460181,1.359374,0.212887
04388,7.754017,-8.201202,1.511663,-1.032534,1.255627,0.313630
04389,6.572542,-10.304127,-0.299839,-0.200764,1.040446,0.452981
04390,4.948203,-11.207059,-1.893608,0.926059,0.650945,0.545607
04391,3.996790,-11.095758,-2.638098,2.018648,0.081426,0.647213
04392,4.395628,-10.267164,-2.448367,2.821895,-0.547680,0.812594
04393,5.951627,-8.615277,-1.739655,3.222765,-1.023596,1.015723
04394,7.812786,-6.287575,-0.562748,3.217241,-1.215550,1.166478
04395,9.434945,-3.509135,0.956804,2.834011,-1.136802,1.190423
04396,10.406522,-0.684330,2.610200,2.091357,-0.854852,1.088143
04397,10.560097,1.409297,4.179707,1.037885,-0.469437,0.885106
04398,10.467458,2.107228,5.831903,-0.249879,-0.052977,0.649782
04399,10.751407,1.116653,7.093236,-1.616856,0.434572,0.431267
04400,10.850569,-1.162210,5.811982,-2.659100,0.983482,0.335576
04401,9.245638,-4.050956,3.367031,-2.938162,1.390188,0.282571
04402,7.949359,-7.008985,2.776420,-2.615043,1.504803,0.290302
04403,7.087525,-10.349622,1.755454,-1.953557,1.459663,0.451240
04404,5.529125,-12.977451,-0.024910,-0.733764,1.222629,0.643153
04405,4.006199,-13.648025,-0.906571,0.696538,0.732463,0.722837
04406,3.471047,-13.170142,-1.492680,1.897465,0.084106,0.782349
04407,4.373208,-11.823093,-1.685517,2.875966,-0.551770,0.899366
04408,5.700547,-9.637239,-1.612726,3.510659,-0.981077,1.035220
04409,6.638072,-7.271536,-1.225005,3.804036,-1.214234,1.118354
04410,7.544069,-4.817455,0.058906,3.730548,-1.313617,1.144084
04411,8.552651,-2.189918,1.770453,3.120932,-1.249981,1.135772
04412,9.200211,0.113127,2.984248,2.028969,-1.030919,1.105409
04413,9.382384,1.698460,4.386495,0.660497,-0.721237,1.008445
04414,9.812993,2.075282,6.156246,-0.975483,-0.312881,0.851296
04415,10.244506,0.789194,6.691998,-2.583851,0.276978,0.708730
04416,9.820348,-1.414638,5.831890,-3.756010,0.918462,0.600520
04417,8.465226,-4.075985,3.822250,-4.365491,1.385052,0.527796
04418,6.838707,-7.258266,2.202677,-4.298362,1.592687,0.537323
04419,5.457630,-10.527378,1.605018,-3.741622,1.570570,0.649469
04420,4.378037,-13.553742,0.961289,-2.835834,1.333479,0.827890
04421,3.516812,-15.470721,0.378058,-1.608456,0.898286,0.966627
04422,3.309109,-15.902756,-0.407734,-0.240780,0.345908,1.056926
04423,3.625662,-14.949165,-1.130964,1.160883,-0.215113,1.135766
04424,4.234699,-12.948713,-1.322039,2.390463,-0.721279,1.182978
04425,5.185170,-10.491691,-0.703919,3.219588,-1.115181,1.240722
04426,6.491166,-8.017462,0.454582,3.492356,-1.323798,1.318945
04427,7.598810,-5.443012,1.636821,3.244723,-1.303755,1.372605
04428,8.251731,-2.881150,3.056784,2.587666,-1.095883,1.322990
04429,8.895235,-0.579054,5.255839,1.472289,-0.750280,1.199697
04430,9.448866,0.388805,6.987336,-0.039578,-0.225479,1.042403
04431,9.276814,-0.568823,6.860676,-1.411786,0.396906,0.902061
04432,8.256592,-2.599461,5.330897,-2.273673,0.903047,0.770102
04433,7.052033,-5.223477,3.835733,-2.559100,1.207982,0.684848
04434,6.216083,-7.902946,3.253189,-2.429562,1.349877,0.692376
04435,5.419289,-10.575810,2.672324,-2.034823,1.363369,0.770126
04436,4.629534,-12.908662,1.666415,-1.263421,1.198798,0.859516
04437,3.767126,-14.142079,0.286667,-0.157222,0.892451,0.887111
04438,2.898701,-14.215785,-1.052754,1.153054,0.444837,0.906158
04439,2.333875,-13.203951,-1.708109,2.415210,-0.088761,0.921232
04440,2.475965,-11.480009,-1.357022,3.336605,-0.647100,0.984741
04441,3.459496,-9.550060,-0.737883,3.763976,-1.060830,1.105142
04442,4.736574,-7.499295,0.422232,3.739737,-1.258244,1.225621
04443,5.964233,-5.150431,1.977038,3.242186,-1.203405,1.273376
04444,6.953315,-2.697843,3.681465,2.322468,-0.935696,1.231163
04445,7.591205,-0.709856,5.511030,1.091349,-0.521687,1.088188
04446,7.939334,0.185075,7.149156,-0.385579,0.005838,0.921176
04447,7.974785,-0.633781,7.534219,-1.857639,0.592250,0.783281
04448,7.230624,-2.898762,5.994877,-2.874896,1.106361,0.699353
04449,5.926379,-5.671415,4.059102,-3.187933,1.404637,0.616458
04450,4.697618,-8.511370,3.334940,-3.024574,1.497414,0.576245
04451,3.601382,-11.537479,2.406446,-2.549275,1.408416,0.639234
04452,2.510003,-14.307023,1.105194,-1.558908,1.122708,0.743371
04453,1.490950,-15.543108,0.256213,-0.209649,0.700722,0.808431
04454,0.828425,-15.367039,-0.191504,1.168621,0.153232,0.854596
04455,1.126557,-14.009317,-0.632686,2.413988,-0.401151,0.919659
04456,2.027624,-11.842488,-0.620892,3.369952,-0.853912,0.959158
04457,3.058229,-9.514729,-0.153511,3.897410,-1.160043,0.968659
04458,4.107620,-7.109829,1.068067,3.938612,-1.292088,0.943215
04459,5.204124,-4.558339,3.578967,3.402107,-1.207958,0.893573
04460,6.475381,-1.879288,6.893138,2.170849,-0.858064,0.826389
04461,7.358607,-0.380698,8.743024,0.497554,-0.209009,0.749074
04462,6.874963,-0.816878,8.283467,-0.986176,0.488736,0.600693
04463,5.611927,-2.827513,6.375193,-1.880979,0.957405,0.410742
04464,4.470789,-5.560779,5.470933,-2.238035,1.204807,0.302228
04465,3.692947,-8.551558,5.190167,-2.343797,1.295738,0.333331
04466,2.947549,-11.774218,4.075826,-2.126916,1.255357,0.449700
04467,2.042775,-14.371682,2.218467,-1.287528,1.097885,0.572487
04468,0.700701,-15.337087,0.846665,0.016212,0.782927,0.642219
04469,-0.228915,-14.963048,0.341343,1.349529,0.274142,0.686106
04470,0.106580,-13.692951,0.322465,2.451078,-0.294653,0.741679
04471,1.271614,-11.686650,0.712677,3.175075,-0.725037,0.828567
04472,2.537228,-9.528618,1.400234,3.452324,-0.965230,0.909361
04473,3.634129,-7.438971,2.461117,3.334632,-1.012833,0.956803
04474,4.165267,-5.238046,3.748418,2.859335,-0.883377,0.946197
04475,4.416710,-3.049252,5.292814,1.959395,-0.650019,0.903069
04476,4.788345,-1.315453,7.052397,0.661958,-0.325446,0.847807
04477,5.243275,-0.843071,8.223506,-0.902365,0.135688,0.814163
04478,5.087560,-2.133529,7.743318,-2.304818,0.657814,0.766383
04479,4.148439,-4.666683,5.859614,-3.079743,1.049966,0.714493
04480,2.943805,-7.482981,4.471832,-3.194883,1.230951,0.673406
04481,1.906969,-10.225037,3.957489,-2.943236,1.219058,0.710720
04482,1.086022,-12.908231,3.630836,-2.447083,1.062026,0.818744
04483,0.451919,-15.028227,3.125418,-1.542783,0.817911,0.924883
04484,-0.187909,-15.876143,2.222746,-0.240280,0.492741,0.987852
04485,-0.440316,-15.313848,1.432767,1.246622,0.062293,0.995938
04486,-0.116886,-13.540546,1.168080,2.556662,-0.358216,0.971284
04487,0.683623,-11.214585,1.258985,3.390845,-0.694425,0.941226
04488,1.519836,-8.986572,1.602779,3.737117,-0.888137,0.943184
04489,1.977873,-6.770475,2.207972,3.625451,-0.935792,0.931711
04490,2.199812,-4.475119,3.115614,3.048009,-0.885342,0.923377
04491,2.204439,-2.381407,4.144798,1.984202,-0.766131,0.955840
04492,2.124493,-0.740123,4.884381,0.530066,-0.586155,1.003047
04493,2.235222,0.458544,5.889982,-1.213426,-0.359857,1.029028
04494,3.180780,0.953362,7.634180,-3.198166,0.003241,0.998394
04495,4.567078,0.010822,8.175538,-5.224480,0.593635,0.950417
04496,4.539835,-3.216014,6.555036,-6.702031,1.305663,0.892695
04497,2.725028,-7.546513,4.200719,-6.932925,1.691969,0.722030
04498,0.818572,-12.664487,2.987816,-6.140940,1.739532,0.601458
04499,-0.894468,-17.562917,2.325145,-4.604150,1.444805,0.663468
04500,-2.071030,-21.102560,1.594436,-2.538536,0.883279,0.723182
04501,-2.156702,-22.446354,0.595365,-0.059228,0.230438,0.702088
04502,-1.629188,-21.030436,-0.446919,2.489169,-0.361310,0.625821
04503,-0.913949,-17.567250,-1.421769,4.658460,-0.845990,0.543827
04504,-0.277928,-13.741831,-1.527389,6.093950,-1.162443,0.501360
04505,0.208651,-10.296868,-1.111127,6.757251,-1.349140,0.534892
04506,0.587467,-7.193102,-0.019658,6.755355,-1.411502,0.618026
04507,0.949978,-4.064957,1.862984,6.127641,-1.348329,0.699970
04508,1.339274,-0.844616,4.432544,4.779747,-1.145221,0.769832
04509,1.758624,2.173829,7.025097,2.698706,-0.805280,0.805381
04510,2.441535,3.847304,8.145602,0.147451,-0.333325,0.768604
04511,2.859444,3.064691,7.878017,-2.258840,0.266041,0.616948
04512,2.860228,0.369682,6.748787,-4.085265,0.843263,0.448314
04513,2.700068,-3.278847,6.050139,-5.232529,1.337934,0.387989
04514,1.735684,-7.475283,5.590753,-5.741373,1.685059,0.479295
04515,-0.027879,-12.887013,5.122734,-5.418903,1.840644,0.663232
04516,-2.236649,-18.764563,3.711931,-3.928850,1.718180,0.814809
04517,-3.813916,-22.950334,1.440034,-1.210047,1.233749,0.913416
04518,-4.615027,-23.442132,0.054127,2.068417,0.429688,0.859309
04519,-3.227150,-20.101083,-0.316058,4.916306,-0.462861,0.704238
04520,-0.740681,-15.155664,-0.170769,6.714872,-1.074167,0.580252
04521,0.727271,-10.560461,-0.159082,7.450165,-1.330032,0.546061
04522,1.218502,-6.900566,0.170411,7.380834,-1.348256,0.554595
04523,1.134206,-3.473389,1.703430,6.667728,-1.221583,0.587992
04524,0.532743,-0.368130,3.972509,5.360595,-0.996139,0.623018
04525,0.108767,2.723613,6.311515,3.511170,-0.753140,0.649715
04526,0.525399,5.122979,8.358516,1.144527,-0.461558,0.666877
04527,1.617465,5.666272,9.559407,-1.458038,0.004959,0.613701
04528,2.441835,3.494928,9.151275,-3.785270,0.646630,0.493290
04529,2.503541,-0.783758,7.448972,-5.276802,1.242221,0.434492
04530,1.142893,-5.925376,5.375212,-5.688840,1.597794,0.500376
04531,-1.463727,-10.947772,3.990898,-5.147714,1.587744,0.697758
04532,-3.494029,-15.535473,3.623386,-3.854941,1.176554,0.874838
04533,-4.041205,-18.717953,3.495763,-2.020179,0.552941,0.878101
04534,-3.266936,-19.259786,2.765272,0.241869,-0.090564,0.728190
04535,-2.114081,-17.263057,2.041695,2.538097,-0.652973,0.531715
04536,-1.313067,-13.671490,2.089477,4.204649,-1.065130,0.342510
04537,-0.659775,-9.593659,2.483588,4.997129,-1.275004,0.234035
04538,-0.564876,-5.681143,3.022575,4.974252,-1.287515,0.236337
04539,-0.782996,-2.047344,3.857223,4.256452,-1.165868,0.270280
04540,-1.038457,1.144416,5.050533,2.928888,-0.977070,0.326589
04541,-1.027277,3.555765,6.379111,0.998892,-0.773769,0.424658
04542,-0.594477,4.947349,6.837298,-1.397377,-0.533064,0.520163
04543,0.118016,5.060065,6.159934,-3.926607,-0.218445,0.579290
04544,0.724803,3.866306,4.823201,-6.313898,0.127955,0.604956
04545,0.881621,1.415026,2.844418,-8.324678,0.475768,0.608745
04546,0.455886,-2.231336,0.575719,-9.731942,0.766744,0.605682
04547,-0.520158,-6.500628,-1.262478,-10.399479,0.908168,0.603308
04548,-1.612176,-10.850646,-2.167333,-10.372615,0.890440,0.574814
04549,-2.520767,-15.150291,-2.397073,-9.661333,0.702117,0.477151
04550,-3.066790,-18.982513,-1.873204,-8.285574,0.405897,0.299300
04551,-3.427739,-21.505789,-1.332436,-6.242341,0.024898,0.057494
04552,-3.443547,-21.999984,-0.931269,-3.811445,-0.376269,-0.161576
04553,-3.200085,-20.706729,-0.717846,-1.353047,-0.692198,-0.285481
04554,-2.945556,-17.834023,-0.156307,0.726831,-0.883865,-0.299026
04555,-2.278262,-14.351230,0.708131,2.070237,-0.918486,-0.200617
04556,-1.523649,-10.879300,1.715275,2.626232,-0.796160,-0.028221
04557,-1.083083,-7.615794,2.516839,2.493861,-0.583340,0.152781
04558,-0.882748,-5.002889,2.835787,1.771848,-0.417818,0.333700
04559,-0.489721,-3.574860,2.681451,0.605883,-0.343041,0.451981
04560,0.345701,-3.262946,2.212574,-0.776371,-0.295462,0.451941
04561,1.193630,-4.376597,1.223125,-2.100674,-0.131112,0.294617
04562,1.643501,-6.689598,0.400097,-2.999658,0.170113,0.080356
04563,1.251080,-9.664424,0.212424,-3.311165,0.548835,-0.076183
04564,-0.082027,-12.403329,0.346874,-3.054140,0.858562,-0.117928
04565,-2.035759,-14.299015,0.411320,-2.290549,0.968239,-0.085670
04566,-3.899748,-15.208299,0.550367,-1.172664,0.821663,-0.039047
04567,-4.747311,-15.382841,0.248941,0.122687,0.450876,0.026080
04568,-4.421622,-14.685828,-0.347448,1.352421,0.058297,0.083890
04569,-3.134013,-13.136077,-0.726456,2.161606,-0.189824,0.174397
04570,-1.821860,-11.400045,-0.941572,2.456580,-0.209716,0.262513
04571,-1.004181,-9.267059,-1.151577,2.316091,-0.080945,0.285787
04572,-0.371928,-6.647000,-0.581694,1.731148,0.058393,0.244477
04573,0.216395,-4.216218,0.381824,0.794542,0.193279,0.150795
04574,0.559540,-3.279626,1.054692,-0.291108,0.319496,-0.004662
04575,0.527202,-4.280351,0.577126,-1.167238,0.425266,-0.143635
04576,-0.103539,-6.415920,-0.342455,-1.607198,0.496200,-0.180944
04577,-0.923339,-8.939478,-0.519574,-1.614898,0.506073,-0.161933
04578,-1.820540,-11.070061,-0.884012,-1.269727,0.474366,-0.106660
04579,-2.728102,-11.815261,-0.899321,-0.622469,0.383441,-0.067548
04580,-2.897840,-11.645623,-0.649558,-0.016846,0.244431,-0.056936
04581,-2.306418,-10.974913,-0.624907,0.466819,0.126425,-0.058490
04582,-1.551643,-10.202980,-0.394619,0.695737,0.095108,-0.087091
04583,-1.073102,-9.575167,-0.219344,0.701868,0.108212,-0.112162
04584,-0.866376,-9.038404,-0.122985,0.559466,0.125992,-0.126185
04585,-0.866486,-8.897298,-0.357062,0.364199,0.150092,-0.148435
04586,-1.111312,-8.662568,-0.470043,0.204117,0.175050,-0.152254
04587,-1.433585,-8.637309,-0.557678,0.045401,0.155215,-0.140113
04588,-1.575209,-9.210468,-0.882103,-0.025933,0.072091,-0.149757
04589,-1.404131,-10.527137,-0.851757,0.121963,-0.016606,-0.181066
04590,-1.289427,-11.806738,-0.780651,0.529837,-0.042931,-0.249851
04591,-1.252220,-11.985977,-0.633418,1.057178,-0.048872,-0.335801
04592,-1.401891,-11.471117,-0.173559,1.622379,-0.081702,-0.462797
04593,-1.355425,-11.482027,1.033504,2.214281,-0.119779,-0.651870
04594,-1.413211,-12.816429,1.597815,2.998072,-0.146795,-0.888212
04595,-1.444283,-14.743274,1.745884,4.065819,-0.169066,-1.118281
04596,-1.458321,-16.636009,1.856188,5.457000,-0.147172,-1.291126
04597,-1.699946,-17.663124,1.821570,7.175443,-0.108650,-1.339717
04598,-1.850876,-16.803461,1.738052,8.890382,-0.148888,-1.249038
04599,-1.622932,-14.269219,1.481098,10.077937,-0.242654,-1.026408
04600,-1.178284,-11.064325,1.328800,10.360149,-0.312325,-0.716822
04601,-0.508988,-7.139595,2.543199,9.692205,-0.320925,-0.389342
04602,0.318932,-3.238896,3.979731,8.227558,-0.226125,-0.086442
04603,0.490764,0.365245,5.388201,6.206141,0.034322,0.025008
04604,-0.195142,3.102912,6.314638,3.729267,0.244393,-0.028275
04605,-0.452720,3.192050,5.888774,1.177556,0.263665,-0.124167
04606,-0.010114,1.554222,4.703776,-0.950970,0.181750,-0.136725
04607,0.132299,-1.701871,3.159650,-2.358260,0.138039,0.023594
04608,-0.369916,-5.684080,2.961788,-2.921463,0.182511,0.309742
04609,-1.092807,-8.357842,4.593267,-2.892721,0.257080,0.569147
04610,-1.907682,-8.929111,6.944509,-2.588650,0.399609,0.638521
04611,-2.866714,-8.638987,8.313842,-2.059925,0.465753,0.551066
04612,-3.015465,-9.719710,8.250034,-1.295771,0.304507,0.454192
04613,-1.878121,-12.255757,7.553331,-0.162534,0.032835,0.387845
04614,-0.294711,-14.469394,6.704232,1.187797,-0.179554,0.325895
04615,0.508385,-14.999484,5.616488,2.629047,-0.248547,0.180536
04616,0.328052,-13.611647,5.036562,3.927823,-0.325844,-0.030782
04617,-0.310316,-10.911989,4.959824,4.820642,-0.420925,-0.227713
04618,-0.941590,-8.199360,4.772577,5.226658,-0.528499,-0.306020
04619,-1.100456,-5.760759,4.952380,5.281341,-0.567764,-0.298610
04620,-0.998208,-3.277346,5.978010,4.950809,-0.534685,-0.246332
04621,-0.664336,-0.982201,7.632943,4.255883,-0.427144,-0.166493
04622,-0.440032,0.190903,9.142332,3.293423,-0.230851,-0.093055
04623,-0.438786,-0.371689,9.882545,2.414540,-0.074307,-0.011369
04624,-0.616247,-2.456492,9.851300,1.823849,-0.003150,0.045894
04625,-0.797033,-5.522008,9.296436,1.711466,0.020119,0.045812
04626,-0.869211,-8.088785,8.379219,2.090750,-0.086251,-0.015239
04627,-0.596477,-8.782147,7.382518,2.784263,-0.279189,-0.143157
04628,-0.121056,-7.117268,7.298975,3.389138,-0.427522,-0.316454
04629,-0.063034,-3.879921,7.024214,3.557481,-0.537188,-0.446220
04630,-0.374787,-0.520287,6.756568,3.224473,-0.597828,-0.446953
04631,-0.353229,2.681906,6.904714,2.295189,-0.532649,-0.373238
04632,0.004411,5.395383,8.163688,0.799676,-0.234654,-0.239236
04633,-0.163566,7.166879,9.611376,-1.240485,0.119784,-0.016937
04634,-0.553801,5.993801,9.929558,-3.324190,0.370682,0.239818
04635,-0.552296,1.692469,9.432960,-4.718861,0.489771,0.496017
04636,0.138103,-3.637086,9.114742,-5.041763,0.602959,0.676287
04637,0.080529,-8.326393,9.098974,-4.440477,0.705806,0.735521
04638,-0.485851,-12.140579,8.631547,-3.141603,0.586911,0.608748
04639,-0.594534,-13.947102,7.840174,-1.333018,0.270581,0.305206
04640,-0.600039,-13.102600,7.306369,0.568581,-0.108692,-0.037488
04641,-0.350521,-10.118815,7.271624,2.180088,-0.392123,-0.295024
04642,-0.121394,-6.087458,7.502636,3.147908,-0.510241,-0.415961
04643,-0.149056,-2.433083,7.641374,3.350534,-0.475170,-0.435422
04644,-0.164802,0.734513,8.310954,2.901533,-0.338455,-0.395841
04645,-0.294451,2.925960,9.109448,1.909336,-0.150687,-0.309200
04646,-0.732413,3.958790,9.624999,0.529379,0.019032,-0.191208
04647,-1.206176,3.435517,9.001366,-1.001444,0.123956,-0.054882
04648,-1.082578,1.606740,7.845409,-2.371357,0.146134,0.110243
04649,-0.588682,-0.150353,6.857814,-3.490563,0.187379,0.256602
04650,-0.017496,-1.270437,6.244272,-4.451145,0.239592,0.351380
04651,0.508626,-1.511933,5.917626,-5.354301,0.313280,0.368452
04652,0.791659,-1.238660,5.481454,-6.326368,0.424112,0.329911
04653,0.868986,-1.183831,4.825996,-7.315079,0.553126,0.252178
04654,0.867189,-1.617880,4.341273,-8.072101,0.689457,0.141586
04655,0.205989,-3.245162,4.313686,-8.469397,0.825778,-0.029923
04656,-1.108268,-7.932462,4.246452,-8.246757,0.802936,-0.105114
04657,-2.042163,-14.799954,3.641310,-7.039293,0.631374,-0.077075
04658,-1.969717,-19.812921,3.915537,-4.868964,0.475461,-0.066891
04659,-2.200655,-22.850861,4.596024,-2.390148,0.284062,-0.098085
04660,-2.757084,-23.800252,4.339805,0.424405,-0.083368,-0.248814
04661,-2.601984,-21.290974,2.736573,3.194088,-0.588349,-0.493140
04662,-1.726083,-15.898326,1.429430,5.270500,-0.966088,-0.746761
04663,-0.552681,-10.233675,1.319721,6.271222,-1.113303,-0.885261
04664,0.309356,-5.151171,2.125028,6.239516,-1.022695,-0.864879
04665,0.685170,-0.408498,3.979879,5.308224,-0.761617,-0.770707
04666,0.661921,4.095124,6.683843,3.456986,-0.497630,-0.596331
04667,0.499055,7.659250,8.726494,0.779145,-0.248004,-0.450408
04668,0.617936,9.602503,8.931367,-2.395999,-0.038151,-0.388656
04669,1.115857,9.206061,6.727564,-5.521479,0.109751,-0.387358
04670,1.893860,6.037423,3.435164,-8.055000,0.236031,-0.393470
04671,2.798622,1.029973,0.522932,-9.635804,0.466177,-0.399688
04672,3.103589,-4.300161,-1.273678,-10.301365,0.812947,-0.383813
04673,2.815537,-9.818753,-1.613155,-10.265911,1.214857,-0.344296
04674,1.533104,-15.802774,-1.365660,-9.520032,1.564648,-0.374445
04675,-0.282724,-22.087721,-0.729919,-7.797889,1.746095,-0.511560
04676,-2.513228,-27.064308,0.429381,-4.924461,1.590727,-0.706770
04677,-4.660612,-29.158245,0.374951,-1.305942,0.866661,-0.852691
04678,-4.715066,-27.247443,-1.185055,2.360143,-0.153248,-0.960315
04679,-2.803269,-21.620708,-1.965472,5.233095,-0.888628,-1.058389
04680,-1.009167,-15.734663,-2.166802,6.886268,-1.227925,-1.069999
04681,-0.000196,-10.613683,-1.926283,7.525913,-1.331508,-1.020045
04682,0.906479,-5.890809,-0.550063,7.301129,-1.334340,-0.938903
04683,1.871496,-1.585291,1.869036,6.154682,-1.189555,-0.838810
04684,2.177963,2.029371,4.233175,4.266824,-0.933974,-0.772829
04685,2.105597,4.577006,5.513366,1.999103,-0.746980,-0.772224
04686,2.506651,5.342059,5.729833,-0.301981,-0.628793,-0.898845
04687,3.446265,3.687235,5.553723,-2.379373,-0.397347,-1.104971
04688,4.520546,0.038888,5.306681,-4.042885,0.042906,-1.281351
04689,5.179006,-4.345623,4.578474,-5.170225,0.730269,-1.297561
04690,4.139451,-8.664807,3.338262,-5.521927,1.378621,-1.209307
04691,2.508442,-12.855320,2.298353,-5.163704,1.767804,-1.077961
04692,0.723807,-16.264875,1.358930,-4.120079,1.801940,-0.939516
04693,-1.104421,-18.014517,0.736937,-2.528525,1.464617,-0.905541
04694,-2.011824,-18.379341,0.301879,-0.790121,0.801806,-0.968148
04695,-1.316834,-17.351520,-0.136401,0.794291,0.028202,-1.002748
04696,-0.168341,-15.246610,-0.471831,2.028868,-0.558059,-1.019291
04697,0.841886,-12.807013,-0.196477,2.859810,-0.969396,-0.984679
04698,1.690811,-10.493704,0.764843,3.213387,-1.206291,-0.924107
04699,2.369614,-8.093758,1.901789,3.155641,-1.300799,-0.878487
04700,3.125481,-5.619129,3.003828,2.712920,-1.289957,-0.879147
04701,3.962346,-3.293056,3.941838,1.953469,-1.164157,-0.944396
04702,4.832229,-1.715740,5.244922,0.933420,-0.917754,-1.066452
04703,5.823164,-1.569722,6.523884,-0.368615,-0.504372,-1.180702
04704,5.912325,-3.476393,5.744108,-1.538717,0.079271,-1.259229
04705,4.599801,-6.082663,4.140440,-1.976348,0.553846,-1.299540
04706,3.423461,-8.269184,3.732086,-2.035995,0.794005,-1.283833
04707,3.049203,-9.830409,3.619097,-1.998915,0.851739,-1.198822
04708,3.046452,-10.610552,2.832804,-1.818877,0.832297,-1.164382
04709,2.764357,-10.996985,1.656013,-1.426940,0.742819,-1.188978
04710,2.234686,-11.381841,0.726244,-0.883208,0.526965,-1.233479
04711,1.743094,-11.486714,0.298163,-0.319819,0.196276,-1.236440
04712,1.597323,-11.200965,0.028079,0.193875,-0.192182,-1.189073
04713,1.684742,-10.558053,0.126166,0.634900,-0.575196,-1.110223
04714,2.195292,-9.441039,0.570999,0.898335,-0.919067,-1.037150
04715,3.178301,-8.078784,1.404119,0.912356,-1.151047,-1.010292
04716,4.497506,-6.432118,2.480725,0.643886,-1.211913,-1.019173
04717,5.819415,-4.980218,3.415474,0.117405,-1.089725,-1.077273
04718,6.669148,-4.125780,3.976041,-0.523745,-0.801459,-1.165202
04719,6.812941,-4.235930,4.214935,-1.189258,-0.438059,-1.264005
04720,6.607958,-5.257335,4.191454,-1.704838,-0.095786,-1.341477
04721,6.347660,-6.569836,4.188471,-2.025084,0.234247,-1.411883
04722,6.061248,-7.782409,4.008663,-2.207047,0.513695,-1.469692
04723,5.579461,-9.043848,3.232749,-2.196269,0.727774,-1.497775
04724,4.731875,-10.253408,1.963336,-1.882765,0.816045,-1.510089
04725,3.816558,-11.261798,0.930196,-1.317071,0.710995,-1.462565
04726,3.303169,-11.957884,0.221133,-0.676029,0.465563,-1.376444
04727,3.301486,-11.979836,-0.338223,-0.010385,0.133396,-1.262180
04728,3.825739,-11.367674,-0.634105,0.554888,-0.211740,-1.172684
04729,4.758137,-10.378610,-0.563424,0.924598,-0.545767,-1.090977
04730,5.935800,-9.103729,-0.053063,1.067093,-0.800586,-1.042351
04731,6.898159,-7.635474,0.680660,1.006188,-0.942261,-1.044327
04732,7.597001,-6.045188,2.091163,0.733012,-0.957897,-1.097002
04733,8.318050,-4.678302,3.938245,0.136805,-0.795041,-1.179939
04734,8.755208,-3.977669,4.878902,-0.636518,-0.434380,-1.250479
04735,8.632073,-4.235896,4.608488,-1.226632,-0.011247,-1.328563
04736,8.117669,-5.582858,3.601773,-1.520625,0.357911,-1.397231
04737,7.375492,-7.402144,3.109547,-1.456057,0.587064,-1.426217
04738,7.334541,-9.042369,3.393965,-1.284382,0.722973,-1.398679
04739,7.344121,-10.297273,3.272349,-1.037922,0.845524,-1.335123
04740,6.817343,-10.804100,2.416823,-0.523918,0.887053,-1.292481
04741,5.850022,-10.929050,0.490756,0.277631,0.794622,-1.296105
04742,4.210628,-11.002501,-1.609143,1.378870,0.551314,-1.328639
04743,2.950611,-10.613664,-2.194372,2.414436,0.066256,-1.334400
04744,2.924645,-10.080804,-1.804192,2.982715,-0.552771,-1.202941
04745,4.095011,-8.955823,-1.299898,3.115725,-1.090348,-0.973840
04746,6.075066,-7.069782,-0.432020,2.847237,-1.346982,-0.717510
04747,7.966122,-4.982337,0.953988,2.289252,-1.312438,-0.540268
04748,9.162839,-3.035963,2.221053,1.555852,-1.082416,-0.514128
04749,9.525093,-1.520894,3.026416,0.700394,-0.808245,-0.610862
04750,9.547620,-0.734398,3.547532,-0.252108,-0.572274,-0.765240
04751,9.832272,-0.718250,4.534291,-1.284745,-0.314491,-0.932841
04752,10.466406,-1.681134,5.225549,-2.346093,0.075340,-1.054341
04753,10.683155,-3.090806,5.012672,-3.145991,0.573310,-1.138545
04754,10.064993,-4.797046,3.843993,-3.541487,1.044121,-1.198014
04755,9.063536,-7.006886,2.904877,-3.386589,1.320559,-1.231192
04756,8.422275,-9.523623,2.611269,-2.805346,1.428157,-1.201821
04757,7.451773,-11.688001,1.658618,-1.887017,1.402051,-1.143025
04758,5.666810,-12.926441,-0.621530,-0.540120,1.178594,-1.088667
04759,3.704769,-12.834965,-2.152650,1.161253,0.666866,-1.049605
04760,3.076229,-11.872100,-2.465132,2.633920,-0.101914,-0.962246
04761,4.141606,-10.399533,-2.253788,3.513184,-0.887100,-0.783929
04762,6.144915,-8.331347,-1.925686,3.863181,-1.395816,-0.548451
04763,7.989035,-6.006950,-1.113864,3.828965,-1.562991,-0.369766
04764,9.236406,-3.607787,0.206269,3.509450,-1.523916,-0.319284
04765,9.906518,-1.156796,1.598777,2.897494,-1.384530,-0.384007
04766,10.216917,1.067151,3.163645,2.005247,-1.191999,-0.536247
04767,10.637622,2.200127,4.785559,0.807658,-0.907168,-0.741410
04768,11.523641,2.114594,5.816302,-0.488744,-0.439838,-0.926105
04769,11.533008,0.932724,5.689147,-1.618326,0.253482,-1.147909
04770,10.917624,-1.039878,4.569384,-2.316597,0.871385,-1.318177
04771,10.111934,-3.364347,3.686104,-2.424103,1.295603,-1.409095
04772,9.508045,-5.652826,3.634742,-2.198491,1.557070,-1.401096
04773,8.460904,-7.730553,3.003128,-1.685319,1.666349,-1.331091
04774,6.732648,-9.059973,1.168591,-0.765393,1.570739,-1.291456
04775,4.626681,-9.559581,-0.600602,0.545802,1.219323,-1.265924
04776,3.428673,-9.213113,-1.304378,1.834198,0.541653,-1.195639
04777,4.314497,-8.394508,-1.416894,2.664713,-0.309251,-0.995805
04778,6.845880,-7.096403,-1.345411,3.038597,-0.941040,-0.714152
04779,8.802666,-5.228515,-0.770731,3.093616,-1.175233,-0.510223
04780,9.673143,-3.312691,0.251858,2.881680,-1.221381,-0.461683
04781,10.094971,-1.422591,1.501414,2.416665,-1.225923,-0.511863
04782,10.599144,0.414153,3.084218,1.650435,-1.160083,-0.582851
04783,11.315984,1.823807,4.765581,0.617069,-0.971880,-0.635438
04784,12.010142,2.360554,5.956969,-0.590844,-0.585113,-0.690468
04785,12.190360,1.940773,5.969986,-1.705215,-0.043018,-0.774833
04786,11.500421,0.641707,4.549476,-2.452247,0.487707,-0.896920
04787,10.325226,-1.511728,3.168639,-2.687865,0.819922,-0.972925
04788,9.564175,-3.961225,2.566208,-2.527065,0.926941,-0.933395
04789,8.977162,-6.206548,2.142061,-2.119046,0.908452,-0.854726
04790,7.937620,-7.521974,1.080359,-1.470664,0.796889,-0.820804
04791,6.662847,-7.929628,0.141550,-0.535782,0.541378,-0.846689
04792,5.807042,-7.683690,-0.450387,0.468708,0.100745,-0.858364
04793,6.020654,-6.883874,-0.752166,1.304837,-0.445529,-0.776121
04794,7.072038,-5.659430,-0.949745,1.846528,-0.920055,-0.616285
04795,8.195294,-4.355035,-0.689383,2.073625,-1.233281,-0.445579
04796,9.189030,-3.063579,-0.096232,2.031385,-1.406711,-0.320861
04797,10.044630,-1.484444,0.900430,1.781519,-1.447151,-0.256032
04798,10.999529,0.150020,2.497541,1.305085,-1.336444,-0.288356
04799,11.976499,1.595031,4.547482,0.543511,-1.051612,-0.391281
04800,12.628965,2.403144,5.949210,-0.422867,-0.555289,-0.574089
04801,12.435064,2.176166,5.562374,-1.272359,0.044848,-0.825722
04802,11.406918,0.915696,4.181589,-1.679239,0.539316,-1.040003
04803,10.184861,-1.212065,3.360706,-1.634622,0.748406,-1.099505
04804,9.612636,-3.587643,3.318704,-1.352924,0.674879,-1.025221
04805,9.457815,-5.596059,3.080209,-0.960563,0.505608,-0.921854
04806,9.037031,-6.990812,2.304431,-0.357621,0.390097,-0.877802
04807,8.404281,-7.616203,1.265642,0.564723,0.254396,-0.861592
04808,7.216706,-7.563710,-0.268464,1.653787,-0.038080,-0.816009
04809,5.970565,-6.867624,-2.096902,2.634710,-0.570232,-0.735345
04810,6.078824,-5.627435,-3.442746,3.388464,-1.241630,-0.665784
04811,7.831141,-3.542190,-3.200587,3.699070,-1.694448,-0.547267
04812,9.924667,-0.743051,-1.754420,3.421885,-1.746687,-0.391298
04813,11.138829,2.178232,0.207226,2.700595,-1.476202,-0.266445
04814,11.153620,4.360499,2.023062,1.618811,-1.100101,-0.196493
04815,10.884080,5.591986,3.051816,0.360066,-0.786083,-0.168678
04816,11.224267,5.882541,3.852113,-0.913951,-0.496845,-0.139896
04817,12.120141,4.936090,4.279339,-2.126413,-0.109714,-0.122014
04818,12.543488,2.944353,3.939790,-3.050139,0.401108,-0.153803
04819,11.957723,0.643823,2.938225,-3.520087,0.868999,-0.250077
04820,10.672206,-2.038251,1.806260,-3.464443,1.129643,-0.348052
04821,9.222241,-4.702111,1.086710,-2.908343,1.069791,-0.424220
04822,8.366988,-6.906562,0.953142,-1.954888,0.764186,-0.495717
04823,7.926789,-7.829371,0.848851,-0.812624,0.382722,-0.539904
04824,7.525530,-7.437595,0.657039,0.360573,-0.006213,-0.545631
04825,7.349584,-6.129078,0.177236,1.416258,-0.449797,-0.509730
04826,7.710684,-4.540817,-0.500288,2.195892,-0.888813,-0.425096
04827,8.572365,-2.987995,-1.014615,2.586745,-1.229056,-0.312618
04828,9.433411,-1.216563,-1.068984,2.585822,-1.392278,-0.217980
04829,10.167974,0.605923,-0.617409,2.205062,-1.372035,-0.131731
04830,10.567119,2.166260,0.095734,1.509967,-1.186131,-0.041307
04831,10.558074,3.266210,0.780561,0.623852,-0.900194,0.026324
04832,10.360106,3.631666,1.337899,-0.337769,-0.607032,0.093880
04833,10.463911,3.373806,2.273265,-1.221540,-0.341042,0.157596
04834,11.085433,2.621296,3.081347,-1.988260,-0.076488,0.213442
04835,12.000160,1.444879,3.478451,-2.586313,0.295212,0.232272
04836,11.879679,0.105545,2.951417,-2.879842,0.714852,0.119897
04837,10.692411,-1.828660,1.831927,-2.742013,0.954596,-0.094694
04838,9.055895,-4.361236,1.004980,-2.096639,0.850096,-0.240955
04839,7.792057,-6.379040,0.434268,-1.064624,0.393668,-0.312413
04840,7.827612,-6.856468,0.280546,0.060288,-0.178567,-0.363586
04841,8.410976,-6.074934,0.434450,0.956192,-0.666604,-0.399140
04842,9.104608,-4.922045,-0.167484,1.558976,-0.996971,-0.443799
04843,9.528340,-3.926085,-1.738270,1.971402,-1.094666,-0.390151
04844,9.596393,-2.339570,-3.047057,2.282657,-1.042533,-0.237778
04845,9.683397,0.128944,-2.343492,2.271516,-0.987041,-0.049984
04846,10.062409,2.760155,-0.310060,1.689364,-0.919008,0.076698
04847,10.744324,4.847005,1.936333,0.739435,-0.745993,0.085657
04848,11.351588,5.938390,3.676924,-0.412246,-0.389921,0.050590
04849,11.333596,5.601156,3.830335,-1.565167,0.035989,0.023420
04850,10.735999,3.806528,2.745948,-2.399683,0.360996,0.021718
04851,10.138016,0.947952,1.358919,-2.763100,0.472088,0.015735
04852,10.106902,-2.467606,0.405534,-2.579642,0.423503,-0.037827
04853,9.864866,-5.397283,-0.008262,-1.918006,0.343045,-0.135195
04854,8.918588,-6.966781,-0.430846,-0.910781,0.198549,-0.217156
04855,8.064368,-6.467093,-1.150373,0.177008,-0.076599,-0.222738
04856,8.143938,-4.557177,-1.584581,1.060266,-0.404789,-0.131697
04857,9.311968,-1.974530,-1.272650,1.475261,-0.637335,-0.000426
04858,10.299419,0.344413,-0.687676,1.316538,-0.662213,0.128046
04859,10.510319,2.019837,-0.293546,0.729950,-0.530731,0.215512
04860,10.245270,3.027551,0.085325,-0.061357,-0.368739,0.259432
04861,10.110836,3.285990,0.540311,-0.870844,-0.229991,0.297475
04862,10.359577,2.964153,1.649962,-1.557446,-0.100160,0.324858
04863,10.935583,1.882486,2.534626,-2.080006,0.048433,0.303955
04864,11.016584,-0.261621,2.325151,-2.345103,0.249742,0.262069
04865,10.259574,-2.187237,1.416023,-2.142884,0.385179,0.149676
04866,9.512549,-4.045643,0.695202,-1.522514,0.350621,0.061498
04867,9.531925,-5.336019,0.388613,-0.695033,0.213238,0.023063
04868,9.398377,-5.403642,-0.028869,0.170939,0.104386,-0.017669
04869,9.264116,-4.332761,-0.253849,0.891663,-0.026764,-0.056360
04870,9.469481,-2.698316,-0.394879,1.301760,-0.174198,-0.110073
04871,9.861576,-1.307296,-0.432059,1.398657,-0.253186,-0.134582
04872,10.046303,-0.478726,-0.534397,1.233560,-0.260889,-0.117777
04873,9.980057,0.091155,-0.587701,0.941816,-0.216032,-0.084056
04874,9.855892,0.591366,-0.215333,0.587452,-0.174440,-0.039596
04875,9.927757,0.967635,0.303256,0.193395,-0.122098,-0.001174
04876,9.947365,0.890359,0.739033,-0.192307,-0.041165,0.017838
04877,9.875949,0.450263,0.872556,-0.473904,0.037111,0.017992
04878,9.807416,-0.359213,0.785883,-0.615440,0.095785,0.008416
04879,9.704720,-1.315331,0.566220,-0.576910,0.115598,-0.001027
04880,9.583841,-2.022261,0.395291,-0.373219,0.099810,-0.009418
04881,9.573496,-2.287940,0.256551,-0.088397,0.061127,-0.025332
04882,9.726438,-2.059228,0.171391,0.171903,0.000225,-0.051907
04883,9.863291,-1.744361,0.118929,0.369877,-0.050087,-0.081951
04884,9.958374,-1.390146,0.110480,0.485344,-0.081823,-0.102795
04885,9.976653,-0.968631,0.092117,0.512346,-0.099063,-0.116504
04886,10.035083,-0.680404,0.084251,0.467166,-0.087213,-0.105171
04887,9.951780,-0.446006,0.117662,0.367795,-0.068305,-0.081810
04888,9.905668,-0.280146,0.249572,0.225714,-0.046361,-0.057091
04889,9.859892,-0.240824,0.317245,0.053552,-0.027606,-0.031652
04890,9.845610,-0.483854,0.333456,-0.080088,0.005860,0.004520
04891,9.783829,-0.836063,0.305128,-0.162750,0.031097,0.038294
04892,9.762136,-1.174296,0.236451,-0.175298,0.039893,0.061510
04893,9.692634,-1.399565,0.123405,-0.137360,0.042105,0.076817
04894,9.625662,-1.444703,0.058615,-0.059937,0.025271,0.090128
04895,9.598021,-1.295763,0.024739,0.028484,-0.006933,0.096275
04896,9.572293,-1.105529,-0.080667,0.088075,-0.037773,0.099276
04897,9.465392,-0.799325,-0.163608,0.108856,-0.063374,0.107635
04898,9.500596,-0.344471,-0.105251,0.080465,-0.088694,0.116821
04899,9.758790,0.072152,0.010930,-0.018501,-0.094081,0.125761
04900,10.018518,0.282819,0.177313,-0.180864,-0.071467,0.139067
04901,10.162304,0.130803,0.231548,-0.363572,-0.017809,0.133565
04902,10.137494,-0.215514,0.159516,-0.497242,0.032230,0.128293
04903,10.048095,-0.662633,0.188372,-0.551277,0.073955,0.118319
04904,9.976762,-1.081346,0.172525,-0.536803,0.089238,0.122243
04905,9.905482,-1.323279,0.229783,-0.490328,0.091865,0.119496
04906,9.889321,-1.468240,0.234637,-0.428874,0.084410,0.102282
04907,9.872948,-1.557276,0.246911,-0.348101,0.075834,0.082902
04908,9.856683,-1.644599,0.259010,-0.252912,0.065237,0.070972
04909,9.885279,-1.685394,0.336966,-0.153276,0.052957,0.053529
04910,9.923197,-1.824538,0.350408,-0.075650,0.042661,0.035768
04911,9.985394,-1.928695,0.298680,-0.001187,0.038017,0.013870
04912,9.895285,-1.857972,0.197599,0.079278,0.040461,0.017755
04913,9.779111,-1.726427,0.127491,0.147087,0.030855,0.027352
04914,9.705678,-1.456444,0.086285,0.188626,0.005072,0.027833
04915,9.750582,-1.276387,0.050490,0.200434,-0.014013,0.033548
04916,9.713251,-1.077643,0.101324,0.188620,-0.009520,0.039877
04917,9.749422,-0.959900,0.102528,0.149924,-0.010211,0.040330
04918,9.778604,-0.943131,0.187686,0.112059,0.008267,0.037104
04919,9.778204,-0.946806,0.189994,0.085610,0.019839,0.041859
04920,9.800939,-1.056138,0.232082,0.061244,0.032114,0.045706
04921,9.763579,-1.128332,0.244220,0.055928,0.037017,0.054734
04922,9.722731,-1.121094,0.167083,0.065400,0.030867,0.048156
04923,9.731324,-1.064049,0.130325,0.077549,0.008953,0.035802
04924,9.735638,-1.009170,0.115770,0.090449,-0.001649,0.020120
04925,9.778501,-0.979248,0.129160,0.082321,-0.001789,0.007197
04926,9.758693,-1.007625,0.172024,0.060444,-0.002355,-0.001222
04927,9.758528,-1.114849,0.156804,0.054852,-0.000921,-0.013810
04928,9.760325,-1.153151,0.202293,0.054299,0.002232,-0.010197
04929,9.720297,-1.140152,0.121838,0.063202,-0.000783,-0.013152
04930,9.708121,-1.066442,0.079758,0.075771,-0.012573,-0.015524
04931,9.732413,-1.087837,0.004912,0.077682,-0.023745,-0.008581
04932,9.743093,-1.120521,0.000757,0.071674,-0.024895,0.007634
04933,9.740276,-1.110509,0.075404,0.063211,-0.025019,0.019283
04934,9.780265,-1.124229,0.155278,0.045045,-0.014658,0.027800
04935,9.835625,-1.059505,0.224686,0.026831,-0.005484,0.025020
04936,9.777373,-1.009645,0.246038,0.008046,0.000204,0.025229
04937,9.772504,-1.069182,0.262517,-0.001915,0.004301,0.019254
04938,9.711942,-1.195707,0.209442,0.005783,0.009035,0.020273
04939,9.728632,-1.212345,0.236704,0.027969,0.008139,0.019647
04940,9.739185,-1.192859,0.242889,0.044201,0.007517,0.019713
04941,9.774064,-1.141784,0.182971,0.063870,0.009060,0.011297
04942,9.741907,-1.098375,0.184659,0.073627,0.009245,0.007594
04943,9.752589,-1.077871,0.191748,0.054925,0.020170,0.011624
04944,9.784404,-1.123466,0.194503,0.036929,0.025075,0.018513
04945,9.784127,-1.125383,0.197358,0.019490,0.026815,0.021800
04946,9.779078,-1.184772,0.216817,0.004731,0.032722,0.021193
04947,9.744213,-1.320019,0.145467,-0.003907,0.035493,0.026366
04948,9.764932,-1.388414,0.143558,0.009911,0.023774,0.031980
04949,9.790404,-1.399693,0.124811,0.037454,0.020507,0.030475
04950,9.796638,-1.329774,0.162745,0.065391,0.003609,0.017721
04951,9.835274,-1.249016,0.207589,0.089225,0.003881,0.011783
04952,9.841424,-1.231771,0.238008,0.104433,0.006928,0.011017
04953,9.815333,-1.224295,0.261016,0.103640,0.003703,0.011802
