// Start Time: Unknown
// Update Rate: 100.0Hz
// Filter Profile: human (46.1)
// Firmware Version: 4.3.5
PacketCounter,Acc_X,Acc_Y,Acc_Z,Gyr_X,Gyr_Y,Gyr_Z
07012,9.340085,-2.601437,2.112960,0.035591,0.009621,-0.017388
07013,9.334434,-2.622590,2.115871,0.032227,0.010205,-0.020842
07014,9.263526,-2.603593,2.092794,0.030372,0.011933,-0.014693
07015,9.282701,-2.605720,2.109216,0.028388,0.007012,-0.013891
07016,9.310121,-2.636046,2.107093,0.025006,0.007466,-0.013905
07017,9.325507,-2.615550,2.053735,0.024318,0.007479,-0.011842
07018,9.310411,-2.632750,2.109927,0.023378,0.011017,-0.011239
07019,9.289012,-2.679140,2.045429,0.025903,0.009136,-0.016004
07020,9.313094,-2.680766,2.095918,0.033796,0.006243,-0.013174
07021,9.341629,-2.687712,2.058670,0.038535,0.005625,-0.013840
07022,9.352620,-2.661713,2.093069,0.036742,0.002270,-0.009633
07023,9.378796,-2.617177,2.072581,0.030873,0.004857,-0.011767
07024,9.407303,-2.624784,2.034650,0.015135,-0.000048,-0.007542
07025,9.480682,-2.594262,1.989317,-0.001590,0.003806,-0.004222
07026,9.499726,-2.598081,2.004139,-0.009667,-0.000337,-0.002069
07027,9.502042,-2.650188,1.986867,-0.013550,0.001704,0.003377
07028,9.455609,-2.614763,1.975400,-0.005929,0.002216,0.008190
07029,9.393855,-2.598176,2.018967,-0.003488,0.005300,0.008806
07030,9.258631,-2.513185,2.054597,0.002861,0.001002,0.008920
07031,9.187199,-2.497641,2.029680,-0.003924,0.001792,0.012330
07032,9.178665,-2.470853,2.047554,-0.018286,-0.003144,0.012429
07033,9.216373,-2.480526,2.076446,-0.026200,-0.000381,0.013038
07034,9.218430,-2.534002,2.058501,-0.031336,-0.003025,0.010345
07035,9.230203,-2.487954,2.054963,-0.035763,-0.005560,0.002147
07036,9.240070,-2.487448,2.122094,-0.051280,0.002288,-0.013878
07037,9.273649,-2.495502,2.116140,-0.062681,-0.001028,-0.022065
07038,9.241092,-2.589694,2.050292,-0.080598,-0.001492,-0.037204
07039,9.092999,-3.102951,1.533612,-0.052901,-0.022373,-0.038062
07040,8.743761,-3.935240,1.187078,0.083474,-0.087772,-0.019229
07041,8.316650,-5.218685,0.987313,0.541362,-0.206643,-0.009852
07042,8.425502,-6.381302,1.214079,1.317073,-0.410442,-0.018988
07043,9.252990,-6.375776,1.389499,2.228283,-0.557542,-0.033719
07044,9.938491,-5.211621,1.512786,3.007684,-0.590424,-0.031914
07045,10.014729,-3.413428,1.332793,3.466148,-0.546114,-0.015210
07046,9.995189,-2.298576,1.598485,3.696661,-0.466462,-0.041306
07047,10.201375,-1.320547,1.928400,3.677714,-0.324028,-0.063158
07048,10.255061,-0.088848,2.664535,3.428680,-0.132970,-0.064738
07049,10.167399,1.646200,3.378782,2.861504,0.105282,-0.129163
07050,9.500065,3.106367,2.999761,1.711376,0.286148,-0.163488
07051,8.926245,3.941269,3.295256,0.189244,0.353523,-0.176244
07052,8.913472,3.687272,3.982573,-1.436166,0.391626,-0.206343
07053,9.145903,1.283883,3.739102,-2.728487,0.429879,-0.205531
07054,9.337353,-2.881628,2.012672,-3.190922,0.440535,-0.148476
07055,8.809608,-7.551909,0.316527,-2.527254,0.391483,-0.076366
07056,7.822058,-11.631064,-0.344581,-0.797863,0.182644,-0.072605
07057,7.953707,-13.972123,2.169171,1.980025,-0.137408,-0.190979
07058,9.604601,-11.425197,3.503589,4.731644,-0.396900,-0.301155
07059,10.595981,-5.388943,2.970555,6.471685,-0.415644,-0.236665
07060,10.588344,0.054058,3.004765,6.888323,-0.348390,-0.096035
07061,10.345738,4.204008,4.145871,6.109684,-0.174748,0.024823
07062,9.891389,5.933155,5.154273,4.576791,0.025332,0.057984
07063,9.261607,5.283501,5.481665,2.743913,0.239604,0.059839
07064,9.822803,4.508815,5.234654,1.027806,0.386372,0.005269
07065,10.319948,4.421082,4.040520,-0.681759,0.621854,-0.064693
07066,9.503148,3.835983,3.745121,-2.227654,0.832910,-0.153092
07067,8.947485,2.312917,4.404753,-3.424513,0.918226,-0.266722
07068,9.080531,0.270337,4.517101,-4.222136,0.981278,-0.290117
07069,9.698910,-1.732220,4.090310,-4.546091,0.989671,-0.259384
07070,9.840513,-4.497444,2.764833,-4.344823,1.086121,-0.180326
07071,8.872517,-7.693360,1.416973,-3.598280,1.056491,-0.027248
07072,8.264362,-9.871314,2.743410,-2.027678,0.893655,0.045614
07073,8.452463,-10.487033,3.879137,-0.120244,0.673147,0.073225
07074,9.351763,-9.094290,4.246396,1.724001,0.462024,0.176852
07075,10.256358,-6.141148,4.512287,3.066136,0.395609,0.303989
07076,10.722750,-3.301940,4.519922,3.697247,0.449151,0.434053
07077,10.505689,-1.330538,4.357151,3.729097,0.570689,0.480196
07078,10.211460,-0.046707,4.384006,3.370693,0.667519,0.449505
07079,9.685785,1.220578,4.655769,2.708876,0.806836,0.360088
07080,9.425166,2.270853,4.637718,1.809737,0.948678,0.226450
07081,9.056492,2.899311,4.022134,0.610186,1.096568,0.112194
07082,8.703244,3.048957,4.230174,-0.685977,1.169030,0.042003
07083,8.575100,2.742383,5.031006,-1.928825,1.213375,-0.035795
07084,8.954469,1.977831,5.242048,-3.065653,1.237669,-0.057881
07085,9.441469,1.132900,4.814829,-4.076499,1.234657,-0.007445
07086,9.776504,-0.049356,3.860868,-4.845873,1.241943,0.039366
07087,9.748486,-2.028128,2.760986,-5.199901,1.243756,0.026688
07088,9.251067,-4.813708,1.070342,-5.073462,1.188695,0.047664
07089,7.791308,-8.340930,0.001890,-4.313263,0.994536,0.164968
07090,7.229194,-10.530551,1.249515,-2.684324,0.681389,0.143419
07091,7.788850,-11.303905,2.394203,-0.625220,0.382955,0.109326
07092,8.502933,-9.972513,3.081532,1.448960,0.120944,0.164510
07093,9.030260,-6.843991,3.840863,3.113164,0.006420,0.227546
07094,9.140604,-3.969363,4.154125,4.070210,0.019933,0.268741
07095,8.847707,-1.947194,4.617769,4.383242,0.135921,0.259491
07096,8.361900,-0.498405,4.606174,4.087037,0.260082,0.218073
07097,8.118915,1.390938,4.882460,3.260927,0.395129,0.131485
07098,8.180487,2.895821,5.187141,1.881219,0.511393,0.079543
07099,8.318021,3.550510,5.781091,0.223154,0.605442,0.087920
07100,8.574351,2.965778,6.214367,-1.427666,0.684820,0.150510
07101,8.914892,1.406758,6.151700,-2.809826,0.738577,0.286791
07102,9.115644,-1.091045,5.275625,-3.675939,0.806178,0.429697
07103,8.694273,-4.806181,3.380476,-3.761259,0.812636,0.533128
07104,7.755153,-8.333352,3.111455,-2.812916,0.755098,0.567356
07105,7.656023,-10.258524,3.505480,-1.143013,0.579693,0.558312
07106,8.279672,-10.644882,4.522254,0.812280,0.397646,0.629483
07107,9.185550,-8.865071,5.178494,2.475472,0.309746,0.752389
07108,9.386074,-6.704142,4.997106,3.531587,0.346856,0.945182
07109,8.699623,-4.504683,5.107284,3.974249,0.395922,1.108048
07110,8.542612,-2.227640,6.171310,3.924101,0.457498,1.197499
07111,8.650479,-0.248392,7.709474,3.495311,0.615100,1.183940
07112,8.684889,1.515104,8.995268,2.741946,0.883598,1.117442
07113,8.077271,2.188126,8.720280,1.604271,1.145616,1.091799
07114,7.166706,0.717703,7.232903,0.319476,1.281038,1.128333
07115,6.828857,-0.917616,6.293273,-0.695354,1.317995,1.025267
07116,7.003834,-1.080801,6.161683,-1.458381,1.336061,0.863559
07117,7.383004,-0.533146,6.469244,-2.164702,1.346284,0.830559
07118,7.755859,-0.572920,6.747776,-2.873920,1.346704,0.899710
07119,7.875949,-2.209491,6.522477,-3.345252,1.390531,0.995138
07120,7.578953,-5.454646,5.585421,-3.231195,1.397055,1.022349
07121,6.847229,-8.476202,4.716791,-2.450903,1.310156,1.038593
07122,6.232400,-10.070574,4.646043,-1.158365,1.113780,1.061466
07123,6.012122,-10.484168,4.587061,0.347569,0.831836,1.129447
07124,6.771978,-8.970145,5.842896,1.846001,0.580487,1.141576
07125,7.283164,-6.837140,6.250787,2.947266,0.492185,1.174658
07126,7.039379,-5.218281,6.352148,3.598970,0.450809,1.254235
07127,6.614692,-3.889503,6.432847,3.871306,0.400808,1.296822
07128,6.682946,-2.447512,7.131194,3.882478,0.401153,1.244318
07129,6.890583,-0.831579,8.104555,3.649427,0.514682,1.089985
07130,6.672529,0.744031,8.816011,3.151032,0.724048,0.863715
07131,6.103259,1.608979,8.623916,2.335024,0.960191,0.656957
07132,5.491461,2.112747,8.472128,1.300513,1.131070,0.456176
07133,5.386391,2.999047,8.757849,0.112567,1.263961,0.224228
07134,5.753448,3.425429,9.086136,-1.225391,1.368062,0.088511
07135,6.311656,2.871400,9.217116,-2.553633,1.472604,0.049564
07136,6.695639,1.282665,8.827219,-3.639410,1.594568,0.071647
07137,6.752954,-1.407896,7.950750,-4.282529,1.707022,0.091756
07138,6.362931,-4.839487,6.107369,-4.385108,1.768627,0.146848
07139,4.992261,-8.044422,4.685752,-3.847047,1.717644,0.278623
07140,3.339767,-10.117341,5.191220,-2.732783,1.507542,0.394865
07141,2.657037,-10.856019,7.050803,-1.193844,1.186835,0.472992
07142,3.169938,-10.277220,8.905303,0.458147,0.886470,0.539168
07143,4.051922,-8.446367,9.873057,1.827240,0.713744,0.618356
07144,4.427668,-5.801993,10.384371,2.679353,0.687404,0.658471
07145,4.522226,-3.647296,10.399748,2.867832,0.730860,0.618341
07146,4.689662,-2.489581,10.059412,2.549180,0.806041,0.532522
07147,5.070650,-2.059209,9.384151,1.944613,0.883202,0.402690
07148,5.378693,-1.041343,9.465390,1.163193,1.054671,0.205359
07149,5.400731,0.023717,9.657269,0.129074,1.236940,0.054540
07150,5.332597,0.164716,9.753526,-1.060264,1.419117,-0.018512
07151,5.251114,-1.305890,9.219337,-2.152548,1.560288,0.017344
07152,5.120439,-4.037568,7.901217,-2.822794,1.649995,0.116242
07153,4.526067,-7.167945,6.600426,-2.840888,1.670448,0.222922
07154,3.307324,-9.849067,5.790080,-2.262008,1.554556,0.353054
07155,2.578755,-10.898444,6.171676,-1.195993,1.278264,0.465889
07156,2.404848,-11.714387,5.712694,0.071133,0.954837,0.632172
07157,2.134242,-12.065456,5.046932,1.451666,0.585354,0.857605
07158,1.779605,-11.921601,4.271289,2.894091,0.175472,1.060438
07159,1.622094,-11.520198,4.615665,4.537515,-0.254638,1.218945
07160,3.347165,-9.898457,6.190351,6.210766,-0.635877,1.229195
07161,6.300651,-6.347114,8.490969,7.652003,-0.694746,1.145136
07162,7.323562,-1.536707,10.214767,8.290180,-0.366562,0.965834
07163,6.185339,2.022535,10.258658,7.782377,0.099727,0.807948
07164,4.172401,2.773720,9.069722,6.460790,0.453960,0.690101
07165,2.780850,4.045126,7.622966,4.616436,0.619319,0.387695
07166,2.645270,7.689597,8.170967,2.514799,0.788522,-0.080207
07167,3.426470,9.976686,9.367679,0.029436,0.906767,-0.359766
07168,4.541324,8.181178,9.799074,-2.434300,1.124511,-0.261747
07169,4.924789,3.637328,9.065795,-4.133486,1.303849,-0.036694
07170,4.263632,-2.375461,7.302637,-4.799484,1.473095,0.177161
07171,2.423809,-8.153916,5.252703,-4.247994,1.472210,0.403254
07172,0.154194,-11.808139,5.796069,-2.506970,1.208470,0.468719
07173,0.436899,-13.179196,7.750221,0.074937,0.687287,0.412507
07174,2.842651,-11.064021,9.066763,2.685030,0.325613,0.379144
07175,4.445673,-6.589744,8.947056,4.455650,0.264718,0.465859
07176,3.827652,-2.531808,8.898315,5.202011,0.368731,0.576616
07177,3.125776,0.403707,9.202020,5.072032,0.447396,0.592668
07178,2.641680,2.345004,9.914080,4.414015,0.561356,0.557794
07179,2.210557,3.954760,10.633963,3.395992,0.706681,0.404353
07180,2.101782,5.690420,10.911476,2.098844,0.891033,0.209746
07181,2.070489,7.119584,11.216601,0.650288,1.120578,-0.045844
07182,2.264495,7.751708,11.594843,-0.932055,1.341408,-0.299687
07183,2.796637,7.420491,11.005549,-2.635578,1.544157,-0.438707
07184,2.965772,6.363766,10.167331,-4.270750,1.740446,-0.453969
07185,2.285225,4.203392,8.810765,-5.714521,1.888456,-0.349448
07186,1.297732,0.200426,7.264578,-6.621185,1.930462,-0.120333
07187,0.074580,-4.846834,6.480630,-6.598920,1.881822,0.069668
07188,-0.898457,-9.653500,6.462945,-5.489970,1.642515,0.215867
07189,-0.867099,-12.586791,7.529299,-3.484683,1.246753,0.256452
07190,-0.119048,-12.851965,8.196668,-1.064234,0.875264,0.300599
07191,0.196211,-10.812596,7.587244,1.064850,0.590704,0.423866
07192,-0.278892,-8.229333,7.747337,2.708552,0.376060,0.565332
07193,0.150786,-5.597452,8.699832,3.849681,0.217157,0.575713
07194,1.160365,-3.189449,9.170365,4.373853,0.171048,0.570208
07195,1.657257,-0.689876,9.584687,4.331309,0.260811,0.568682
07196,1.251834,1.638636,9.927695,3.793758,0.450402,0.500743
07197,0.345812,2.721521,9.524614,2.805372,0.639495,0.406892
07198,-0.384436,3.078900,8.897935,1.620604,0.728313,0.271484
07199,-0.376162,3.864037,9.457132,0.456460,0.796969,0.080378
07200,0.334538,4.427256,10.209721,-0.750534,0.866916,-0.032738
07201,1.103921,4.003277,10.235523,-1.956700,0.986329,-0.046840
07202,1.051677,2.933413,9.478926,-3.039144,1.114780,-0.005970
07203,0.244179,-0.019990,7.412109,-3.875247,1.195343,0.126230
07204,-1.754834,-4.676251,5.725842,-3.893658,1.169665,0.316488
07205,-3.930427,-9.320705,5.553021,-2.815236,0.879142,0.429148
07206,-3.905501,-13.421197,7.003361,-0.495264,0.385523,0.444308
07207,-1.568020,-14.450494,7.823410,2.610783,-0.078669,0.409910
07208,0.607031,-11.436247,6.984144,5.485019,-0.338117,0.503547
07209,0.896712,-6.774844,6.293587,7.509069,-0.369741,0.629880
07210,1.074102,-2.504931,6.055406,8.529570,-0.349412,0.712790
07211,0.856221,1.052141,6.992226,8.625809,-0.216396,0.728409
07212,0.345732,4.778030,9.113992,7.890351,-0.059435,0.752780
07213,-0.233905,6.977611,10.185883,6.427298,0.243320,0.673260
07214,-0.790111,7.260119,9.902651,4.650133,0.466966,0.575844
07215,-0.698264,7.889597,9.801512,3.044262,0.599522,0.362252
07216,-0.305371,9.138626,9.400537,1.508415,0.712548,0.179404
07217,-0.368456,9.948250,10.062202,0.008973,0.814678,0.077873
07218,-0.116389,9.871080,10.731960,-1.435562,0.914090,-0.006872
07219,0.236321,8.239263,9.818914,-2.786627,1.056197,-0.019924
07220,-0.632494,5.087571,8.638906,-3.767730,1.163836,0.076227
07221,-2.056543,1.091395,7.175776,-4.147423,1.115975,0.198748
07222,-3.424981,-3.386819,6.672787,-3.585612,0.939960,0.386041
07223,-3.835779,-6.949945,8.041219,-1.938000,0.592178,0.412141
07224,-1.539579,-8.124341,9.164490,0.468433,0.249413,0.345541
07225,0.540478,-6.083274,8.242689,2.710338,0.154823,0.369083
07226,-0.018587,-2.261199,7.472987,4.192115,0.187070,0.495829
07227,-1.396359,1.626822,7.436977,4.729033,0.197005,0.523053
07228,-2.256108,4.793895,8.252077,4.444480,0.239685,0.444110
07229,-2.276811,6.234222,8.816886,3.618455,0.253177,0.368739
07230,-1.784274,6.917248,8.903110,2.594722,0.331699,0.313384
07231,-1.255482,7.415621,8.976756,1.603361,0.410185,0.257744
07232,-1.054405,8.019578,8.925956,0.679630,0.504479,0.161740
07233,-0.878637,8.813177,9.131187,-0.221361,0.581391,0.058060
07234,-0.466531,9.533468,9.219754,-1.205289,0.686326,-0.036375
07235,-0.316634,9.794385,9.131341,-2.260040,0.833238,-0.122370
07236,-0.520443,9.242086,8.707997,-3.335138,0.972079,-0.222147
07237,-0.807962,7.210955,7.385901,-4.308182,1.081428,-0.262170
07238,-2.301086,3.360617,6.019178,-4.932399,1.089249,-0.115095
07239,-3.951804,-0.156611,6.379159,-4.717975,0.891766,0.002234
07240,-3.193881,-2.734208,7.267394,-3.743317,0.570888,0.016412
07241,-1.493997,-4.022625,7.617855,-2.321466,0.392956,0.052281
07242,-1.160489,-4.049604,7.015672,-0.826441,0.337767,0.147122
07243,-2.307524,-3.327140,6.462623,0.521358,0.251248,0.257925
07244,-3.299832,-1.766327,6.821502,1.632393,0.080039,0.244133
07245,-3.122490,0.427706,7.722960,2.339426,-0.065474,0.143755
07246,-2.589421,2.192351,8.294514,2.504922,-0.100347,0.117305
07247,-2.369853,3.119389,8.459007,2.402062,-0.087953,0.113480
07248,-2.663016,4.580738,8.754215,2.106241,-0.075889,0.054366
07249,-2.333228,6.171255,9.057134,1.510960,-0.075913,-0.051777
07250,-1.779281,7.446121,9.294594,0.605013,-0.014113,-0.136616
07251,-1.498084,8.082387,9.321481,-0.495545,0.078546,-0.161190
07252,-1.723223,7.603067,9.395254,-1.581403,0.163794,-0.180104
07253,-2.017579,5.870401,9.148403,-2.488340,0.205188,-0.167319
07254,-2.490579,2.882800,8.573284,-2.972753,0.217773,-0.091210
07255,-3.156744,0.278888,8.691557,-2.788611,0.142883,-0.088229
07256,-2.897234,-1.441896,9.027900,-2.061872,0.005096,-0.108913
07257,-2.450524,-1.952071,8.998779,-1.091023,-0.084153,-0.124688
07258,-2.493023,-1.497587,8.531485,-0.242214,-0.163434,-0.080671
07259,-3.128567,-0.302543,8.662768,0.332676,-0.243128,-0.038019
07260,-3.361306,1.497907,9.452584,0.600726,-0.366337,-0.083823
07261,-2.892528,3.464728,10.030866,0.412662,-0.440579,-0.128624
07262,-2.767928,5.441366,10.988633,-0.228873,-0.456082,-0.114901
07263,-2.467805,7.790851,11.912744,-1.368637,-0.432450,-0.102760
07264,-2.120367,10.068653,11.757768,-3.065190,-0.351455,-0.071402
07265,-1.771875,11.680372,11.120093,-5.138324,-0.191002,-0.062512
07266,-1.485097,11.483205,9.290213,-7.446540,0.029388,-0.068027
07267,-1.170891,9.871572,7.894750,-9.663988,0.246114,-0.084765
07268,-0.595247,7.613887,6.625467,-11.458735,0.515230,-0.186957
07269,0.170281,5.668648,4.445952,-12.913291,0.809473,-0.229348
07270,0.783877,4.183237,1.862000,-14.228394,1.194598,-0.230659
07271,1.271791,3.023679,-1.217954,-15.613459,1.664462,-0.158687
07272,1.129185,1.168543,-4.875558,-16.810876,2.172984,-0.051641
07273,0.203148,-1.580516,-8.466969,-17.688954,2.577342,0.046565
07274,-1.368392,-5.915211,-12.701952,-17.946781,2.831396,0.196361
07275,-4.162938,-12.240446,-15.210614,-17.290018,2.763053,0.339229
07276,-6.341359,-18.916572,-15.244431,-15.384991,2.118951,0.428942
07277,-6.803654,-24.046489,-14.359528,-12.356377,1.325833,0.450134
07278,-7.097427,-27.223055,-11.749011,-8.049157,0.595262,0.382067
07279,-6.048553,-26.415665,-6.761578,-3.866796,-0.145077,0.352894
07280,-3.400131,-21.273976,-3.150810,-0.209463,-0.484574,0.374891
07281,-2.201584,-13.275959,-0.320519,1.930848,-0.571717,0.371457
07282,-1.630188,-5.826382,1.823311,2.341399,-0.453081,0.340139
07283,-1.783799,-0.944628,3.256040,1.238946,-0.164905,0.351910
07284,-2.549055,0.396914,2.517064,-0.435122,0.110980,0.253296
07285,-2.997921,-2.043422,0.879711,-2.005278,0.327826,0.097605
07286,-3.085510,-5.937670,-1.557341,-2.856341,0.542824,0.041520
07287,-2.996272,-8.781277,-4.095285,-3.055413,0.747014,0.039712
07288,-3.097517,-10.341076,-5.500280,-2.924493,0.915484,0.088374
07289,-3.434912,-10.147529,-5.501607,-2.737801,1.061621,0.113548
07290,-3.884853,-9.040834,-5.379985,-2.701359,1.130089,0.080300
07291,-4.726134,-8.107563,-6.106490,-2.730378,1.126636,-0.053067
07292,-5.634631,-9.428237,-5.787838,-2.692243,0.914644,-0.230880
07293,-4.679879,-11.793565,-5.078609,-2.302178,0.611984,-0.307437
07294,-3.391402,-12.563598,-3.915158,-1.526218,0.405060,-0.313321
07295,-2.448453,-11.188694,-3.623717,-0.672286,0.338717,-0.232315
07296,-2.619963,-8.513131,-3.502775,-0.159106,0.277033,-0.136689
07297,-2.885050,-6.253251,-3.656188,-0.131458,0.180188,-0.077600
07298,-2.945271,-5.745475,-3.793941,-0.351131,0.099701,-0.068980
07299,-2.932206,-7.355429,-4.095298,-0.507477,0.066904,-0.050400
07300,-3.118282,-9.203808,-4.736122,-0.437321,0.023175,0.035220
07301,-3.118097,-10.124785,-5.040904,-0.239815,-0.047866,0.160911
07302,-2.895177,-9.628777,-5.191434,-0.062693,-0.103313,0.295652
07303,-3.246742,-8.403279,-5.880511,0.100962,-0.128468,0.330683
07304,-4.740272,-9.268625,-5.523959,0.387344,-0.335278,0.241123
07305,-4.515925,-11.577494,-4.710046,1.122076,-0.681414,0.174854
07306,-3.454826,-12.277662,-3.431225,2.096658,-0.920190,0.200831
07307,-2.515197,-10.423708,-2.621426,2.814434,-1.038317,0.300466
07308,-2.170686,-7.331665,-1.132040,2.950023,-1.081606,0.363850
07309,-2.134157,-4.863618,-0.030667,2.675896,-0.841534,0.315211
07310,-3.346962,-2.716632,-1.002460,2.036321,-0.570702,0.266845
07311,-3.810059,-3.163921,-1.516018,0.967505,-0.372712,0.164923
07312,-3.318236,-6.217087,-2.552244,0.186479,-0.118898,0.071184
07313,-2.962035,-9.358431,-2.743301,-0.089538,0.168287,0.015574
07314,-3.024314,-9.831782,-2.706951,0.047076,0.507691,-0.044587
07315,-3.581947,-7.733571,-2.401420,-0.027093,0.737040,-0.118172
07316,-3.605353,-5.969069,-2.656633,-0.516914,0.848651,-0.189266
07317,-3.365938,-6.130724,-3.094109,-1.256845,0.893769,-0.200864
07318,-2.982216,-7.313207,-3.857332,-1.807773,0.900846,-0.168452
07319,-2.978016,-8.377089,-4.701402,-2.066066,0.887605,-0.094674
07320,-3.072882,-8.838056,-5.546241,-2.041241,0.814508,-0.025835
07321,-3.419821,-9.199843,-7.238675,-1.785901,0.724322,0.001078
07322,-4.892230,-10.288216,-9.036521,-1.255069,0.532159,-0.070274
07323,-6.197604,-12.441982,-10.373548,-0.315972,0.067920,-0.166621
07324,-6.891796,-14.743160,-10.417847,1.098929,-0.532019,-0.290103
07325,-5.618775,-16.089670,-8.813611,2.698198,-1.234247,-0.307687
07326,-3.507027,-15.104073,-9.300426,4.637975,-1.499463,-0.324511
07327,-4.083659,-13.273636,-9.781600,6.394651,-1.735507,-0.429213
07328,-4.396711,-12.035880,-9.679659,7.942418,-2.127810,-0.512570
07329,-4.367091,-11.599593,-10.398875,9.454609,-2.426995,-0.588151
07330,-4.620654,-12.148822,-9.786344,10.942644,-2.808990,-0.628444
07331,-3.518531,-12.880531,-9.130071,12.533066,-3.194924,-0.570912
07332,-2.323375,-13.026349,-9.035643,14.484394,-3.309195,-0.512850
07333,-1.679451,-12.085862,-9.224945,16.724169,-3.436180,-0.419640
07334,-0.419210,-9.497167,-9.205551,19.174336,-3.389249,-0.394533
07335,0.519260,-5.715525,-9.222745,21.757845,-2.891705,-0.497169
07336,-0.146641,-0.650169,-10.046159,24.051355,-2.105629,-0.673595
07337,-2.803584,5.801470,-10.820108,25.142399,-1.639257,-0.760737
07338,-5.210165,12.934786,-9.104355,24.690454,-1.755371,-0.701747
07339,-5.481532,20.321258,-3.318893,22.557621,-2.223605,-0.827029
07340,-1.080020,26.688746,4.975661,18.091930,-2.417039,-1.031733
07341,3.600204,28.840417,11.234210,12.059513,-1.705790,-0.818972
07342,2.812947,26.651412,12.907836,5.800227,-0.974566,-0.469435
07343,-0.195420,21.687218,11.551395,0.704051,-0.615004,-0.498770
07344,-1.496553,15.365778,7.670819,-2.666747,-0.456810,-0.629203
07345,-1.606168,8.389872,4.043331,-4.157664,-0.260364,-0.653144
07346,-1.107161,0.658075,3.903961,-3.639843,-0.057331,-0.475061
07347,-0.112254,-5.956378,5.030726,-1.601394,0.036188,-0.245786
07348,0.197803,-6.699626,6.590261,0.980839,-0.055292,0.052305
07349,-0.089208,-1.283384,7.956776,2.910749,-0.127273,0.211419
07350,-0.818116,4.806559,9.068823,3.573733,-0.022210,0.353174
07351,-1.824874,7.711516,8.953182,3.231810,0.141424,0.416420
07352,-2.164655,8.300685,8.507938,2.633325,0.128216,0.429309
07353,-1.882135,8.229692,8.061767,2.042445,0.120321,0.408129
07354,-1.986713,8.248576,7.481745,1.545848,0.102567,0.363707
07355,-2.153256,8.358150,7.279738,1.111521,0.033502,0.273903
07356,-1.820438,8.893005,7.523269,0.627029,-0.019567,0.162207
07357,-1.558628,8.827699,7.449586,0.126847,0.002641,0.117384
07358,-1.669432,7.762322,7.671666,-0.168239,0.022088,0.071998
07359,-1.482778,6.768926,7.733746,-0.181632,0.019369,0.044781
07360,-1.070843,6.662314,7.695392,-0.085343,0.019592,0.046682
07361,-0.981523,7.143057,7.460280,-0.082078,0.039578,0.071752
07362,-1.129066,7.464894,7.220205,-0.238341,0.060951,0.066765
07363,-1.313874,7.202486,7.079907,-0.458535,0.071534,0.052722
07364,-1.382160,6.267579,6.837426,-0.576874,0.055426,0.030869
07365,-1.437997,5.230945,6.900712,-0.428493,0.007209,0.016171
07366,-1.276147,5.445252,7.200246,-0.089276,-0.065348,-0.007720
07367,-1.180799,6.308920,7.519148,0.160205,-0.098023,-0.027380
07368,-1.121114,7.168341,7.645167,0.213740,-0.110621,-0.026402
07369,-1.189575,7.882600,7.557366,0.076781,-0.101239,-0.042868
07370,-1.406869,8.424774,6.840953,-0.231417,-0.119384,-0.077883
07371,-1.542003,8.377884,6.626156,-0.623500,-0.179231,-0.130863
07372,-1.488575,7.456895,7.046431,-0.904726,-0.236761,-0.192679
07373,-1.230450,6.952571,7.509082,-1.036476,-0.305793,-0.268773
07374,-1.093537,7.101466,7.895535,-1.190979,-0.326033,-0.297168
07375,-1.275550,7.526368,7.763968,-1.509259,-0.344495,-0.300331
07376,-1.622776,8.358164,7.837296,-2.135448,-0.438965,-0.273422
07377,-1.286187,9.357920,7.862352,-3.153378,-0.533970,-0.251080
07378,-1.000427,8.589085,8.148841,-4.377474,-0.538800,-0.213774
07379,-0.788326,6.555965,9.056212,-5.278776,-0.547159,-0.234936
07380,-0.200973,4.353284,8.912172,-5.729753,-0.522210,-0.236202
07381,0.077604,2.937106,8.969314,-5.833204,-0.434126,-0.210915
07382,-0.299995,2.456219,8.942746,-5.796676,-0.368832,-0.181110
07383,-1.196895,3.619287,8.064885,-5.793601,-0.412612,-0.152757
07384,-1.506350,5.405674,5.627937,-5.823062,-0.471726,-0.133561
07385,-1.269170,5.424832,4.672276,-6.142940,-0.453846,-0.112664
07386,-0.530377,4.060415,4.473429,-6.579070,-0.446263,-0.030873
07387,0.291329,2.417025,4.405890,-7.012042,-0.324317,0.091002
07388,0.108858,2.021570,5.203738,-7.590926,-0.150899,0.205714
07389,-0.271626,2.446411,6.309464,-8.279874,-0.003513,0.222639
07390,-0.268079,2.305402,6.316041,-9.148458,0.124727,0.239668
07391,-0.178956,0.868218,5.481353,-9.995709,0.246200,0.278477
07392,-0.062100,-4.417949,1.606542,-10.299431,0.424721,0.342495
07393,-1.559955,-15.929915,0.046257,-8.296445,0.921513,0.164201
07394,-5.137038,-27.947402,2.939914,-3.671364,0.798341,-0.132719
07395,-3.599582,-31.604502,4.366887,2.371673,-0.531552,-0.191259
07396,1.586753,-19.993831,5.209149,7.165305,-1.294162,0.123969
07397,2.106703,-6.978403,5.899023,9.211356,-1.301583,0.440861
07398,0.823999,0.965831,6.885605,9.296499,-1.068228,0.664540
07399,-0.093418,4.247677,8.112184,8.234665,-0.922183,0.738894
07400,0.529992,5.772781,9.878760,6.705402,-0.800872,0.669277
07401,1.201820,6.777084,11.522146,4.771241,-0.610864,0.615134
07402,1.725054,8.686370,12.244825,2.665338,-0.389245,0.457751
07403,1.376071,10.566954,11.521199,0.336951,-0.104663,0.269166
07404,0.302747,11.146233,11.084559,-2.132607,0.142210,0.023288
07405,-0.800289,9.271715,9.595384,-4.586971,0.243176,-0.170967
07406,-1.517775,3.824695,7.138119,-6.457907,0.248882,-0.252381
07407,-2.659017,-3.880511,6.222941,-6.820347,0.204931,-0.392039
07408,-3.127000,-10.855821,7.136301,-5.531780,0.014784,-0.519602
07409,-2.195792,-15.448433,8.821384,-3.081371,-0.282238,-0.605647
07410,-0.492471,-15.573845,8.838700,-0.341180,-0.650628,-0.537759
07411,0.334562,-11.197388,8.233461,1.833146,-0.883167,-0.314192
07412,0.120672,-6.083986,7.754238,3.047567,-0.972553,-0.097533
07413,0.228979,-2.167384,7.896104,3.383298,-0.981535,0.038861
07414,0.494653,0.733667,8.735033,3.087109,-0.877118,0.072143
07415,0.715425,2.760798,9.930307,2.231003,-0.684711,0.089334
07416,0.702195,4.205054,10.140695,0.932240,-0.470735,0.055416
07417,0.962861,5.760864,9.716859,-0.691132,-0.303962,-0.043150
07418,1.350779,6.319308,9.098488,-2.515915,-0.097899,-0.154109
07419,1.295886,3.931947,7.152549,-4.268974,0.038530,-0.150247
07420,0.130491,-1.609620,5.705757,-5.081136,0.128030,-0.099595
07421,-1.310625,-7.596298,6.444072,-4.462362,0.043632,-0.171635
07422,-1.222838,-12.109346,7.893977,-2.707131,-0.276973,-0.216765
07423,0.328173,-13.344112,8.272865,-0.400432,-0.644603,-0.206002
07424,1.413809,-10.824289,7.668129,1.586024,-0.896636,-0.091435
07425,0.665830,-7.508137,7.258113,2.931106,-0.974436,0.100810
07426,-0.359571,-5.401395,7.501808,3.754774,-1.126268,0.178113
07427,0.253388,-3.121119,8.887335,4.294223,-1.299975,0.155741
07428,1.379709,-0.130865,10.528725,4.350352,-1.259191,0.069967
07429,1.690006,2.442071,11.162008,3.685310,-1.080364,0.070385
07430,1.272625,4.257296,11.640697,2.502730,-0.867920,0.032348
07431,1.002444,5.620765,11.297878,0.998860,-0.657218,-0.132802
07432,0.892761,5.738088,10.249535,-0.656409,-0.484174,-0.289398
07433,1.236665,3.906298,9.460116,-2.091518,-0.383249,-0.396227
07434,2.164003,0.887968,9.358838,-3.015185,-0.324363,-0.462731
07435,3.002916,-2.100932,9.369484,-3.357929,-0.261962,-0.446313
07436,3.467280,-4.419022,8.175434,-3.306446,-0.243246,-0.347174
07437,2.366755,-6.448227,5.756361,-2.945704,-0.252244,-0.113402
07438,-0.048842,-7.886266,6.399697,-2.001930,-0.342368,-0.000601
07439,-1.011908,-9.252807,8.169332,-0.533624,-0.640601,0.020322
07440,0.529910,-10.175576,8.848946,1.214653,-1.018200,0.114627
07441,2.808756,-8.919374,8.279632,2.874855,-1.265001,0.330054
07442,3.665790,-5.042859,8.056795,4.082616,-1.316460,0.564059
07443,3.760478,-0.341391,9.284807,4.627595,-1.253029,0.642117
07444,3.328778,3.031403,10.102348,4.361481,-1.014225,0.591251
07445,2.240578,3.975168,9.536584,3.497368,-0.885363,0.503453
07446,1.519119,5.012614,10.011383,2.320138,-0.855856,0.233809
07447,1.427342,6.758614,10.819434,0.904442,-0.751495,-0.200842
07448,1.743780,7.282423,11.391240,-0.693011,-0.669818,-0.561820
07449,2.425822,5.953214,11.179474,-2.210541,-0.542941,-0.821032
07450,2.940070,3.279286,10.624434,-3.392446,-0.417159,-0.954960
07451,3.536263,-0.127393,9.657124,-4.048806,-0.319070,-1.017786
07452,4.185628,-3.933476,7.962261,-4.142913,-0.301745,-1.019635
07453,4.262840,-7.268347,6.079387,-3.707816,-0.341323,-0.940293
07454,3.072348,-9.500038,5.620355,-2.788706,-0.425112,-0.814710
07455,1.960487,-10.425066,6.350930,-1.535954,-0.697748,-0.733629
07456,2.249448,-10.028552,7.956493,-0.174236,-1.020737,-0.676714
07457,3.161249,-8.435475,8.961485,0.950514,-1.207393,-0.571360
07458,3.554476,-6.635131,8.933528,1.649528,-1.290756,-0.382175
07459,3.448335,-4.968648,8.399106,1.920905,-1.347593,-0.179609
07460,3.409780,-3.688192,7.893597,1.866951,-1.378879,-0.016815
07461,3.700753,-2.446365,8.176059,1.658955,-1.396291,0.072831
07462,4.184235,-0.759359,9.294407,1.349344,-1.277822,0.051789
07463,3.914829,0.359704,9.565048,0.825673,-1.082900,0.028385
07464,3.339516,0.778042,9.395359,0.179301,-0.947096,-0.008587
07465,3.164999,0.602920,9.166799,-0.554175,-0.866325,-0.106399
07466,3.533292,-0.115605,8.723679,-1.268344,-0.830839,-0.272352
07467,4.313639,-0.777202,8.262998,-1.886953,-0.813533,-0.468760
07468,5.202204,-1.526920,7.781586,-2.410377,-0.768515,-0.625908
07469,5.391873,-3.435456,6.181318,-2.782333,-0.744247,-0.666035
07470,5.100727,-5.631476,5.421342,-2.763478,-0.816532,-0.610744
07471,4.195701,-7.573774,5.553004,-2.264017,-0.965670,-0.504882
07472,3.525198,-8.829461,6.670351,-1.280835,-1.250210,-0.368335
07473,3.493492,-9.415913,8.055157,0.049747,-1.558434,-0.238744
07474,4.338249,-9.098386,8.269446,1.437867,-1.881459,-0.070632
07475,5.423864,-7.274576,7.878187,2.632884,-2.083545,0.097902
07476,6.068818,-3.973123,8.739781,3.424574,-2.104920,0.161045
07477,6.568835,-0.363090,10.531315,3.680943,-1.923756,0.081419
07478,6.555510,2.893437,11.001134,3.276324,-1.617963,-0.077578
07479,5.721105,5.422617,10.530114,2.202911,-1.317589,-0.204638
07480,5.295515,7.326964,10.154738,0.657063,-1.055510,-0.443212
07481,5.489924,7.519927,9.560213,-1.161098,-0.858577,-0.675140
07482,6.319579,5.601084,9.134524,-2.772423,-0.709311,-0.848406
07483,7.201119,2.765321,8.711451,-3.882672,-0.565511,-0.945623
07484,7.786870,0.060060,8.211543,-4.448689,-0.470911,-0.967163
07485,8.122587,-2.310405,7.352959,-4.584701,-0.416453,-0.980728
07486,8.460153,-4.181558,6.615118,-4.381560,-0.405703,-1.044408
07487,8.533084,-5.429895,5.855150,-4.000132,-0.373510,-1.114511
07488,7.530820,-6.850316,3.971644,-3.625660,-0.397772,-1.051576
07489,5.633258,-8.873339,2.632458,-2.965459,-0.625704,-0.882751
07490,4.851356,-10.242582,3.793142,-1.792686,-1.004784,-0.835304
07491,5.441018,-10.602702,6.776674,-0.226475,-1.289924,-0.861184
07492,6.650880,-9.783691,8.051535,1.294893,-1.541501,-0.794913
07493,7.649214,-7.778222,7.403152,2.453992,-1.675948,-0.614365
07494,7.424821,-5.167763,6.850327,3.051586,-1.705242,-0.388168
07495,6.765042,-3.424898,6.345055,3.159647,-1.724481,-0.218871
07496,6.330208,-2.755643,6.250567,3.081440,-1.747730,-0.161889
07497,6.542336,-1.718087,7.948040,2.993306,-1.730928,-0.244558
07498,7.140462,0.051946,9.401018,2.660427,-1.564425,-0.414815
07499,7.071801,1.263294,9.121617,1.908341,-1.339573,-0.491804
07500,6.352718,2.213918,8.083543,0.820826,-1.132078,-0.633437
07501,5.584597,2.793043,6.994158,-0.433859,-0.987303,-0.878405
07502,5.527824,2.307979,6.538635,-1.703739,-0.986456,-1.132570
07503,6.656391,0.731890,6.582324,-2.754086,-1.026914,-1.303842
07504,7.656032,-0.768506,6.740076,-3.525110,-1.007248,-1.378412
07505,8.055323,-2.509327,6.556376,-4.025193,-0.980034,-1.370591
07506,8.297015,-4.477890,5.881360,-4.250675,-0.985393,-1.342044
07507,8.477965,-7.322599,4.476502,-3.957213,-0.993692,-1.296185
07508,8.581639,-10.094770,3.854747,-3.040941,-1.108401,-1.245310
07509,8.873943,-11.795406,4.226878,-1.477102,-1.230701,-1.157611
07510,9.462087,-11.478206,5.467579,0.376530,-1.376129,-1.033994
07511,9.916711,-9.562480,5.698532,1.930601,-1.428903,-0.802272
07512,9.429443,-6.792148,5.173287,2.967247,-1.407319,-0.527444
07513,9.189101,-4.328840,4.792767,3.404763,-1.411859,-0.289365
07514,9.247682,-2.671340,5.057022,3.426626,-1.360757,-0.112152
07515,9.592586,-1.075063,5.796452,3.141305,-1.258258,-0.047566
07516,9.827292,1.054956,6.760118,2.543248,-1.067795,-0.110533
07517,9.775785,3.434738,6.632529,1.412856,-0.884406,-0.156012
07518,9.626796,4.883584,5.654995,-0.165539,-0.691653,-0.165463
07519,9.118664,5.153642,5.074140,-1.826423,-0.543737,-0.220695
07520,9.086682,4.017582,4.904673,-3.319583,-0.472339,-0.291979
07521,9.470695,1.857522,4.631675,-4.404795,-0.422372,-0.287255
07522,9.708684,-0.350211,3.806339,-5.081264,-0.393772,-0.228575
07523,9.278539,-3.390348,2.188843,-5.169757,-0.379409,-0.095181
07524,8.657799,-6.434336,2.063608,-4.361222,-0.441379,-0.122378
07525,8.349903,-8.904294,2.398801,-2.920813,-0.577892,-0.168788
07526,8.447324,-9.977647,3.755709,-0.842888,-0.752632,-0.255527
07527,8.772746,-9.015587,4.387465,1.223184,-0.891049,-0.318743
07528,8.858665,-6.227334,4.332073,2.874202,-0.966422,-0.285314
07529,8.913792,-3.040655,4.086344,3.875521,-1.000479,-0.247845
07530,9.299329,-0.716138,4.143748,4.244804,-0.989951,-0.223056
07531,9.554045,1.336450,4.477536,4.144650,-0.915428,-0.243104
07532,9.789171,3.116445,5.101441,3.678350,-0.824124,-0.305584
07533,9.884356,4.696799,5.689286,2.802142,-0.691861,-0.377533
07534,9.932023,6.086200,6.046161,1.556306,-0.551521,-0.435946
07535,9.665736,6.599792,5.562179,0.022493,-0.427187,-0.492400
07536,9.419134,5.510065,4.610766,-1.588894,-0.337002,-0.514529
07537,9.236432,3.584595,3.939645,-2.913622,-0.284894,-0.577698
07538,9.703821,1.162815,3.617332,-3.792046,-0.256040,-0.625460
07539,10.269773,-1.161254,3.555975,-4.146273,-0.149632,-0.657660
07540,10.431459,-3.477770,3.215130,-4.024781,-0.024165,-0.686519
07541,10.203528,-5.665855,2.471314,-3.484637,0.032418,-0.652542
07542,9.724470,-7.353198,1.877719,-2.596117,0.026408,-0.589117
07543,9.359199,-8.396255,2.378302,-1.421533,-0.084564,-0.520394
07544,9.665159,-8.361475,3.074822,-0.078422,-0.207797,-0.451535
07545,10.015152,-6.706073,3.772666,1.174420,-0.274249,-0.378164
07546,9.848722,-4.013049,3.891694,2.029738,-0.270332,-0.271425
07547,9.360511,-1.796305,3.842916,2.386063,-0.267382,-0.170442
07548,9.044940,-0.614216,3.764712,2.352644,-0.288505,-0.094140
07549,8.723983,0.041273,3.521418,2.076919,-0.337547,-0.098174
07550,8.611425,0.062494,3.688486,1.702824,-0.391787,-0.157704
07551,8.778881,0.098072,4.406664,1.354838,-0.418860,-0.254462
07552,9.273751,0.670004,5.211761,0.982664,-0.370763,-0.399423
07553,9.380168,1.179569,4.818721,0.415472,-0.276086,-0.499524
07554,9.049244,1.469475,3.798782,-0.347939,-0.202819,-0.557443
07555,8.468794,1.224119,2.618010,-1.225454,-0.183304,-0.619134
07556,8.516493,0.103913,2.108351,-1.950086,-0.174099,-0.718306
07557,8.959869,-1.933693,2.020192,-2.282595,-0.144409,-0.806843
07558,9.542705,-4.212684,2.094062,-2.153659,-0.080403,-0.835146
07559,9.852899,-5.817290,2.140063,-1.611387,-0.020812,-0.798362
07560,9.971012,-6.673743,2.095824,-0.768013,0.034639,-0.708430
07561,10.032317,-6.634787,2.449891,0.180727,0.053920,-0.618877
07562,10.181447,-5.548812,3.008758,1.042283,0.059785,-0.440854
07563,10.254852,-3.852548,3.441081,1.611892,0.050694,-0.205475
07564,10.114796,-2.067884,3.347964,1.820096,0.062875,0.036352
07565,9.670604,-0.723762,3.107196,1.745800,0.064003,0.238845
07566,8.945467,0.561828,2.823058,1.468429,0.039460,0.334146
07567,8.389468,1.559736,2.872279,1.063341,-0.053967,0.299632
07568,8.146107,2.108007,2.725508,0.539557,-0.149365,0.197508
07569,7.751848,2.115971,2.837722,-0.026631,-0.258160,0.044125
07570,7.684572,1.417079,3.319517,-0.540084,-0.402151,-0.153074
07571,8.027554,0.135010,3.654662,-0.914812,-0.499937,-0.356890
07572,8.584983,-1.181644,3.601031,-1.090366,-0.563710,-0.546744
07573,8.985143,-2.022593,3.166730,-1.085204,-0.582786,-0.678142
07574,9.167090,-1.986894,2.780378,-1.008859,-0.579835,-0.721974
07575,9.263977,-1.336035,2.408847,-0.927669,-0.576524,-0.716543
07576,9.521498,-0.477810,2.162993,-0.905804,-0.542201,-0.666768
07577,9.874695,0.037640,2.319484,-0.999151,-0.490635,-0.553781
07578,10.320619,0.142869,2.375107,-1.181148,-0.432992,-0.391901
07579,10.836759,-0.128865,2.382290,-1.333359,-0.356611,-0.240022
07580,11.079538,-0.648535,2.410073,-1.430252,-0.262533,-0.120182
07581,10.928078,-1.117555,2.433536,-1.441643,-0.171260,-0.004742
07582,10.741592,-1.603550,2.496194,-1.376173,-0.121491,0.089422
07583,10.639438,-1.936478,2.516067,-1.226522,-0.073741,0.169897
07584,10.342372,-1.701432,2.267183,-1.061325,-0.039125,0.222631
07585,9.853786,-1.198121,2.048462,-0.920246,-0.031466,0.254882
07586,9.570199,-1.063072,2.153411,-0.799810,-0.053484,0.263565
07587,9.522246,-1.003114,2.256647,-0.685485,-0.091938,0.246405
07588,9.544078,-0.948737,2.353317,-0.570669,-0.120306,0.213355
07589,9.552580,-1.026126,2.498659,-0.459488,-0.127180,0.156216
07590,9.506821,-1.111229,2.435844,-0.354831,-0.136427,0.097175
07591,9.395864,-1.155359,2.371619,-0.257372,-0.134057,0.038033
07592,9.345557,-1.160303,2.344773,-0.163427,-0.138489,-0.001389
07593,9.424009,-1.138612,2.348357,-0.096414,-0.145259,-0.010394
07594,9.475680,-1.042101,2.332396,-0.056397,-0.131780,0.001065
07595,9.490030,-1.000370,2.377376,-0.030409,-0.117486,0.029500
07596,9.528715,-0.987089,2.355326,-0.017844,-0.107549,0.063329
07597,9.578817,-1.042675,2.372417,-0.005156,-0.096428,0.093493
07598,9.657805,-1.080945,2.306611,0.015888,-0.084330,0.126350
07599,9.670131,-1.048992,2.356652,0.043472,-0.070602,0.140295
07600,9.820903,-1.014515,2.385941,0.045438,-0.071092,0.151485
07601,9.837638,-1.048482,2.402926,0.045238,-0.048668,0.151917
07602,9.821979,-1.164075,2.398132,0.063789,-0.040597,0.141741
07603,9.806256,-1.242762,2.346378,0.092843,-0.030555,0.131318
07604,9.766970,-1.183356,2.383039,0.120248,-0.024814,0.125747
07605,9.769396,-1.094207,2.441248,0.119180,-0.021013,0.115405
07606,9.759413,-1.048732,2.442904,0.102477,-0.010871,0.110099
07607,9.693669,-0.988868,2.393773,0.072609,0.000061,0.109401
07608,9.687846,-0.968978,2.477669,0.028203,0.012083,0.113946
07609,9.647949,-0.950870,2.401762,-0.026215,0.019426,0.124058
07610,9.686135,-1.046685,2.406258,-0.064610,0.028526,0.138161
07611,9.774575,-1.013280,2.359977,-0.102201,0.040323,0.160140
07612,9.729777,-0.938544,2.320716,-0.140740,0.059524,0.185029
07613,9.704146,-0.864297,2.297522,-0.187698,0.076089,0.207536
07614,9.660008,-0.632966,2.354796,-0.253216,0.081331,0.216551
07615,9.742592,-0.831914,2.274291,-0.346849,0.089789,0.219958
07616,9.753353,-1.043413,2.208016,-0.358003,0.107726,0.216285
07617,9.645656,-1.089573,2.273444,-0.349689,0.123325,0.189640
07618,9.674790,-1.120952,2.277798,-0.362251,0.117380,0.172529
07619,9.667910,-1.342971,2.072481,-0.335163,0.125078,0.158462
07620,9.597051,-1.401789,2.011081,-0.266016,0.128414,0.129584
07621,9.560414,-1.462619,1.946807,-0.201161,0.122312,0.115999
07622,9.577210,-1.251619,1.940299,-0.149159,0.101294,0.105284
07623,9.613149,-1.173631,2.006779,-0.131971,0.097161,0.092281
07624,9.647380,-1.131111,2.120051,-0.136854,0.084193,0.078994
07625,9.697170,-1.045348,2.127521,-0.163609,0.084401,0.062745
07626,9.679598,-1.133902,2.122262,-0.200916,0.084283,0.060253
07627,9.621631,-1.112204,2.035949,-0.233089,0.078024,0.055973
07628,9.676534,-1.325384,1.908812,-0.232468,0.075487,0.050847
07629,9.717647,-1.443731,1.828339,-0.196911,0.060276,0.054265
07630,9.742478,-1.504479,1.842757,-0.141159,0.065853,0.054189
07631,9.756850,-1.447922,1.899143,-0.092865,0.056505,0.064502
07632,9.757681,-1.398125,2.013484,-0.067580,0.053569,0.071500
07633,9.723555,-1.328599,2.091094,-0.060899,0.051638,0.078790
07634,9.612531,-1.264949,2.108923,-0.059942,0.054636,0.076300
07635,9.528250,-1.253387,2.137047,-0.068742,0.046749,0.071098
07636,9.446898,-1.304094,2.127022,-0.081233,0.043957,0.060264
07637,9.427068,-1.326859,2.154231,-0.084260,0.030047,0.054620
07638,9.372767,-1.328431,2.143786,-0.091829,0.028191,0.043027
07639,9.389997,-1.318540,2.120242,-0.107059,0.025953,0.033452
07640,9.363445,-1.385675,2.158802,-0.121565,0.015086,0.024423
07641,9.448671,-1.487250,2.136254,-0.122423,0.010597,0.013301
07642,9.505703,-1.587017,2.189145,-0.101713,0.008275,0.003569
07643,9.509919,-1.680404,2.229953,-0.066664,0.004084,-0.004312
07644,9.524903,-1.587955,2.202580,-0.044979,-0.003480,-0.013991
07645,9.465808,-1.542652,2.234520,-0.032528,0.004145,-0.022477
07646,9.451611,-1.533289,2.252043,-0.018765,-0.007152,-0.029680
07647,9.498821,-1.596697,2.315731,-0.019805,-0.012565,-0.033775
07648,9.538100,-1.591274,2.344190,-0.022630,-0.014415,-0.039085
07649,9.562768,-1.597383,2.233755,-0.037304,-0.006873,-0.036203
07650,9.481987,-1.690088,2.304776,-0.033675,-0.003317,-0.029735
07651,9.616957,-1.698643,2.251871,-0.023878,-0.008733,-0.018476
07652,9.655742,-1.695107,2.281066,-0.015204,-0.002564,-0.012990
07653,9.654973,-1.680021,2.241176,-0.013517,0.003236,-0.004099
07654,9.631080,-1.690271,2.193347,-0.003776,0.006493,0.008026
07655,9.627889,-1.729119,2.240696,0.009244,0.015576,0.014553
07656,9.699440,-1.734097,2.269634,0.029283,0.016705,0.020214
07657,9.705046,-1.674345,2.219470,0.045747,0.024954,0.023454
07658,9.710411,-1.614719,2.170489,0.052893,0.038021,0.027269
07659,9.634901,-1.564794,2.225949,0.050619,0.045918,0.034428
07660,9.660581,-1.534550,2.272844,0.026757,0.051987,0.043586
07661,9.643208,-1.516590,2.256601,0.006905,0.055255,0.047663
07662,9.691377,-1.463937,2.312282,-0.021565,0.063054,0.050276
07663,9.712059,-1.445488,2.326258,-0.059695,0.062007,0.053275
07664,9.693645,-1.416062,2.270209,-0.099777,0.071504,0.056146
07665,9.671616,-1.525765,2.268671,-0.124541,0.073812,0.060955
07666,9.629594,-1.622604,2.212168,-0.116121,0.076550,0.066946
07667,9.585432,-1.556262,2.185809,-0.098435,0.071771,0.062385
07668,9.575152,-1.611027,2.204197,-0.079241,0.071430,0.070370
07669,9.565917,-1.580097,2.254747,-0.066510,0.074393,0.067431
07670,9.498505,-1.522197,2.180911,-0.045748,0.074792,0.067752
07671,9.465480,-1.485235,2.144146,-0.048351,0.076953,0.068798
07672,9.425544,-1.524061,2.199272,-0.035597,0.071274,0.064973
07673,9.471713,-1.544371,2.184408,-0.023750,0.061898,0.056798
07674,9.492476,-1.525841,2.198936,-0.016606,0.063916,0.053209
07675,9.523854,-1.522510,2.162441,-0.013778,0.062724,0.045136
07676,9.487891,-1.505306,2.130993,-0.009993,0.056268,0.037104
07677,9.519722,-1.500650,2.093948,-0.005205,0.055506,0.036613
07678,9.570883,-1.509873,2.111494,-0.013920,0.049739,0.034455
07679,9.520740,-1.499378,2.136481,-0.016763,0.048259,0.032526
07680,9.525962,-1.556813,2.135594,-0.023585,0.049233,0.032256
07681,9.452902,-1.570264,2.150993,-0.021498,0.040037,0.028704
07682,9.454266,-1.635312,2.115774,-0.011456,0.034574,0.022741
07683,9.482964,-1.667447,2.122406,0.001766,0.027597,0.023960
07684,9.469786,-1.723890,2.104624,0.021947,0.027299,0.016137
07685,9.445971,-1.733802,2.058708,0.052128,0.015863,0.014867
07686,9.442797,-1.641840,2.020189,0.066911,0.009958,0.011837
07687,9.454857,-1.616183,2.121767,0.074871,0.005036,0.008530
07688,9.507495,-1.635795,2.175637,0.067005,0.000655,0.004120
07689,9.511531,-1.611334,2.170352,0.055491,0.001743,-0.002496
07690,9.515684,-1.601336,2.204594,0.041228,0.003362,-0.007862
07691,9.526595,-1.630533,2.193631,0.029473,-0.005187,-0.008330
07692,9.578227,-1.735141,2.213967,0.022790,-0.011162,-0.009731
07693,9.596022,-1.833526,2.236800,0.024452,-0.005438,-0.000801
