// Start Time: Unknown
// Update Rate: 100.0Hz
// Filter Profile: human (46.1)
// Firmware Version: 4.3.5
PacketCounter,Acc_X,Acc_Y,Acc_Z,Gyr_X,Gyr_Y,Gyr_Z
20552,9.486038,-1.464881,2.468018,0.017364,0.021949,-0.015469
20553,9.505046,-1.422539,2.430721,0.009482,0.023820,-0.019141
20554,9.482545,-1.429437,2.428120,-0.000993,0.021828,-0.020226
20555,9.488554,-1.454449,2.450807,-0.013163,0.021197,-0.022916
20556,9.491693,-1.447984,2.428886,-0.022647,0.022632,-0.025202
20557,9.542471,-1.504011,2.426304,-0.029409,0.018361,-0.027719
20558,9.500887,-1.551238,2.462576,-0.026817,0.022225,-0.030307
20559,9.523145,-1.539856,2.468814,-0.024962,0.015184,-0.035426
20560,9.501111,-1.545905,2.465067,-0.021863,0.015905,-0.036661
20561,9.475738,-1.556516,2.485124,-0.020368,0.016192,-0.036507
20562,9.479299,-1.548865,2.462431,-0.017949,0.011986,-0.036643
20563,9.466966,-1.577007,2.455455,-0.018258,0.013485,-0.036548
20564,9.479755,-1.542866,2.464441,-0.021868,0.015907,-0.036669
20565,9.445139,-1.580476,2.452683,-0.022204,0.013510,-0.027497
20566,9.480026,-1.538032,2.466416,-0.024767,0.013538,-0.033994
20567,9.473966,-1.593761,2.479900,-0.029268,0.010728,-0.029929
20568,9.474112,-1.591903,2.480537,-0.031706,0.012984,-0.025257
20569,9.483823,-1.612566,2.478259,-0.028823,0.013408,-0.023398
20570,9.490158,-1.637918,2.499818,-0.019540,0.013638,-0.022550
20571,9.486808,-1.640986,2.524588,-0.010364,0.013717,-0.020156
20572,9.518557,-1.652774,2.527716,-0.006511,0.015623,-0.014948
20573,9.550236,-1.664731,2.531011,0.004470,0.014494,-0.012491
20574,9.547069,-1.631721,2.488383,0.012822,0.019217,-0.011345
20575,9.505244,-1.594936,2.491621,0.015705,0.019642,-0.009484
20576,9.533315,-1.611862,2.519374,0.018262,0.019613,-0.002986
20577,9.507774,-1.588381,2.472325,0.021050,0.021838,-0.004117
20578,9.501018,-1.560632,2.453942,0.019757,0.019902,-0.002829
20579,9.461923,-1.556131,2.501730,0.020832,0.021537,-0.001028
20580,9.487002,-1.541801,2.485140,0.013775,0.018748,-0.003466
20581,9.454690,-1.527968,2.485389,0.017530,0.022458,-0.001251
20582,9.435415,-1.531735,2.459056,0.014539,0.021881,-0.001570
20583,9.444678,-1.553245,2.458115,0.017497,0.016483,-0.004887
20584,9.466477,-1.543465,2.464916,0.014086,0.017252,-0.003565
20585,9.488303,-1.533651,2.471629,0.011626,0.015478,-0.007071
20586,9.491462,-1.528092,2.449457,0.010332,0.013542,-0.005781
20587,9.469122,-1.536248,2.445770,0.004772,0.011040,-0.008061
20588,9.513282,-1.517456,2.456705,0.001983,0.008814,-0.006930
20589,9.459853,-1.561258,2.416029,-0.003015,0.011092,-0.008764
20590,9.510331,-1.569302,2.447550,0.004211,0.006260,-0.008508
20591,9.532437,-1.559403,2.453231,0.002405,0.007468,-0.008572
20592,9.497836,-1.598743,2.440965,0.010704,0.004273,-0.006514
20593,9.484685,-1.580298,2.468305,0.015189,0.005141,-0.006034
20594,9.468722,-1.530131,2.451150,0.022214,0.001957,-0.007227
20595,9.503502,-1.573582,2.498079,0.025827,-0.000458,-0.007098
20596,9.487648,-1.523174,2.480607,0.019645,0.000031,-0.009189
20597,9.519555,-1.535173,2.483120,0.018489,0.004223,-0.005813
20598,9.488467,-1.569823,2.446960,0.017820,-0.000707,-0.004711
20599,9.482243,-1.542118,2.426505,0.015701,0.001998,-0.004682
20600,9.485152,-1.572752,2.471330,0.017820,-0.000707,-0.004712
20601,9.465803,-1.527389,2.477489,0.017618,0.000940,-0.006164
20602,9.479041,-1.543933,2.451124,0.017930,-0.000557,-0.006258
20603,9.510962,-1.556229,2.453436,0.017397,0.000643,-0.003073
20604,9.529788,-1.550958,2.482187,0.014069,-0.004422,-0.006925
20605,9.533455,-1.545036,2.458359,0.014198,-0.002331,-0.013015
20606,9.543355,-1.565910,2.455596,0.011436,0.001425,-0.008255
20607,9.504782,-1.560759,2.501253,0.019956,-0.001466,-0.009287
20608,9.530548,-1.545681,2.482563,0.023570,-0.003879,-0.009156
20609,9.486506,-1.562275,2.472776,0.021560,-0.001027,-0.010675
20610,9.527498,-1.547255,2.506737,0.027428,-0.000012,-0.008494
20611,9.486806,-1.559331,2.473485,0.029125,-0.001365,-0.006883
20612,9.499324,-1.526522,2.481800,0.033516,0.001300,-0.009407
20613,9.518199,-1.520149,2.510968,0.042348,-0.003085,-0.010532
20614,9.530835,-1.486695,2.519135,0.047254,-0.003561,-0.011697
20615,9.494265,-1.377825,2.609953,0.047472,-0.003267,-0.014792
20616,9.496657,-1.357262,2.689489,0.039297,0.001995,-0.022951
20617,9.392516,-1.060793,2.982471,0.031247,0.009336,-0.037205
20618,9.319983,-0.656244,3.175621,-0.055670,0.025256,-0.065735
20619,9.309654,-0.078533,3.489426,-0.243234,0.069851,-0.121506
20620,9.379045,0.043339,3.432117,-0.543938,0.122743,-0.177716
20621,9.513678,-0.312822,3.118046,-0.853509,0.172886,-0.202604
20622,9.504157,-0.766125,3.012382,-1.097835,0.222055,-0.222274
20623,9.420118,-1.163710,3.001673,-1.234405,0.239829,-0.236821
20624,9.454841,-1.731160,3.009350,-1.266088,0.249242,-0.247046
20625,9.550569,-2.593372,2.835790,-1.147710,0.243106,-0.245263
20626,9.425773,-4.054375,1.990786,-0.838139,0.219552,-0.209167
20627,9.050053,-5.965713,1.507982,-0.153833,0.148138,-0.169462
20628,8.789127,-7.341236,1.863350,0.906028,0.031753,-0.126193
20629,9.291305,-7.256279,3.030191,2.210194,-0.129491,-0.109408
20630,10.209545,-5.627339,3.266973,3.309673,-0.185049,-0.072748
20631,10.463707,-3.256121,2.825969,3.930983,-0.128156,0.005071
20632,10.284487,-1.274154,2.788597,4.047920,-0.026146,0.075899
20633,10.080384,0.252623,3.329873,3.789714,0.092210,0.073110
20634,9.870966,1.561059,3.806105,3.200508,0.205803,0.031791
20635,9.980797,2.754825,4.245641,2.313309,0.307967,0.017593
20636,10.111674,3.413848,4.320494,1.217041,0.451944,-0.023234
20637,10.151692,3.771983,3.873190,0.006931,0.584046,-0.100585
20638,9.815338,3.750740,3.412784,-1.190185,0.696808,-0.153764
20639,9.450314,3.036710,3.510741,-2.269844,0.741562,-0.160415
20640,9.413124,1.845668,3.808933,-3.161290,0.742441,-0.088194
20641,9.619484,0.104538,3.544003,-3.741992,0.741180,0.047123
20642,9.554713,-2.910272,2.323141,-3.843745,0.781172,0.192344
20643,9.037253,-6.555441,1.864418,-3.130101,0.768554,0.287686
20644,8.504701,-9.525860,1.712787,-1.668350,0.682780,0.336043
20645,8.435676,-11.250739,2.212290,0.384001,0.456635,0.383280
20646,9.266415,-10.389715,3.006253,2.547530,0.251310,0.380624
20647,10.133752,-7.281268,2.849916,4.226557,0.205632,0.391791
20648,10.371414,-3.479701,2.593011,5.112380,0.278247,0.457293
20649,10.228772,0.023221,3.168117,5.267289,0.430717,0.426578
20650,9.923230,2.869307,3.887854,4.727600,0.636332,0.303300
20651,9.377439,5.650272,4.914392,3.570371,0.797683,0.145967
20652,9.142196,7.931340,5.331912,1.784378,0.922106,0.016408
20653,8.767837,8.052432,5.393749,-0.308699,0.999759,-0.005525
20654,8.541816,6.032575,5.320207,-2.138401,1.019004,0.015387
20655,8.699882,3.162481,5.290240,-3.412828,0.989306,0.061612
20656,9.137294,0.533096,4.964193,-4.059320,0.961258,0.146020
20657,9.548662,-2.088472,4.211974,-4.095098,0.988242,0.169031
20658,9.376589,-4.880811,3.196383,-3.544372,1.042126,0.138285
20659,8.674367,-7.612719,2.026645,-2.531251,1.018391,0.161863
20660,7.865032,-9.083908,2.139467,-1.034730,0.874297,0.155715
20661,7.766188,-8.883773,2.810577,0.593422,0.636160,0.169024
20662,8.421657,-7.085675,3.771724,2.071708,0.437077,0.200363
20663,9.227341,-4.376252,4.485639,3.073051,0.379367,0.231388
20664,9.643967,-1.765280,4.817723,3.456688,0.410291,0.295205
20665,9.556382,0.327273,5.099237,3.358481,0.509222,0.296684
20666,9.211221,2.080831,5.606868,2.809678,0.620322,0.224479
20667,8.996476,3.382051,5.927511,1.926810,0.718823,0.126373
20668,8.772081,3.986030,5.773431,0.728082,0.801082,0.047594
20669,8.678554,3.481133,5.028289,-0.545206,0.850440,0.022351
20670,8.399212,2.374981,4.734733,-1.601487,0.853318,0.006546
20671,8.434640,0.961377,4.880324,-2.320631,0.827919,0.027366
20672,8.750181,-0.607581,4.850969,-2.657022,0.801633,0.072766
20673,9.052498,-2.374720,4.521929,-2.584308,0.807049,0.090281
20674,8.982802,-4.660262,3.758251,-2.105891,0.836446,0.090514
20675,8.336692,-7.013287,2.571643,-1.224773,0.784828,0.158518
20676,7.502641,-8.098936,2.556120,0.011332,0.634296,0.225162
20677,7.548086,-7.819906,3.527228,1.460705,0.386947,0.276471
20678,8.509493,-5.839708,4.700657,2.780527,0.259794,0.264504
20679,9.210748,-3.444667,4.970018,3.625232,0.247905,0.330234
20680,9.219248,-0.751972,5.456817,3.951807,0.339744,0.381374
20681,8.847185,1.733350,6.011451,3.684477,0.454336,0.350108
20682,8.314419,3.080441,6.250789,2.918560,0.564456,0.302242
20683,7.903106,3.878814,6.470058,1.829729,0.651232,0.152312
20684,7.918977,4.418768,6.358071,0.556161,0.710865,-0.016536
20685,7.998080,4.647553,6.151269,-0.735817,0.766646,-0.151977
20686,7.812451,3.740405,5.806140,-1.920349,0.796903,-0.194132
20687,7.840400,2.040455,5.962369,-2.788855,0.777882,-0.178465
20688,8.311609,0.025388,5.859189,-3.239217,0.765756,-0.163808
20689,8.794668,-2.361056,5.404942,-3.240561,0.780055,-0.140589
20690,8.504853,-5.345775,4.001398,-2.849542,0.806275,-0.004079
20691,7.387473,-7.626200,3.942502,-1.825892,0.736542,0.116737
20692,6.989825,-8.662036,4.487335,-0.389712,0.547436,0.169526
20693,7.391273,-8.486591,5.457150,1.275084,0.345933,0.264953
20694,8.302638,-6.193053,6.402332,2.762430,0.235388,0.303664
20695,8.690638,-3.363183,6.590581,3.692354,0.290780,0.389074
20696,8.300811,-0.607558,6.850531,3.954619,0.389256,0.445546
20697,7.871042,1.783597,7.387282,3.653360,0.489837,0.410478
20698,7.517264,3.037246,7.702670,2.862424,0.570951,0.353870
20699,7.185093,4.029722,8.249158,1.802514,0.679664,0.212624
20700,6.978024,4.994825,8.577360,0.572808,0.788881,-0.012830
20701,7.076306,4.870514,8.124211,-0.716747,0.871497,-0.176764
20702,7.365530,3.415906,7.523248,-1.846976,0.921073,-0.250763
20703,7.558801,1.433543,7.452631,-2.619228,0.949506,-0.260457
20704,7.967226,-0.600077,7.538672,-2.920879,0.981213,-0.236875
20705,8.217485,-2.558891,7.519763,-2.809924,1.011123,-0.196407
20706,8.378406,-4.345017,7.029687,-2.404313,1.027806,-0.098813
20707,7.874234,-6.298226,6.087112,-1.732039,1.034581,0.082482
20708,6.857269,-7.440700,6.144191,-0.676785,0.981866,0.205465
20709,6.452093,-7.683490,6.601889,0.580218,0.795074,0.284886
20710,6.995874,-6.543512,7.324572,1.817892,0.646665,0.358651
20711,7.818979,-4.286678,7.746782,2.688623,0.611037,0.435627
20712,7.875786,-1.952263,7.833998,2.984976,0.658500,0.523856
20713,7.530162,0.334252,8.258425,2.825383,0.751199,0.509782
20714,7.142586,2.443334,8.847503,2.216997,0.854043,0.398777
20715,6.847011,4.048611,9.187522,1.114890,0.908785,0.348581
20716,7.137177,4.769194,9.212323,-0.241083,1.007622,0.235616
20717,7.421640,4.487753,8.680897,-1.652321,1.160648,0.086152
20718,7.307989,2.393345,7.036042,-2.905666,1.272338,0.044773
20719,6.843517,-0.127782,6.195881,-3.665722,1.332328,0.019715
20720,6.753807,-2.357937,6.163171,-3.916793,1.334679,-0.004553
20721,6.843492,-4.739609,5.741059,-3.774965,1.312439,0.071329
20722,6.296338,-8.008220,4.367028,-3.231382,1.270562,0.322843
20723,4.987944,-10.269336,4.738405,-2.080679,1.104194,0.533940
20724,4.404707,-11.144483,5.932618,-0.481131,0.787404,0.635892
20725,5.477466,-10.147897,7.551024,1.356030,0.470201,0.666470
20726,6.662329,-7.417560,8.078297,2.836322,0.357362,0.714463
20727,6.770872,-4.501904,7.816808,3.678381,0.388919,0.838535
20728,6.049755,-1.627400,8.329123,3.899353,0.448868,0.864967
20729,5.549936,0.934994,9.198550,3.609748,0.551949,0.740229
20730,4.991535,2.514570,9.649931,2.841944,0.676528,0.605241
20731,4.860155,3.920569,10.195631,1.768449,0.791241,0.405667
20732,4.986035,4.780325,10.170464,0.448832,0.923771,0.189017
20733,5.302882,4.415881,9.391824,-0.924008,1.059837,-0.042168
20734,5.192123,2.890576,8.259862,-2.125521,1.176122,-0.176942
20735,5.082272,0.955509,8.311455,-2.915452,1.218022,-0.265264
20736,5.437112,-1.421774,8.413184,-3.335576,1.230709,-0.241164
20737,5.601177,-3.975301,8.270297,-3.334214,1.237025,-0.115655
20738,5.247530,-6.732245,7.538760,-2.938952,1.241804,0.097421
20739,3.840131,-9.850235,7.114020,-1.936337,1.171911,0.424085
20740,2.814516,-11.155799,8.379371,-0.243067,0.902203,0.574607
20741,3.225146,-10.155745,10.020824,1.777786,0.625510,0.632460
20742,4.303458,-7.092406,10.660813,3.505135,0.482263,0.691080
20743,4.898015,-3.472179,10.535195,4.556809,0.512800,0.763859
20744,4.992793,-0.263814,10.709258,4.816525,0.616644,0.758144
20745,5.088977,1.457862,10.395355,4.353104,0.754424,0.673891
20746,4.948160,2.836304,10.488651,3.494526,0.879542,0.497422
20747,4.696554,4.902976,10.770929,2.290469,1.027907,0.178892
20748,4.682974,6.322916,10.820296,0.764267,1.187579,-0.087072
20749,4.726045,5.890720,10.577269,-0.822626,1.331084,-0.219103
20750,4.704149,3.248485,10.192540,-2.088839,1.448083,-0.197572
20751,4.618091,-0.298019,9.843818,-2.783650,1.507503,-0.066079
20752,4.406235,-3.817123,9.355442,-2.800109,1.540515,0.131805
20753,3.965104,-6.794659,9.160588,-2.124966,1.485582,0.324927
20754,3.688513,-8.629922,9.047828,-0.924227,1.372580,0.498528
20755,3.512381,-8.957929,9.199071,0.633458,1.185873,0.631695
20756,3.830743,-7.928845,8.842415,2.114638,1.037308,0.743334
20757,3.758477,-6.109003,8.624977,3.293095,0.958550,0.872497
20758,3.861376,-3.784635,8.619122,4.072014,0.906148,0.921119
20759,4.093785,-1.484881,8.838858,4.391723,0.905420,0.906662
20760,4.213165,1.183520,9.589317,4.301614,0.953626,0.857633
20761,4.027793,4.385426,10.542454,3.707108,1.090051,0.700331
20762,3.443188,6.290048,10.324544,2.470737,1.241083,0.595236
20763,2.733603,6.242146,9.554094,0.872426,1.329670,0.537760
20764,2.293253,4.674153,8.935482,-0.626000,1.369704,0.420271
20765,2.356103,2.394549,8.220690,-1.677548,1.374569,0.258535
20766,2.365681,0.254812,7.572986,-2.195650,1.369640,0.169570
20767,2.007454,-1.880752,6.943235,-2.245358,1.348779,0.212924
20768,1.310411,-4.514651,6.784286,-1.745798,1.275995,0.341250
20769,0.612670,-6.477471,7.496281,-0.681814,1.092155,0.418652
20770,0.936916,-6.986702,8.524016,0.734648,0.804536,0.451426
20771,1.995801,-5.333835,8.930161,2.054532,0.589225,0.471850
20772,2.601326,-2.307029,9.007951,2.924103,0.521419,0.525705
20773,2.294576,0.335531,8.920540,3.189525,0.568137,0.555629
20774,1.682588,2.094226,9.081039,3.042905,0.609123,0.522990
20775,1.255948,3.461365,9.707424,2.604943,0.663554,0.403679
20776,1.139579,4.374092,9.797635,1.855888,0.720215,0.273606
20777,1.248386,5.083534,9.873225,0.951479,0.802084,0.116916
20778,1.205873,5.739194,9.897977,-0.024937,0.919137,-0.082716
20779,1.205092,6.295052,10.080420,-1.005327,1.004143,-0.282107
20780,1.550996,6.336283,9.863345,-2.051830,1.098085,-0.451165
20781,1.795837,5.279626,8.929882,-3.110646,1.211204,-0.505909
20782,1.202905,2.560989,8.008266,-3.957133,1.331307,-0.442412
20783,0.132368,-0.974282,7.794474,-4.254091,1.314275,-0.321161
20784,-0.117043,-4.097946,8.163448,-3.889413,1.163516,-0.225628
20785,0.257273,-6.216904,8.561808,-2.965583,0.977664,-0.101266
20786,0.616962,-6.805145,9.010935,-1.700887,0.806665,0.011934
20787,0.618081,-6.234721,8.914078,-0.424758,0.704123,0.132067
20788,0.064591,-5.175315,8.718086,0.622685,0.603535,0.267497
20789,-0.063718,-3.518761,9.156030,1.396095,0.490563,0.327179
20790,0.147646,-0.916928,10.022133,1.768255,0.474196,0.290636
20791,0.256511,1.429133,10.114409,1.611125,0.510758,0.271998
20792,0.052566,3.717912,10.595812,1.039475,0.637479,0.186882
20793,-0.080309,4.956193,10.236559,-0.009579,0.766765,0.079141
20794,-0.105107,5.291932,9.860916,-1.310834,0.889608,-0.033560
20795,-0.212247,5.060401,9.655264,-2.666633,0.999033,-0.120438
20796,-0.119379,4.119585,9.492853,-3.968901,1.051008,-0.148163
20797,0.115706,1.924043,8.692170,-5.044583,1.115025,-0.056097
20798,-0.467344,-1.563578,7.761015,-5.611496,1.178896,0.116032
20799,-1.690951,-6.125439,6.972228,-5.361391,1.146483,0.311197
20800,-2.865400,-10.729249,7.210975,-4.088481,0.945137,0.438605
20801,-3.031095,-14.411641,7.345574,-1.826133,0.571654,0.490729
20802,-2.119790,-15.313093,7.423553,1.097968,0.151162,0.477358
20803,-0.989648,-12.464639,6.613500,3.838231,-0.160092,0.503632
20804,-0.808195,-8.286550,6.524426,5.805637,-0.305901,0.546099
20805,-0.620806,-3.737030,7.491720,6.894395,-0.379802,0.521175
20806,-0.364706,0.738356,8.559266,7.034620,-0.325700,0.418591
20807,-0.501034,3.868158,9.278371,6.292734,-0.128395,0.362941
20808,-1.195472,6.592959,10.090592,4.942263,0.063869,0.251664
20809,-1.191781,8.223408,9.511738,3.037705,0.202349,0.105693
20810,-0.790292,8.882294,9.903862,0.998235,0.355681,-0.049067
20811,-0.226085,8.738604,10.676431,-0.940769,0.518811,-0.160655
20812,0.318738,7.478375,10.742813,-2.683031,0.704801,-0.162325
20813,0.107246,5.314223,9.900579,-4.075380,0.874794,-0.059328
20814,-0.536556,2.266206,9.094027,-4.950007,1.017904,0.037581
20815,-1.404986,-2.045137,7.479831,-5.200599,1.085568,0.184915
20816,-2.955070,-7.348600,7.335432,-4.373271,1.098214,0.324349
20817,-3.817484,-12.205586,7.714691,-2.480941,0.817739,0.354704
20818,-2.844738,-14.258117,8.453041,0.265313,0.439068,0.358268
20819,-0.977014,-11.958918,7.906454,2.966385,0.121575,0.364356
20820,-0.134327,-6.402069,7.442730,4.803536,0.052455,0.454191
20821,-0.811648,-0.893475,7.781569,5.488899,0.097915,0.488680
20822,-1.747086,3.798147,8.583572,5.111753,0.209908,0.421879
20823,-2.381444,6.349662,9.441191,3.906190,0.312083,0.382249
20824,-2.534980,8.117346,10.198186,2.106718,0.344301,0.392417
20825,-1.858598,8.941481,10.582071,0.112486,0.420684,0.362363
20826,-1.159444,8.709863,10.250822,-1.821387,0.583764,0.276688
20827,-0.852028,7.648889,9.206814,-3.529857,0.733972,0.226529
20828,-1.123202,5.671309,8.253459,-4.892201,0.888462,0.194921
20829,-1.679166,2.357838,6.942620,-5.787980,0.987621,0.206767
20830,-2.732109,-2.120562,5.844019,-5.942801,1.027290,0.276024
20831,-3.979866,-7.316045,5.554106,-5.042257,0.920620,0.324675
20832,-5.009526,-12.051552,6.670041,-2.996554,0.607898,0.315251
20833,-4.240787,-13.788164,8.353614,-0.117472,0.135453,0.216027
20834,-2.290353,-10.976724,8.045895,2.640696,-0.222089,0.145107
20835,-1.644730,-5.237985,7.513690,4.452241,-0.361847,0.153537
20836,-2.067875,0.217070,7.227818,4.980099,-0.400717,0.179705
20837,-2.818092,4.484977,7.985600,4.447143,-0.393543,0.162112
20838,-3.231560,7.674516,9.306630,3.025107,-0.351840,0.078836
20839,-2.665293,8.925089,10.025110,1.023493,-0.268297,-0.010911
20840,-1.716395,8.556675,10.312129,-1.021954,-0.090538,-0.121440
20841,-1.026668,7.095310,9.460760,-2.822456,0.133125,-0.200589
20842,-1.141667,5.453240,8.351187,-4.282631,0.308752,-0.221166
20843,-1.577481,3.972888,8.080407,-5.386731,0.438477,-0.250425
20844,-1.691302,2.805752,7.853939,-6.272803,0.476336,-0.257263
20845,-1.785002,2.094117,7.279103,-7.080403,0.515423,-0.207360
20846,-2.052722,1.291331,6.630452,-7.824085,0.557340,-0.185490
20847,-2.349561,-0.050661,6.135119,-8.389249,0.586529,-0.213386
20848,-2.389894,-1.113275,5.734939,-8.786918,0.597500,-0.262477
20849,-2.281737,-1.980601,4.839127,-9.129852,0.626899,-0.301946
20850,-2.236027,-2.694723,4.166658,-9.523429,0.667332,-0.302644
20851,-2.148318,-3.201068,3.434343,-9.981537,0.728822,-0.268945
20852,-1.878279,-3.858421,2.582586,-10.413452,0.815991,-0.259072
20853,-1.524833,-4.185214,1.596130,-11.023766,0.948612,-0.172001
20854,-1.456946,-4.308068,0.433572,-11.538863,1.144218,-0.098822
20855,-1.685014,-4.311089,-1.020641,-12.098084,1.316661,0.024822
20856,-1.967456,-4.440346,-2.964645,-12.662738,1.459865,0.184107
20857,-2.225343,-5.269203,-5.415186,-12.808204,1.557604,0.248043
20858,-2.438572,-7.515513,-7.837927,-12.551032,1.576911,0.239517
20859,-2.730715,-10.716561,-9.216142,-11.684418,1.478190,0.187494
20860,-3.160899,-13.382809,-9.932906,-10.216606,1.312679,0.127910
20861,-3.505325,-14.983223,-9.561308,-8.351745,1.072083,0.063525
20862,-3.443188,-15.238794,-8.776044,-6.431638,0.831744,0.023264
20863,-3.407580,-14.896123,-8.520589,-4.473829,0.713803,-0.030447
20864,-3.641622,-14.106964,-7.991260,-2.689270,0.551188,-0.130754
20865,-3.529533,-13.053907,-6.926739,-1.198989,0.400044,-0.207965
20866,-3.124046,-11.347209,-5.879247,-0.110981,0.319088,-0.231134
20867,-2.920302,-9.033738,-5.021482,0.355251,0.302464,-0.220353
20868,-2.767707,-7.006937,-4.257795,0.286700,0.341388,-0.182027
20869,-2.694197,-4.986775,-3.712915,-0.301853,0.411279,-0.111076
20870,-2.439238,-3.541537,-3.938605,-1.278729,0.523555,-0.028097
20871,-2.363971,-3.167283,-4.925239,-2.372052,0.663833,0.009955
20872,-2.659712,-4.856199,-6.429693,-3.281800,0.755843,0.029037
20873,-2.947006,-7.939272,-8.061731,-3.515859,0.787450,0.043445
20874,-3.467918,-10.481472,-8.913174,-2.987517,0.757604,0.030829
20875,-3.650225,-11.430488,-8.941877,-1.973413,0.660711,0.020341
20876,-3.391831,-10.971630,-9.060772,-0.810765,0.582828,-0.017338
20877,-3.561661,-10.879410,-9.435346,0.385290,0.477910,-0.132867
20878,-4.002990,-11.890421,-9.600047,1.689354,0.322842,-0.316092
20879,-3.906136,-13.136115,-8.209431,2.955901,0.011528,-0.377073
20880,-2.783440,-11.413974,-7.071978,4.092705,-0.099677,-0.317036
20881,-2.856645,-7.365597,-5.771660,4.444263,-0.157871,-0.215396
20882,-2.479694,-3.812503,-3.334032,3.705166,-0.247764,-0.094970
20883,-1.334378,-1.587158,-2.245035,2.384441,-0.096444,-0.004654
20884,-1.380094,-1.021006,-2.691825,0.823471,0.129073,-0.012733
20885,-1.830723,-3.107663,-3.853905,-0.620685,0.217059,-0.014197
20886,-2.241071,-6.800112,-5.158166,-1.394692,0.266484,0.007571
20887,-2.606933,-9.396205,-5.996123,-1.397026,0.279036,0.078932
20888,-2.448903,-9.557872,-6.415689,-0.985907,0.305730,0.125640
20889,-2.174505,-8.474581,-6.267824,-0.679563,0.314018,0.124346
20890,-1.800403,-7.503057,-5.742419,-0.586445,0.315977,0.087570
20891,-1.389913,-6.947202,-5.115343,-0.653138,0.345607,0.052142
20892,-1.336809,-7.206503,-5.546136,-0.560415,0.421970,-0.061564
20893,-1.988484,-8.740656,-6.374659,-0.309165,0.441633,-0.243166
20894,-2.312946,-10.482598,-7.289876,0.189414,0.295526,-0.323141
20895,-2.563883,-10.481151,-7.917179,0.893860,0.164277,-0.308033
20896,-2.783415,-9.010193,-7.976073,1.565509,0.007554,-0.258879
20897,-2.487899,-6.824154,-7.982936,1.917522,-0.167311,-0.214452
20898,-1.998419,-6.086550,-7.386958,1.859150,-0.316057,-0.193299
20899,-1.811712,-7.027441,-6.975451,1.783078,-0.363920,-0.148772
20900,-2.406904,-8.584601,-7.238872,1.963262,-0.399929,-0.110483
20901,-3.123094,-10.633705,-7.766627,2.492904,-0.494315,-0.103613
20902,-3.380792,-12.568538,-8.310211,3.412767,-0.676115,-0.098576
20903,-3.339137,-13.965568,-8.866916,4.766024,-0.872168,-0.112501
20904,-3.174949,-14.776917,-9.814823,6.466023,-1.062091,-0.130678
20905,-3.876058,-15.801494,-10.270105,8.419086,-1.253133,-0.144277
20906,-3.716675,-16.237857,-10.473356,10.441866,-1.616555,-0.094259
20907,-2.981636,-15.763707,-11.274686,12.646257,-1.823446,-0.074466
20908,-2.782464,-14.419407,-10.791941,14.826192,-1.990608,-0.035875
20909,-1.825813,-11.673379,-10.199610,16.843775,-2.108146,0.016030
20910,-0.772841,-8.046748,-9.989190,18.506911,-2.044555,0.045384
20911,-0.150615,-4.026217,-8.904609,19.729105,-1.877257,0.064036
20912,-0.011379,-0.509660,-7.430683,20.596506,-1.589157,0.006314
20913,-0.242609,2.280301,-5.241159,21.343165,-1.236071,-0.148395
20914,-0.439945,4.914814,-2.594435,21.668106,-0.874257,-0.278849
20915,-0.738452,8.528703,0.696892,21.063092,-0.650580,-0.334483
20916,-0.867704,13.639340,4.932471,19.279932,-0.480061,-0.335232
20917,-1.134359,18.660661,8.713646,15.747376,-0.353013,-0.265902
20918,-1.629865,21.343692,13.146103,10.805250,-0.112800,-0.007337
20919,-1.483741,21.857423,13.628135,5.407269,0.069355,-0.032094
20920,-1.194864,19.853351,10.305780,0.578709,0.232186,-0.160027
20921,-1.405163,15.512825,6.514982,-2.807138,0.374828,-0.278972
20922,-1.744732,9.408607,3.929842,-4.439265,0.446061,-0.336972
20923,-2.308563,1.319803,4.173844,-4.324832,0.577631,-0.294280
20924,-2.047470,-6.897793,6.197321,-2.494087,0.601994,-0.246502
20925,-1.791058,-12.476869,6.644600,0.374448,0.521497,-0.184210
20926,-1.431065,-12.160863,6.730341,3.821943,0.223203,-0.064088
20927,-1.091801,-4.506809,6.476335,6.439880,-0.044979,0.047523
20928,-1.008884,4.266999,7.012064,7.293673,-0.040279,0.196316
20929,-1.654452,9.916947,8.081672,6.597739,0.160794,0.326529
20930,-2.322394,12.574784,8.377825,4.887068,0.313796,0.412398
20931,-2.368185,10.767072,7.959957,3.053592,0.438004,0.466531
20932,-1.825267,7.272642,7.017436,1.904866,0.429253,0.435920
20933,-1.180205,5.377840,6.170039,1.505001,0.367214,0.403544
20934,-1.498065,5.832452,6.272585,1.486676,0.317985,0.318485
20935,-2.200496,7.575748,6.715082,1.360229,0.257092,0.222157
20936,-2.320222,9.018403,7.161413,0.993706,0.200709,0.159193
20937,-2.332717,8.565122,7.302715,0.528740,0.227253,0.145436
20938,-2.422462,7.355666,7.279782,0.264487,0.184991,0.111667
20939,-1.914982,5.647562,6.919988,0.250790,0.157310,0.112241
20940,-1.972812,4.420096,6.815750,0.574194,0.159042,0.101203
20941,-1.697229,4.453520,6.540346,0.991500,0.095491,0.110647
20942,-1.491139,5.556407,6.686905,1.205629,0.085340,0.159263
20943,-1.748901,7.176758,6.502564,1.103517,0.104933,0.233769
20944,-2.079703,8.275524,6.955445,0.783706,0.132691,0.284157
20945,-1.759051,8.384871,7.131247,0.343027,0.146510,0.308252
20946,-1.385013,8.075861,7.090825,-0.042309,0.158790,0.348348
20947,-1.685151,8.612789,7.380979,-0.385501,0.173782,0.360713
20948,-2.419653,9.756932,7.557583,-0.861386,0.170155,0.344044
20949,-2.427543,10.577220,7.723647,-1.512562,0.118650,0.292308
20950,-2.148330,11.167802,7.773878,-2.307035,0.114246,0.222586
20951,-2.412099,11.982016,7.831279,-3.291391,0.070335,0.196891
20952,-2.369134,12.830078,7.964574,-4.470317,0.029076,0.130283
20953,-2.048040,12.419087,7.294748,-5.813045,0.061094,0.073030
20954,-2.214641,10.224465,7.076559,-6.940758,0.109182,0.043118
20955,-2.150482,7.367222,7.195773,-7.570278,0.113048,-0.026326
20956,-1.366344,3.154352,6.217036,-7.569171,0.158143,-0.038000
20957,-1.527022,-2.093544,5.822130,-6.577841,0.302782,-0.076281
20958,-2.145382,-6.969069,5.757123,-4.573345,0.289474,-0.095439
20959,-2.295683,-9.543046,6.141954,-1.832439,0.063225,-0.113212
20960,-1.641338,-7.746661,6.247624,0.921588,-0.215125,-0.077741
20961,-1.262680,-2.708714,6.723167,2.864835,-0.326138,0.027989
20962,-1.512652,2.335781,7.565385,3.628874,-0.336419,0.165997
20963,-1.714053,6.857865,8.557420,3.173317,-0.336410,0.378223
20964,-1.458410,10.357019,9.073601,1.881284,-0.194423,0.491889
20965,-1.469015,12.474396,8.695310,-0.021627,-0.039984,0.486323
20966,-1.505323,12.942008,8.478116,-2.100756,0.071826,0.415117
20967,-1.223953,12.016660,7.629111,-3.984049,0.142210,0.256512
20968,-0.731062,9.915359,6.517745,-5.491625,0.209073,0.098654
20969,-0.431935,7.521527,5.178371,-6.579533,0.261691,-0.027632
20970,-0.438520,4.184837,3.793856,-7.239146,0.369175,-0.151350
20971,-1.312174,-1.365582,2.000347,-7.223671,0.470045,-0.184727
20972,-3.753414,-8.163780,3.189016,-5.759847,0.519617,-0.226799
20973,-4.685152,-13.434395,6.747889,-2.745126,0.151115,-0.357767
20974,-1.926665,-14.277086,7.848539,0.812646,-0.427995,-0.275695
20975,0.298914,-8.216017,7.992619,3.606549,-0.682361,-0.015232
20976,0.030464,-0.652342,8.156713,4.874952,-0.666465,0.241623
20977,-1.278854,4.389544,7.880498,4.799869,-0.539260,0.295021
20978,-2.585512,7.557803,8.243314,3.895759,-0.462000,0.184429
20979,-2.503404,9.145578,8.982236,2.347670,-0.477923,-0.018124
20980,-1.250718,9.310695,9.675028,0.505572,-0.458819,-0.217505
20981,0.155353,9.071729,9.750308,-1.453044,-0.399071,-0.374691
20982,0.538407,9.293857,9.638993,-3.492548,-0.249633,-0.501443
20983,0.430255,8.470599,8.991137,-5.478602,-0.137643,-0.566277
20984,0.017332,5.160551,7.825528,-6.992830,0.001077,-0.626268
20985,-1.054432,-0.222119,6.337465,-7.695170,0.117992,-0.636095
20986,-2.546445,-6.151220,5.672686,-7.246565,0.101075,-0.644166
20987,-3.789715,-11.502115,6.072612,-5.508123,-0.096073,-0.639865
20988,-3.307065,-14.144995,8.021256,-2.725569,-0.494759,-0.611177
20989,-0.799510,-13.076199,8.886211,0.126953,-0.877250,-0.480851
20990,0.141239,-9.170828,8.825663,2.271792,-0.981351,-0.264646
20991,-0.743971,-4.940891,8.983180,3.517680,-1.021549,-0.105100
20992,-1.261301,-0.795630,9.811839,3.892279,-1.040695,-0.099797
20993,-1.106847,2.468672,10.199207,3.332800,-0.982073,-0.144205
20994,-1.059300,4.403962,10.572711,2.051138,-0.856826,-0.229606
20995,-0.531930,5.365587,10.889746,0.400848,-0.733647,-0.399856
20996,0.356209,5.590636,10.634193,-1.462569,-0.593144,-0.501438
20997,0.978862,5.037735,10.465054,-3.281033,-0.458990,-0.512164
20998,1.310322,3.056169,9.619754,-4.851753,-0.323271,-0.491577
20999,1.242260,-0.876772,7.731291,-5.909891,-0.194440,-0.393398
21000,-0.568008,-6.071336,5.809094,-6.004287,-0.134787,-0.203795
21001,-2.315967,-10.265790,7.206887,-4.649702,-0.263027,-0.223711
21002,-1.572837,-13.250877,8.384525,-2.311561,-0.561416,-0.225716
21003,-0.434911,-13.666948,8.754246,0.389574,-0.828696,-0.086651
21004,0.034530,-10.825997,8.064355,2.638041,-1.013489,0.141274
21005,-0.095807,-7.628674,7.776938,4.137103,-1.135972,0.325727
21006,0.242706,-4.308935,7.761550,4.959588,-1.254823,0.422162
21007,1.020005,-0.615091,8.998518,5.131784,-1.225346,0.403610
21008,1.388931,2.342860,9.867599,4.558287,-1.053318,0.367987
21009,1.130698,4.468957,10.393087,3.369528,-0.855756,0.325260
21010,0.617883,6.244235,11.045582,1.747178,-0.660788,0.154453
21011,0.310658,7.144586,11.163533,-0.275369,-0.497641,-0.040455
21012,0.436152,6.272156,10.869437,-2.373384,-0.409210,-0.133102
21013,0.746530,3.727276,9.869402,-4.137722,-0.350158,-0.136466
21014,0.621804,-0.034328,8.447645,-5.233274,-0.321756,-0.040011
21015,0.194825,-3.958641,7.613296,-5.434142,-0.367348,0.012837
21016,0.012000,-8.262724,6.996471,-4.623185,-0.503953,0.065938
21017,0.108467,-11.518782,6.889546,-2.881725,-0.718208,0.074766
21018,0.660070,-12.767746,6.458730,-0.660625,-1.043190,0.126252
21019,0.957105,-11.188842,6.760645,1.540171,-1.332931,0.213294
21020,1.652422,-7.883508,7.864364,3.284485,-1.515161,0.263951
21021,2.081538,-4.237303,9.359412,4.443745,-1.498327,0.264397
21022,1.956461,-0.959459,10.130849,4.852275,-1.367590,0.242644
21023,1.449406,1.190212,10.242892,4.513955,-1.215136,0.218919
21024,1.014041,2.819093,10.135371,3.656910,-1.082417,0.123396
21025,0.884097,4.602043,10.285017,2.366667,-0.961747,-0.077076
21026,1.041226,6.500815,11.165711,0.675277,-0.866538,-0.242831
21027,1.649994,7.371627,12.086453,-1.306123,-0.801637,-0.332529
21028,2.528399,6.127541,12.055818,-3.211002,-0.687052,-0.355878
21029,3.072582,2.975836,10.575793,-4.726414,-0.577875,-0.334459
21030,2.737103,-1.185464,8.048601,-5.587865,-0.504524,-0.256703
21031,1.522064,-4.857965,6.725213,-5.571316,-0.552041,-0.211623
21032,0.512509,-8.320567,6.610181,-4.621635,-0.700030,-0.233207
21033,0.686366,-11.353246,7.539842,-2.809335,-0.947812,-0.285436
21034,1.912090,-12.589362,8.072255,-0.502247,-1.241508,-0.308497
21035,3.279811,-11.151737,7.948606,1.652330,-1.465389,-0.221023
21036,3.827654,-7.984463,8.063716,3.261469,-1.552928,-0.096620
21037,3.814803,-4.399471,8.959605,4.251595,-1.521335,-0.067505
21038,3.552310,-0.885635,9.728434,4.476312,-1.402080,-0.095723
21039,3.134479,1.459514,10.079558,4.004465,-1.261147,-0.110976
21040,2.800781,3.249796,10.335268,3.003077,-1.099229,-0.195903
21041,2.668631,4.637268,10.628012,1.555934,-0.960205,-0.319841
21042,2.875607,5.791169,11.490511,-0.155922,-0.854549,-0.449653
21043,3.822832,5.811597,11.971038,-1.964303,-0.753837,-0.543433
21044,4.830229,3.956507,11.245238,-3.592313,-0.605734,-0.549197
21045,5.381227,1.284448,9.786518,-4.758175,-0.476399,-0.539596
21046,5.059533,-2.414549,6.899732,-5.468893,-0.381928,-0.425156
21047,3.422013,-5.999642,5.367139,-5.373272,-0.407825,-0.262237
21048,1.962800,-9.211290,5.196855,-4.380372,-0.585144,-0.226867
21049,1.778752,-12.425735,6.508370,-2.407691,-0.845099,-0.219395
21050,2.784514,-13.641437,8.035487,0.215459,-1.161744,-0.243350
21051,4.726713,-12.213173,7.812201,2.666260,-1.433920,-0.147891
21052,5.392580,-8.549096,7.332706,4.545236,-1.527866,-0.004638
21053,5.454510,-3.858625,8.192377,5.619687,-1.478396,0.035785
21054,5.009540,-0.167343,8.566507,5.727908,-1.331214,0.004811
21055,4.427067,2.246089,8.772965,5.078581,-1.191756,-0.007471
21056,3.893434,4.566818,9.184634,3.784316,-1.064808,-0.122334
21057,3.812197,6.857782,10.259321,1.969426,-0.946206,-0.307509
21058,4.340454,7.938366,11.238877,-0.200258,-0.855749,-0.464725
21059,5.147316,6.733342,11.194602,-2.335131,-0.731131,-0.533284
21060,5.435295,3.889624,10.299138,-4.019122,-0.625749,-0.510270
21061,5.722886,0.836165,9.208867,-4.998672,-0.545624,-0.554093
21062,6.124101,-2.824666,7.276723,-5.299987,-0.476009,-0.587327
21063,5.704138,-6.391559,5.284180,-4.912280,-0.462112,-0.551302
21064,4.770120,-9.106812,4.961699,-3.806923,-0.565579,-0.510839
21065,4.173445,-10.883881,5.671413,-2.158327,-0.767393,-0.504223
21066,4.664830,-10.950624,7.412184,-0.202826,-1.017575,-0.496929
21067,5.647435,-9.441518,8.288453,1.587358,-1.191820,-0.455024
21068,6.143300,-6.955392,8.075547,2.859981,-1.241714,-0.336754
21069,6.020981,-4.487013,7.818560,3.500171,-1.262773,-0.223304
21070,5.985577,-2.100527,8.191874,3.634621,-1.225203,-0.199280
21071,5.801523,-0.420914,8.393957,3.263106,-1.137836,-0.227076
21072,5.735743,0.918840,8.960098,2.556115,-1.052248,-0.267686
21073,5.876651,2.742078,9.740127,1.579017,-0.892450,-0.406665
21074,5.886820,3.631001,9.641728,0.231439,-0.729468,-0.512804
21075,5.931363,3.596814,9.302410,-1.249299,-0.622157,-0.538410
21076,6.035553,2.930539,9.130725,-2.602101,-0.544864,-0.585450
21077,6.622918,1.387225,8.714443,-3.706437,-0.488431,-0.626754
21078,7.249699,-1.077930,7.572008,-4.415810,-0.430293,-0.581578
21079,7.232275,-4.090230,5.430983,-4.721624,-0.416656,-0.453676
21080,6.022481,-7.256029,4.237863,-4.314346,-0.478288,-0.277577
21081,5.083868,-9.581319,4.230374,-3.143171,-0.677906,-0.211849
21082,5.231456,-10.816096,5.859867,-1.249110,-0.879212,-0.244244
21083,5.945635,-10.848442,6.670665,0.811079,-1.070714,-0.263960
21084,6.664985,-9.724438,6.014587,2.619768,-1.242830,-0.127549
21085,6.828833,-6.813723,5.835258,3.987810,-1.321825,-0.039184
21086,6.786387,-3.135810,6.381536,4.713852,-1.278904,-0.079733
21087,6.738306,0.337852,7.201007,4.694309,-1.212671,-0.173256
21088,6.462298,3.008293,7.644438,3.920259,-1.069080,-0.259025
21089,6.138593,4.900478,8.285105,2.576889,-0.961063,-0.390079
21090,6.398784,6.241875,8.537533,0.811571,-0.844750,-0.598287
21091,6.513992,6.250676,7.966848,-1.244872,-0.772898,-0.721675
21092,6.879701,5.463440,7.842529,-3.184086,-0.760095,-0.809822
21093,7.753517,3.593752,7.471552,-4.784989,-0.733106,-0.857263
21094,8.744283,0.669027,6.176906,-5.849645,-0.673655,-0.844682
21095,8.669499,-3.542498,3.350163,-6.283771,-0.635855,-0.709194
21096,7.615221,-7.411596,2.328908,-5.675017,-0.666240,-0.617891
21097,6.732804,-10.501449,2.575510,-4.141043,-0.776334,-0.647236
21098,6.987798,-12.809571,3.898190,-1.774163,-1.002032,-0.669309
21099,7.957195,-12.311659,5.190518,0.861734,-1.217483,-0.686406
21100,8.495773,-9.596697,5.421264,3.067583,-1.290693,-0.608884
21101,8.169001,-5.875872,5.044458,4.476116,-1.297839,-0.511313
21102,7.915513,-2.537215,5.241429,4.955624,-1.285270,-0.406190
21103,7.915843,-0.070717,5.839416,4.680174,-1.250138,-0.342108
21104,7.982803,2.461532,6.799597,3.777590,-1.176962,-0.400701
21105,8.181323,4.726511,7.606897,2.269552,-1.059065,-0.481235
21106,8.608636,6.072714,8.033823,0.298884,-0.969706,-0.552086
21107,8.819019,5.416111,7.740703,-1.738511,-0.819374,-0.570774
21108,9.018539,3.176446,7.156402,-3.407259,-0.724317,-0.539829
21109,9.263683,-0.233355,6.136895,-4.363054,-0.628795,-0.471721
21110,9.255250,-4.064080,4.752146,-4.485657,-0.571054,-0.395836
21111,9.142895,-7.505727,3.905457,-3.609544,-0.576198,-0.357156
21112,9.023482,-9.931787,3.747649,-2.028827,-0.619954,-0.357362
21113,8.847561,-10.641909,4.221731,-0.034268,-0.706499,-0.340636
21114,8.942134,-9.168478,4.616063,1.828131,-0.840089,-0.284443
21115,9.232196,-6.457500,4.549825,3.174807,-0.882108,-0.188317
21116,9.106079,-3.552591,4.519903,3.831219,-0.882588,-0.071330
21117,8.982290,-0.944498,4.971644,3.854839,-0.851327,0.032446
21118,8.910856,1.337039,5.918102,3.358077,-0.768513,0.051964
21119,8.529009,3.044565,6.757042,2.449784,-0.634932,0.009078
21120,8.166029,3.963531,6.961641,1.201071,-0.517665,-0.054825
21121,7.847202,4.019888,6.518844,-0.206917,-0.449706,-0.123683
21122,7.726899,3.725065,6.002407,-1.593207,-0.404608,-0.226237
21123,7.835098,2.614784,5.573723,-2.800325,-0.396037,-0.293885
21124,8.133228,0.173889,4.780802,-3.574968,-0.399099,-0.309695
21125,8.219680,-3.444196,3.676816,-3.557865,-0.438521,-0.313177
21126,8.290752,-7.284879,2.689066,-2.650354,-0.532909,-0.326541
21127,8.271238,-10.072012,2.658399,-0.890795,-0.681038,-0.348293
21128,8.399371,-10.674796,2.705765,1.279180,-0.896168,-0.368209
21129,8.510849,-9.176527,1.803555,3.274499,-1.160955,-0.298963
21130,8.925940,-6.251602,1.506787,4.820557,-1.363228,-0.212585
21131,9.378140,-3.241104,1.905022,5.711194,-1.468376,-0.128096
21132,9.703146,-0.386952,3.011716,5.975737,-1.487088,-0.046844
21133,10.145803,3.570137,5.317353,5.653789,-1.359741,-0.126719
21134,9.793605,6.411536,6.135448,4.357833,-1.073824,-0.155060
21135,8.653989,6.794269,5.423979,2.393521,-0.920509,-0.072492
21136,8.007811,7.222881,5.105736,0.358600,-0.827234,-0.246578
21137,7.959682,7.278584,4.891903,-1.593732,-0.731366,-0.507004
21138,8.870736,5.118465,4.307384,-3.256482,-0.687777,-0.584664
21139,9.780575,1.588129,3.693278,-4.170523,-0.592114,-0.576150
21140,10.188317,-2.194241,3.164861,-4.245332,-0.500708,-0.549925
21141,9.591750,-5.512406,2.148440,-3.611991,-0.442415,-0.489245
21142,9.160780,-7.503057,2.374317,-2.240838,-0.538184,-0.476404
21143,9.149108,-7.819256,2.551140,-0.548898,-0.661234,-0.462242
21144,9.482220,-6.264312,3.461176,1.149952,-0.779004,-0.423976
21145,9.950543,-3.730254,3.971762,2.389582,-0.803189,-0.383703
21146,10.174424,-1.189886,3.727755,2.970069,-0.750911,-0.298304
21147,10.031567,1.224406,4.148165,2.853802,-0.671088,-0.205578
21148,9.996040,3.142808,4.423080,2.109626,-0.560161,-0.196304
21149,10.049912,4.507183,4.257228,0.887916,-0.448686,-0.221886
21150,10.070500,4.604768,3.810762,-0.578818,-0.354936,-0.266686
21151,9.977538,3.817709,3.218079,-1.936795,-0.257855,-0.292778
21152,9.822945,2.362591,2.832478,-2.954841,-0.215520,-0.281794
21153,9.808452,0.562589,2.931045,-3.498622,-0.173713,-0.275908
21154,9.792933,-1.278153,2.590345,-3.642606,-0.156891,-0.234791
21155,9.767559,-3.401882,1.731217,-3.311247,-0.194372,-0.191038
21156,9.399168,-5.340782,1.035168,-2.431108,-0.239485,-0.184902
21157,8.968325,-6.064354,1.031597,-1.173607,-0.365471,-0.217810
21158,8.839700,-5.668753,1.636191,0.279061,-0.529518,-0.246247
21159,9.182346,-3.574613,2.708322,1.476010,-0.636306,-0.275683
21160,9.417059,-0.815676,3.082001,2.060132,-0.678560,-0.263502
21161,9.770144,1.037900,3.093055,2.090406,-0.677855,-0.220275
21162,9.477241,2.796611,3.280578,1.564628,-0.603021,-0.239647
21163,9.160109,4.263913,2.959951,0.604807,-0.593485,-0.312453
21164,9.037160,4.884936,2.388515,-0.645571,-0.619816,-0.423133
21165,9.360540,4.198946,2.344823,-1.860739,-0.634106,-0.569165
21166,10.129195,2.181936,2.543099,-2.614916,-0.619021,-0.637016
21167,10.404464,-0.146159,2.908089,-2.723680,-0.513520,-0.708677
21168,10.304165,-1.899106,3.090273,-2.290620,-0.447287,-0.744782
21169,10.403392,-3.490122,2.488530,-1.600344,-0.419310,-0.739486
21170,9.976575,-4.710064,2.256744,-0.548925,-0.374226,-0.708898
21171,10.053298,-4.687636,2.467369,0.609310,-0.421887,-0.682235
21172,10.423320,-3.395664,2.504864,1.631418,-0.419610,-0.616609
21173,10.571586,-1.718214,2.597907,2.257861,-0.361785,-0.485235
21174,10.729414,-0.069312,3.006178,2.358710,-0.292365,-0.312862
21175,10.667914,1.498001,3.294123,2.048131,-0.140718,-0.158756
21176,10.710031,2.328311,3.158467,1.399733,-0.031324,-0.010267
21177,10.658358,2.447539,2.483225,0.601449,0.102057,0.107824
21178,10.131827,2.371384,1.789537,-0.149559,0.141763,0.161596
21179,9.634177,1.719734,1.646037,-0.784324,0.147850,0.159259
21180,9.334315,0.551962,1.690770,-1.156443,0.106951,0.131516
21181,9.345668,-0.466169,1.597167,-1.255093,0.055341,0.051785
21182,9.335558,-1.312257,1.706737,-1.121577,0.011610,-0.051833
21183,9.229565,-1.624523,1.874950,-0.891520,-0.045611,-0.124139
21184,9.294171,-1.457415,1.998699,-0.639682,-0.089627,-0.152835
21185,9.383462,-1.044007,2.089376,-0.429934,-0.111176,-0.159633
21186,9.626525,-0.506007,2.166398,-0.334148,-0.109941,-0.136030
21187,9.728085,-0.077017,2.340036,-0.357773,-0.081909,-0.096725
21188,9.956813,0.204693,2.314645,-0.486804,-0.062172,-0.065520
21189,9.875425,0.337229,2.202019,-0.663945,-0.019550,-0.027368
21190,9.845646,0.097636,2.158429,-0.826241,-0.001298,0.013249
21191,9.841167,-0.189230,2.115882,-0.961391,0.017999,0.041657
21192,9.905770,-0.266433,2.047697,-1.047632,0.014896,0.079876
21193,9.916901,-0.297102,1.900481,-1.102681,0.021902,0.098176
21194,9.861031,-0.343209,1.648979,-1.104271,0.009103,0.110757
21195,9.626199,-0.173860,1.607163,-1.056161,0.010355,0.128597
21196,9.481270,-0.148945,1.570675,-0.987884,-0.012966,0.133236
21197,9.515718,-0.239783,1.615907,-0.848738,-0.036907,0.117561
21198,9.695420,-0.124454,1.827027,-0.687147,-0.054521,0.092304
21199,9.975690,-0.059861,1.946645,-0.540442,-0.041444,0.065585
21200,10.107794,-0.107856,1.977975,-0.382842,0.014566,0.024651
21201,10.045551,-0.008637,1.958885,-0.204966,0.065005,-0.008687
21202,9.911392,0.221675,2.143220,-0.077499,0.101150,-0.031861
21203,10.005915,0.312020,2.095064,-0.031130,0.133078,-0.027321
21204,10.109062,0.292589,2.044637,-0.068158,0.176186,-0.004520
21205,10.003787,0.200656,1.926744,-0.144340,0.203254,0.033322
21206,9.953538,0.190676,2.091549,-0.231645,0.221128,0.059143
21207,9.961289,0.068088,2.304588,-0.337714,0.233985,0.075713
21208,9.918862,-0.143963,2.409176,-0.409653,0.250139,0.089254
21209,9.935108,-0.376449,2.370248,-0.437037,0.267891,0.092533
21210,9.770259,-0.572697,2.242775,-0.426447,0.288609,0.083828
21211,9.664477,-0.648595,2.203442,-0.395846,0.273070,0.094430
21212,9.545236,-0.755903,2.009933,-0.349608,0.266975,0.092114
21213,9.428258,-0.806592,1.966878,-0.266780,0.234859,0.077230
21214,9.459969,-0.939753,2.027601,-0.172126,0.208736,0.074626
21215,9.460787,-0.918591,2.073387,-0.081889,0.185950,0.076760
21216,9.515831,-0.724741,2.214744,-0.036128,0.163620,0.077539
21217,9.572448,-0.497908,2.234990,-0.045940,0.152984,0.078037
21218,9.631130,-0.496246,2.183477,-0.075933,0.150920,0.083728
21219,9.643270,-0.435524,2.033123,-0.105465,0.141019,0.090743
21220,9.589208,-0.473505,1.938191,-0.117572,0.132948,0.091123
21221,9.615383,-0.747378,1.852599,-0.089677,0.126672,0.080219
21222,9.562173,-0.954767,1.837704,-0.004084,0.123326,0.072150
21223,9.547069,-0.939650,1.849223,0.097301,0.095515,0.069246
21224,9.573977,-0.730754,1.957913,0.173881,0.076740,0.067991
21225,9.689446,-0.582546,2.094656,0.209756,0.067498,0.067160
21226,9.685897,-0.471690,2.063615,0.217604,0.066312,0.072399
21227,9.605528,-0.435506,2.064376,0.213125,0.058699,0.074926
21228,9.602570,-0.523529,2.037302,0.213519,0.039815,0.074335
21229,9.699344,-0.638624,2.019339,0.221624,0.026036,0.079244
21230,9.711434,-0.718836,2.042317,0.255837,0.011595,0.076592
21231,9.704654,-0.724641,2.092880,0.298488,-0.005384,0.076077
21232,9.729089,-0.541800,2.160816,0.322819,-0.028700,0.067687
21233,9.678971,-0.569822,2.052544,0.332126,-0.025989,0.060362
21234,9.587022,-0.650084,2.033844,0.364718,-0.034547,0.057655
21235,9.523317,-0.544026,2.055848,0.415877,-0.055706,0.063933
21236,9.578478,-0.255561,2.102742,0.432267,-0.062231,0.058414
21237,9.632857,-0.164434,2.159178,0.418129,-0.062797,0.058733
21238,9.613117,-0.173355,2.150789,0.416338,-0.056916,0.061606
21239,9.644137,-0.153652,2.076999,0.432891,-0.050706,0.049902
21240,9.638027,-0.010741,2.152822,0.431006,-0.043213,0.047998
21241,9.667675,0.180046,2.185456,0.395579,-0.035232,0.048585
21242,9.722566,0.156166,2.113885,0.343765,-0.018978,0.048168
21243,9.743901,0.170806,2.115040,0.291169,-0.009246,0.038234
21244,9.689669,0.225003,2.084555,0.230835,-0.001612,0.034172
21245,9.719881,0.216714,2.112013,0.171184,-0.000133,0.020707
21246,9.777112,0.197715,2.192349,0.101528,0.008154,0.011372
21247,9.822200,0.106210,2.048871,0.038146,0.022856,0.000878
21248,9.737715,0.058658,2.039775,-0.007776,0.032717,-0.014800
21249,9.665605,-0.065071,2.054785,-0.050644,0.029160,-0.022355
21250,9.692639,-0.160878,2.057778,-0.077814,0.025057,-0.025726
21251,9.671561,-0.227428,2.079738,-0.095369,0.020361,-0.028475
21252,9.623264,-0.228235,2.025705,-0.111348,0.009755,-0.031127
21253,9.665462,-0.258497,2.054877,-0.123701,0.003286,-0.033551
21254,9.684490,-0.388237,2.052047,-0.130552,-0.008046,-0.027707
21255,9.764269,-0.593337,2.127077,-0.126436,-0.005352,-0.029035
21256,9.755797,-0.626334,2.123423,-0.103873,-0.007215,-0.027549
21257,9.713470,-0.539176,2.070696,-0.088170,-0.012496,-0.028108
21258,9.702124,-0.572644,2.090773,-0.080222,-0.013538,-0.024422
21259,9.730089,-0.638604,2.163661,-0.074729,-0.012085,-0.017725
21260,9.700209,-0.628761,2.134537,-0.055417,-0.003766,-0.008486
21261,9.602846,-0.459972,2.128582,-0.042848,-0.009899,-0.006088
21262,9.635952,-0.439550,2.206305,-0.050103,-0.008721,0.002927
21263,9.699845,-0.515535,2.259233,-0.045885,-0.007603,0.006379
21264,9.745216,-0.547439,2.262918,-0.032261,-0.000806,0.012076
21265,9.693141,-0.440259,2.187363,-0.015987,0.003566,0.011608
21266,9.725720,-0.394932,2.169042,0.001964,0.002061,0.009642
21267,9.776628,-0.393457,2.200726,0.006162,0.011126,0.005221
21268,9.812597,-0.427158,2.279154,0.011838,0.018972,0.007226
21269,9.757728,-0.405551,2.177473,0.025354,0.032068,0.012951
21270,9.605755,-0.270302,2.093805,0.027317,0.031019,0.011493
21271,9.580137,-0.142945,2.148031,0.002808,0.022879,0.008212
21272,9.674034,-0.314485,2.179184,-0.020532,0.019759,0.014530
21273,9.728996,-0.509426,2.179918,-0.013477,0.024851,0.007116
21274,9.740858,-0.560642,2.108278,0.010444,0.034510,-0.010210
21275,9.725563,-0.624438,2.083204,0.033964,0.048761,-0.016459
