// Start Time: Unknown
// Update Rate: 100.0Hz
// Filter Profile: human (46.1)
// Firmware Version: 4.3.5
PacketCounter,Acc_X,Acc_Y,Acc_Z,Gyr_X,Gyr_Y,Gyr_Z
05273,9.633814,1.440839,1.459964,0.031912,0.010256,-0.008981
05274,9.645938,1.463208,1.460747,0.005804,0.007298,-0.013260
05275,9.610732,1.456515,1.483663,-0.013226,0.001304,-0.013913
05276,9.662608,1.398646,1.464414,-0.027697,-0.002573,-0.013294
05277,9.692820,1.297084,1.396337,-0.022364,0.007185,-0.008673
05278,9.655940,1.291048,1.444465,0.014746,0.019384,-0.018590
05279,9.663160,1.316207,1.518875,0.023683,0.009106,-0.019335
05280,9.679964,1.337151,1.446396,0.012151,0.003322,-0.015245
05281,9.679658,1.339080,1.446659,0.023182,0.007006,-0.019341
05282,9.646619,1.388142,1.492451,0.018776,0.004878,-0.013893
05283,9.634999,1.312018,1.420370,-0.005937,-0.005167,-0.013616
05284,9.680590,1.343080,1.422300,0.015646,0.002382,-0.012874
05285,9.673836,1.433082,1.444775,0.013373,0.020904,-0.013054
05286,9.589545,1.398214,1.515208,-0.012624,0.008942,-0.017292
05287,9.611215,1.330762,1.445919,-0.012104,0.003212,-0.016123
05288,9.645886,1.340270,1.423951,0.010561,0.005996,-0.015312
05289,9.643982,1.342508,1.448966,0.015536,0.011368,-0.012920
05290,9.635075,1.377218,1.448081,0.006724,0.004825,-0.010969
05291,9.680541,1.408412,1.450516,0.008068,0.003311,-0.016506
05292,9.661009,1.335979,1.500469,-0.007822,-0.000208,-0.018187
05293,9.693593,1.290338,1.455309,-0.018811,0.002789,-0.016366
05294,9.646007,1.262654,1.478182,0.008899,0.009814,-0.014270
05295,9.608952,1.342807,1.449822,0.020936,0.009884,-0.017185
05296,9.589201,1.356252,1.424366,-0.004287,0.005543,-0.018087
05297,9.641148,1.299073,1.405787,-0.008575,0.008956,-0.016025
05298,9.679572,1.277515,1.458982,0.030604,0.015103,-0.015734
05299,9.703815,1.321714,1.460388,0.037368,0.014382,-0.016597
05300,9.717338,1.344161,1.437139,0.034728,0.013986,-0.015572
05301,9.675276,1.426940,1.481787,0.042685,0.014042,-0.019748
05302,9.687540,1.506169,1.530016,0.027528,0.011462,-0.015821
05303,9.669638,1.433019,1.556108,-0.014665,0.001639,-0.016218
05304,9.693658,1.420556,1.509517,-0.023919,-0.000330,-0.016551
05305,9.721413,1.377488,1.537706,0.009416,0.008495,-0.024306
05306,9.664841,1.384585,1.559473,0.027062,0.020467,-0.029308
05307,9.697699,1.452858,1.610356,0.028880,0.021062,-0.034832
05308,9.689679,1.489475,1.586322,0.035580,0.028187,-0.036856
05309,9.772684,1.586181,1.567357,0.049295,0.040143,-0.036405
05310,9.850244,1.770783,1.546091,0.050643,0.047616,-0.035276
05311,9.902748,1.913857,1.526220,0.026368,0.073059,-0.053139
05312,9.801895,2.090396,1.522131,0.011374,0.099343,-0.071769
05313,9.800304,2.264877,1.650163,-0.067121,0.108082,-0.084949
05314,9.815609,2.315910,1.737628,-0.211858,0.112243,-0.096258
05315,9.841350,2.219995,1.711535,-0.327627,0.125357,-0.109763
05316,9.753599,2.243745,1.823976,-0.371331,0.144829,-0.137078
05317,9.869273,2.289855,2.003549,-0.424444,0.166857,-0.157969
05318,9.919402,2.348027,2.035295,-0.517084,0.182658,-0.170281
05319,9.996763,2.250697,2.026350,-0.600129,0.203710,-0.180900
05320,10.000283,2.168740,1.990084,-0.649233,0.234785,-0.195456
05321,10.027725,2.042129,2.032228,-0.672241,0.270049,-0.199767
05322,10.084587,1.904330,1.980645,-0.688817,0.294654,-0.201558
05323,10.106966,1.812078,1.976899,-0.686938,0.321102,-0.202413
05324,9.982750,1.697265,1.885967,-0.675621,0.334129,-0.211990
05325,9.920612,1.673387,1.998884,-0.656328,0.348615,-0.226709
05326,9.786348,1.720361,2.083241,-0.601910,0.371070,-0.249623
05327,9.663728,1.898664,2.199957,-0.580682,0.383571,-0.282095
05328,9.601359,1.894790,2.389630,-0.657554,0.371961,-0.276430
05329,9.650349,1.652097,2.381239,-0.775777,0.356124,-0.239432
05330,9.689495,1.260535,2.236040,-0.832737,0.357462,-0.192012
05331,9.719081,0.898359,2.110621,-0.807304,0.359075,-0.148352
05332,9.695258,0.590791,2.002270,-0.683862,0.373177,-0.115965
05333,9.715649,0.435594,2.033320,-0.506367,0.403141,-0.093339
05334,9.704257,0.458853,2.275178,-0.365071,0.423925,-0.064104
05335,9.552510,0.555358,2.333551,-0.322480,0.429436,-0.019773
05336,9.482957,0.517530,2.239892,-0.346535,0.399748,0.048722
05337,9.509932,0.379749,2.072347,-0.394316,0.372228,0.121518
05338,9.594460,0.141495,1.949497,-0.391958,0.353295,0.192201
05339,9.724591,-0.031691,2.063734,-0.327974,0.370356,0.258053
05340,9.721567,-0.129857,2.268215,-0.254858,0.393056,0.319478
05341,9.626945,-0.096037,2.450667,-0.215528,0.400870,0.378961
05342,9.554814,-0.143760,2.528380,-0.235737,0.402535,0.439851
05343,9.436410,-0.188870,2.548042,-0.248068,0.383551,0.508671
05344,9.360813,-0.275735,2.493710,-0.255685,0.378721,0.566733
05345,9.308053,-0.352571,2.569713,-0.237417,0.389600,0.635949
05346,9.313340,-0.487889,2.599709,-0.242077,0.382527,0.710084
05347,9.382065,-0.654061,2.688550,-0.249962,0.385846,0.790742
05348,9.507505,-0.766478,2.848300,-0.245239,0.407327,0.881057
05349,9.582413,-0.893281,2.900667,-0.237674,0.425270,0.976240
05350,9.655046,-1.056658,3.052028,-0.247614,0.434177,1.076469
05351,9.658897,-1.231040,3.015013,-0.264563,0.445582,1.172354
05352,9.572604,-1.298812,2.873793,-0.200576,0.451419,1.251408
05353,9.555193,-1.383135,3.048862,-0.183363,0.449115,1.323884
05354,9.521968,-1.394079,3.080049,-0.199362,0.461678,1.385044
05355,9.497849,-1.456175,3.032165,-0.246621,0.462115,1.452834
05356,9.473514,-1.526280,2.983431,-0.314239,0.462017,1.528280
05357,9.570686,-1.741170,3.073845,-0.374447,0.455404,1.614778
05358,9.690230,-1.933364,3.175314,-0.437464,0.461377,1.705410
05359,9.683754,-2.216895,3.210490,-0.483953,0.476770,1.788173
05360,9.657200,-2.503407,3.345611,-0.483107,0.506940,1.868279
05361,9.663454,-2.709678,3.505661,-0.424237,0.532926,1.936880
05362,9.648755,-2.775030,3.580628,-0.373512,0.544677,2.000552
05363,9.585815,-2.768788,3.575494,-0.368714,0.539714,2.049635
05364,9.534322,-2.831729,3.539016,-0.369239,0.527880,2.095727
05365,9.568136,-2.942729,3.574322,-0.375022,0.517261,2.140952
05366,9.686644,-3.069465,3.506802,-0.405320,0.508237,2.184052
05367,9.705838,-3.222330,3.457106,-0.444316,0.512992,2.228620
05368,9.697621,-3.437864,3.574393,-0.459551,0.518689,2.269096
05369,9.617374,-3.650309,3.670025,-0.470964,0.533125,2.296419
05370,9.486831,-3.814531,3.702317,-0.461316,0.532929,2.312162
05371,9.369013,-3.986950,3.790334,-0.441219,0.525123,2.326568
05372,9.263103,-4.064639,3.839711,-0.399417,0.517518,2.327496
05373,9.180706,-4.156889,3.869703,-0.349850,0.496719,2.318074
05374,9.203345,-4.269649,3.911493,-0.294695,0.470995,2.316551
05375,9.198111,-4.397510,3.968548,-0.242241,0.458090,2.310412
05376,9.108844,-4.493525,3.969773,-0.185805,0.453167,2.307698
05377,9.001815,-4.651661,3.960952,-0.129653,0.444824,2.316428
05378,8.900714,-4.813252,3.876502,-0.090584,0.435008,2.323767
05379,8.787267,-4.980982,3.760790,-0.059399,0.422555,2.327179
05380,8.631600,-5.164243,3.626101,-0.025363,0.393863,2.327783
05381,8.489715,-5.262691,3.445559,0.032076,0.361047,2.310103
05382,8.332546,-5.362096,3.443520,0.104009,0.332926,2.286762
05383,8.186788,-5.468414,3.498164,0.132232,0.298547,2.250615
05384,8.150178,-5.662584,3.384571,0.133988,0.253475,2.235390
05385,7.861565,-5.721485,3.424689,0.199624,0.274299,2.149045
05386,7.639797,-5.591338,3.838049,0.268535,0.257157,2.053388
05387,7.492159,-5.398367,3.953741,0.265686,0.229539,1.977098
05388,7.356368,-5.308551,3.828732,0.263473,0.207557,1.931286
05389,7.226382,-5.313695,3.706219,0.284368,0.185038,1.895831
05390,7.174686,-5.383002,3.702443,0.306012,0.170983,1.862723
05391,7.133023,-5.448214,3.863546,0.275777,0.177096,1.834762
05392,6.988667,-5.512956,3.949483,0.229670,0.200761,1.808851
05393,6.725105,-5.624532,3.957775,0.189453,0.218795,1.781809
05394,6.434650,-5.683132,3.946979,0.185276,0.213515,1.746593
05395,6.145294,-5.673689,3.980482,0.200705,0.190745,1.700388
05396,5.936510,-5.689950,3.914172,0.173574,0.140633,1.649598
05397,5.752691,-5.715254,3.743988,0.130060,0.069659,1.593279
05398,5.743352,-5.875220,3.586015,0.126701,0.007578,1.523989
05399,5.752919,-6.056618,3.574536,0.172990,-0.023129,1.474479
05400,5.704262,-6.179183,3.746575,0.217486,-0.027882,1.438533
05401,5.557165,-6.361795,3.970706,0.257429,-0.023293,1.418721
05402,5.351531,-6.497720,4.137276,0.265655,-0.025544,1.400533
05403,5.152221,-6.640251,4.229428,0.293385,-0.046954,1.369015
05404,5.053411,-6.637842,4.150142,0.367883,-0.058211,1.316969
05405,4.941966,-6.521992,4.235329,0.461616,-0.055592,1.250933
05406,4.812202,-6.445307,4.323406,0.515135,-0.069663,1.189356
05407,4.693336,-6.450869,4.217550,0.543120,-0.100735,1.143287
05408,4.671011,-6.608219,4.137024,0.573075,-0.121421,1.120511
05409,4.613115,-6.844479,4.256429,0.600491,-0.147529,1.112881
05410,4.630159,-7.175211,4.437997,0.612166,-0.178931,1.096520
05411,4.535056,-7.384616,4.518597,0.679603,-0.204089,1.057021
05412,4.585515,-7.301906,4.612068,0.808216,-0.192131,0.993378
05413,4.441926,-7.093205,4.758435,0.879755,-0.156986,0.946347
05414,4.145154,-7.040917,4.756832,0.894252,-0.147382,0.915753
05415,3.942406,-7.039632,4.787647,0.996893,-0.172334,0.872422
05416,3.949615,-7.008960,4.846275,1.138678,-0.204785,0.824641
05417,4.033055,-6.835686,4.890554,1.251989,-0.225723,0.799773
05418,4.067245,-6.700733,4.931591,1.339858,-0.249203,0.786607
05419,4.165969,-6.836571,5.219962,1.382121,-0.237651,0.781419
05420,3.979798,-7.096750,5.407876,1.448368,-0.223008,0.773010
05421,3.749592,-7.160360,5.429721,1.596486,-0.250366,0.739560
05422,3.776437,-7.091863,5.448369,1.748883,-0.246487,0.699198
05423,3.741545,-6.956540,5.450606,1.867741,-0.234739,0.660586
05424,3.662062,-6.776075,5.391035,1.994361,-0.232167,0.594273
05425,3.598504,-6.514688,5.387060,2.157477,-0.220586,0.543161
05426,3.480598,-6.273946,5.524606,2.271657,-0.241243,0.492581
05427,3.602659,-6.066037,5.532473,2.351302,-0.255514,0.448977
05428,3.688163,-6.013323,5.807427,2.459564,-0.244524,0.421284
05429,3.657600,-6.036039,6.172307,2.604557,-0.220911,0.401835
05430,3.720407,-6.029472,6.649192,2.815644,-0.201513,0.388140
05431,3.622809,-5.951190,6.892175,2.983755,-0.196708,0.376973
05432,3.707344,-5.934564,6.887065,3.140306,-0.223711,0.371388
05433,3.755779,-5.964921,6.725027,3.317400,-0.247638,0.338178
05434,3.731634,-5.678895,6.183858,3.492984,-0.251544,0.262928
05435,3.489042,-5.001596,5.999655,3.781373,-0.208341,0.172171
05436,3.534582,-4.045860,6.119236,3.955189,-0.218457,0.110883
05437,3.675048,-3.131383,6.549661,3.971946,-0.157957,0.065106
05438,3.508547,-2.309260,7.180499,3.898596,-0.079340,0.031157
05439,3.356828,-1.574273,7.663009,3.554156,-0.072157,0.031590
05440,3.447899,-0.981858,7.969765,3.050327,-0.084385,0.048121
05441,3.387695,-0.547394,8.189672,2.564043,-0.073546,0.071514
05442,3.456375,-0.316433,8.647833,2.081085,-0.081586,0.095954
05443,3.359269,-0.471087,8.866923,1.483737,-0.101109,0.137261
05444,3.422408,-0.966490,8.671624,0.952284,-0.156005,0.155885
05445,3.534019,-1.649118,8.462074,0.661055,-0.160492,0.143891
05446,3.552003,-2.191303,8.392965,0.573416,-0.138406,0.113793
05447,3.511029,-2.530440,8.501769,0.583849,-0.129909,0.083529
05448,3.495526,-2.767218,8.446478,0.635748,-0.134463,0.042831
05449,3.637706,-2.725506,8.460619,0.788578,-0.108640,0.003635
05450,3.627033,-2.442175,8.834541,0.931066,-0.071571,-0.023260
05451,3.510170,-2.123121,8.984598,0.900639,-0.090284,-0.047980
05452,3.618670,-1.834378,8.799329,0.802528,-0.109562,-0.072001
05453,3.525033,-1.491148,8.644270,0.723238,-0.106609,-0.098626
05454,3.679932,-1.006621,8.609476,0.593665,-0.086006,-0.130855
05455,3.600659,-0.595835,8.729942,0.343089,-0.054814,-0.150823
05456,3.630916,-0.234388,8.607559,-0.037309,-0.051472,-0.185860
05457,3.705013,-0.011493,8.613691,-0.521486,-0.018967,-0.203762
05458,3.592153,-0.130733,8.663717,-1.074724,-0.016245,-0.206899
05459,3.641651,-0.462486,8.456826,-1.597246,-0.036501,-0.210577
05460,3.725694,-0.825989,8.365866,-2.017542,-0.016572,-0.226681
05461,3.720395,-1.129143,8.261805,-2.362706,0.019220,-0.261827
05462,3.607870,-1.390567,8.277948,-2.693278,0.028818,-0.280078
05463,3.534064,-1.825529,8.002223,-3.042624,-0.010697,-0.291864
05464,3.654895,-2.448069,7.651392,-3.327181,-0.021491,-0.286291
05465,3.836276,-3.169813,7.484639,-3.411298,0.005254,-0.285328
05466,3.859095,-3.823367,7.415751,-3.384493,0.032058,-0.277382
05467,3.791616,-4.349546,7.400009,-3.351776,0.017704,-0.282909
05468,3.812403,-4.788668,7.259423,-3.288557,0.003805,-0.296053
05469,3.794380,-5.323824,7.156213,-3.225938,-0.030022,-0.285421
05470,3.700326,-6.027386,6.839346,-3.239768,-0.083250,-0.257235
05471,3.666767,-6.878458,6.066459,-3.201669,-0.127739,-0.213001
05472,3.612852,-7.836934,5.455848,-2.915332,-0.096316,-0.166727
05473,3.525198,-8.079551,5.527010,-2.321678,-0.027111,-0.169397
05474,3.600756,-7.186911,6.432920,-1.976259,0.035096,-0.183719
05475,3.636923,-6.293864,7.063823,-2.057586,0.042645,-0.197767
05476,3.684347,-5.841378,7.328212,-2.259604,0.018430,-0.177848
05477,3.774855,-5.978106,7.319492,-2.494334,-0.032983,-0.118311
05478,3.959557,-6.683613,6.865279,-2.625516,-0.073129,-0.045178
05479,3.984880,-7.382120,6.237781,-2.550930,-0.056398,-0.014353
05480,3.952434,-7.708468,5.849864,-2.328439,-0.017241,-0.022581
05481,3.885520,-7.559549,5.761790,-2.156718,0.022273,-0.052183
05482,3.813045,-7.218675,5.737483,-2.120633,0.040474,-0.079634
05483,3.784776,-7.148472,5.563677,-2.174232,0.019778,-0.091024
05484,3.842448,-7.366394,5.245412,-2.201605,-0.011520,-0.084827
05485,3.904719,-7.811439,4.998235,-2.157042,-0.017350,-0.061870
05486,3.860629,-8.220582,4.749451,-2.061091,-0.032443,-0.041100
05487,3.843770,-8.424979,4.542699,-1.858133,0.000385,-0.039399
05488,3.900360,-8.340908,4.872914,-1.588468,0.050217,-0.059376
05489,3.951521,-8.114126,5.279274,-1.478192,0.063539,-0.062697
05490,3.945080,-8.030636,5.162911,-1.404255,0.070504,-0.071307
05491,3.900236,-7.857127,5.047886,-1.244758,0.094369,-0.088560
05492,3.897170,-7.636545,5.138671,-1.119136,0.108792,-0.114437
05493,3.911763,-7.519822,5.015077,-1.022001,0.125245,-0.155850
05494,3.985755,-7.362842,4.753055,-0.906174,0.143775,-0.195716
05495,4.038995,-7.295890,4.604485,-0.787683,0.168884,-0.225636
05496,4.122071,-7.267542,4.514547,-0.695553,0.190531,-0.244436
05497,4.218315,-7.283365,4.450648,-0.611908,0.229543,-0.247023
05498,4.256314,-7.306817,4.404445,-0.544213,0.254023,-0.258974
05499,4.327912,-7.336125,4.483364,-0.488197,0.283450,-0.269457
05500,4.343047,-7.363853,4.363504,-0.434933,0.296114,-0.285564
05501,4.402683,-7.310626,4.298640,-0.359723,0.322842,-0.309318
05502,4.326267,-7.048659,4.252574,-0.272123,0.351308,-0.362838
05503,4.318045,-6.549097,4.316973,-0.200808,0.389532,-0.449003
05504,4.406993,-5.831749,4.401575,-0.166172,0.420039,-0.572730
05505,4.475627,-5.140844,4.731921,-0.176257,0.472907,-0.714058
05506,4.716808,-4.702231,5.213340,-0.287580,0.513088,-0.856387
05507,4.931748,-4.724271,5.302219,-0.567441,0.525836,-0.938594
05508,4.944627,-5.376123,4.841764,-0.794058,0.541505,-0.985011
05509,4.828775,-6.144800,4.252420,-0.772683,0.577836,-1.008261
05510,4.629905,-6.634327,3.703703,-0.537234,0.611000,-1.040654
05511,4.549366,-6.616301,3.444056,-0.206490,0.613679,-1.109936
05512,4.708211,-6.149679,3.520667,0.031372,0.585732,-1.210007
05513,5.093220,-5.747164,3.744972,0.100133,0.562194,-1.323148
05514,5.574455,-5.744129,4.081721,0.027449,0.573962,-1.396552
05515,5.845312,-6.152685,4.281214,-0.113252,0.623459,-1.422733
05516,5.732964,-6.749037,4.164918,-0.180072,0.662496,-1.421385
05517,5.463652,-7.242479,3.843329,-0.052769,0.654510,-1.427248
05518,5.284644,-7.196823,3.520158,0.222699,0.587697,-1.475055
05519,5.320581,-6.571747,3.289633,0.465940,0.491998,-1.580226
05520,5.613630,-5.810288,3.064106,0.601527,0.372780,-1.732735
05521,6.229454,-5.142073,3.230767,0.634182,0.300045,-1.895458
05522,6.915949,-4.857241,3.755222,0.504179,0.289131,-2.019054
05523,7.523279,-5.131873,4.521139,0.189610,0.342058,-2.057192
05524,7.530193,-5.978701,5.025464,-0.117075,0.423945,-2.024994
05525,7.115449,-6.714632,4.998655,-0.183565,0.481189,-1.968665
05526,6.529473,-6.910942,4.708758,-0.056813,0.473809,-1.938816
05527,6.266000,-6.568507,4.185511,0.055074,0.371614,-1.922405
05528,6.427201,-6.008354,3.709803,0.092891,0.237179,-1.946409
05529,7.005894,-5.478819,3.295686,0.089671,0.112717,-1.998631
05530,7.623170,-5.185842,3.080759,0.075855,0.083783,-2.090697
05531,7.873598,-5.231912,3.315901,0.021131,0.120726,-2.186599
05532,7.910416,-5.520464,3.739339,-0.038975,0.164400,-2.252557
05533,7.907804,-5.691180,4.189007,-0.037853,0.202584,-2.268944
05534,7.855003,-5.792736,4.383395,-0.019943,0.193120,-2.259777
05535,7.882451,-5.739991,4.284781,0.029747,0.133362,-2.233884
05536,8.060612,-5.601546,4.074300,0.111820,0.059199,-2.224069
05537,8.279915,-5.281372,3.864691,0.200833,-0.029249,-2.240152
05538,8.349365,-4.830274,3.747434,0.309243,-0.085010,-2.307529
05539,8.238496,-4.444248,3.612956,0.382048,-0.124485,-2.404078
05540,8.229363,-4.300193,3.516997,0.380345,-0.171519,-2.483902
05541,8.347081,-4.296863,3.669013,0.361671,-0.200209,-2.527726
05542,8.555697,-4.190365,3.957256,0.384691,-0.228256,-2.540746
05543,8.852387,-4.029163,4.377692,0.350283,-0.231449,-2.536557
05544,9.073802,-3.942369,4.578194,0.254217,-0.220058,-2.519626
05545,9.027429,-3.872534,4.631873,0.189966,-0.210283,-2.499294
05546,8.993330,-3.823205,4.298046,0.177839,-0.258313,-2.482045
05547,9.155918,-3.770076,4.088198,0.223780,-0.324891,-2.475566
05548,9.175356,-3.730754,3.852215,0.270603,-0.372026,-2.490425
05549,8.893525,-3.524810,3.740598,0.335868,-0.398026,-2.508869
05550,8.696805,-3.354590,3.640949,0.375997,-0.448561,-2.518610
05551,8.863336,-3.304676,3.555185,0.368878,-0.502062,-2.487236
05552,9.249231,-3.345012,3.520040,0.373424,-0.534668,-2.432706
05553,9.637705,-3.285175,3.580176,0.435591,-0.526237,-2.372499
05554,9.891047,-3.136223,3.650184,0.487753,-0.511494,-2.309581
05555,9.913878,-2.962527,3.897617,0.515387,-0.494067,-2.246970
05556,9.732747,-2.721835,3.995257,0.486578,-0.498607,-2.188085
05557,9.401087,-2.439106,3.937608,0.440463,-0.518044,-2.138983
05558,9.064841,-2.184504,3.692407,0.396980,-0.529431,-2.091147
05559,8.826994,-1.964939,3.647203,0.388137,-0.544819,-2.023174
05560,8.846283,-1.786257,3.749640,0.416281,-0.546333,-1.937991
05561,8.871753,-1.447728,3.949840,0.459026,-0.482414,-1.821648
05562,8.770455,-1.173798,4.233982,0.451654,-0.390115,-1.694293
05563,8.707854,-0.923062,4.405961,0.340905,-0.332012,-1.553447
05564,8.733850,-0.913207,4.403510,0.137211,-0.291541,-1.401358
05565,8.822541,-1.212374,4.013176,0.003006,-0.265287,-1.249988
05566,8.841570,-1.372369,3.426554,0.040212,-0.227085,-1.116501
05567,8.777915,-1.287335,3.193259,0.206803,-0.226602,-1.013238
05568,8.929371,-0.983312,3.133592,0.276468,-0.307124,-0.929520
05569,9.646326,-0.805789,3.157389,0.221216,-0.414705,-0.864265
05570,10.269171,-0.647893,3.132778,0.195839,-0.454166,-0.834763
05571,10.491185,-0.548316,3.254747,0.198996,-0.439041,-0.809495
05572,10.323624,-0.494273,3.382429,0.110698,-0.439402,-0.766573
05573,9.924725,-0.700609,3.253185,0.002338,-0.469216,-0.715546
05574,9.524170,-0.853732,3.191841,0.124966,-0.485062,-0.687036
05575,9.197301,-0.570059,3.625861,0.387926,-0.466746,-0.650422
05576,8.885841,-0.085032,3.883070,0.562974,-0.436024,-0.593492
05577,8.697636,0.471899,4.086028,0.608564,-0.439543,-0.520067
05578,8.887897,0.855882,4.109812,0.503412,-0.444776,-0.432754
05579,9.104798,0.958793,3.974360,0.279628,-0.431469,-0.315198
05580,9.178162,0.695809,3.651353,0.124034,-0.406099,-0.208544
05581,9.164472,0.521625,3.308714,0.163467,-0.369422,-0.128273
05582,9.034821,0.528448,3.061374,0.247168,-0.341304,-0.072161
05583,8.963629,0.678029,2.886503,0.338564,-0.341996,-0.038294
05584,9.019928,0.899586,2.831042,0.432149,-0.344522,-0.019060
05585,9.105021,1.175067,2.738645,0.529536,-0.345460,-0.009377
05586,9.239903,1.417822,2.773318,0.564984,-0.348164,-0.002930
05587,9.445503,1.550586,2.695003,0.511790,-0.372509,0.009154
05588,9.640343,1.587356,2.567873,0.448214,-0.383787,0.024232
05589,9.744955,1.629758,2.549566,0.430591,-0.377856,0.036118
05590,9.711332,1.670224,2.554060,0.420707,-0.372398,0.047436
05591,9.719626,1.755827,2.625701,0.379180,-0.378710,0.056116
05592,9.684842,1.860553,2.692939,0.310710,-0.371196,0.063144
05593,9.724369,1.881482,2.735703,0.220284,-0.385069,0.086373
05594,9.780823,1.854670,2.699807,0.084283,-0.387129,0.124329
05595,9.754411,1.629637,2.593637,0.002053,-0.381357,0.157104
05596,9.716025,1.447229,2.545680,0.020858,-0.360670,0.176262
05597,9.651631,1.396088,2.567750,0.090538,-0.332600,0.198430
05598,9.662452,1.402802,2.664445,0.125027,-0.311607,0.212995
05599,9.765452,1.482496,2.739231,0.162194,-0.298288,0.231363
05600,9.888761,1.537486,2.763314,0.226863,-0.275739,0.240094
05601,9.928951,1.708325,2.817295,0.302026,-0.251955,0.233943
05602,9.877328,1.810491,2.895777,0.347625,-0.225775,0.201623
05603,9.766506,1.846081,2.929542,0.431492,-0.212158,0.173760
05604,9.608501,1.936106,2.837438,0.559506,-0.207262,0.178970
05605,9.553217,1.924637,2.869145,0.626007,-0.215347,0.200566
05606,9.493666,1.828525,2.787502,0.646942,-0.237906,0.214974
05607,9.461476,1.810112,2.519774,0.675924,-0.255950,0.205870
05608,9.609130,1.942202,2.295641,0.707599,-0.243894,0.187082
05609,9.715640,2.139026,2.271766,0.681811,-0.195943,0.162993
05610,9.697051,2.269916,2.348805,0.578025,-0.181180,0.140665
05611,9.696583,2.234597,2.216428,0.429252,-0.179860,0.126866
05612,9.749086,2.126833,2.014944,0.318622,-0.162300,0.119548
05613,9.639900,1.992959,1.942502,0.230930,-0.139352,0.118258
05614,9.604856,1.830710,1.807778,0.149902,-0.131516,0.120844
05615,9.531370,1.666374,1.793786,0.060354,-0.139076,0.136500
05616,9.520171,1.355139,1.800701,-0.059624,-0.169018,0.145857
05617,9.480109,0.949452,1.596593,-0.148486,-0.196563,0.160545
05618,9.392129,0.672407,1.419423,-0.033432,-0.218807,0.166686
05619,9.500120,0.802279,1.375451,0.203029,-0.200856,0.165962
05620,9.526558,1.256888,1.670626,0.313376,-0.142422,0.159688
05621,9.454104,1.558177,1.869195,0.273399,-0.085017,0.162069
05622,9.325026,1.736709,1.980643,0.208078,-0.051498,0.143892
05623,9.239878,1.746715,2.160365,0.153466,-0.056336,0.128607
05624,9.324113,1.688646,2.206657,0.072600,-0.100989,0.124329
05625,9.449929,1.453008,1.971424,0.008650,-0.127212,0.115245
05626,9.596961,1.260725,1.741031,0.066315,-0.120869,0.107423
05627,9.658666,1.363098,1.718962,0.209076,-0.099258,0.089088
05628,9.761139,1.582769,1.931339,0.269989,-0.084447,0.072943
05629,9.836371,1.728404,1.986772,0.227728,-0.085802,0.063044
05630,9.924207,1.773149,1.913598,0.189572,-0.089448,0.056569
05631,9.891226,1.744185,1.822556,0.171573,-0.074712,0.050830
05632,9.821495,1.649010,1.748791,0.152272,-0.080922,0.047403
05633,9.768510,1.594306,1.728409,0.161643,-0.088460,0.039781
05634,9.748913,1.588881,1.615891,0.160332,-0.091318,0.036295
05635,9.742682,1.584026,1.677533,0.169331,-0.081181,0.033871
05636,9.658949,1.645903,1.759260,0.191936,-0.075503,0.030808
05637,9.640826,1.728538,1.849440,0.146691,-0.080765,0.025088
05638,9.636792,1.709531,1.788674,0.084621,-0.084060,0.018624
05639,9.594816,1.715630,1.676936,0.062480,-0.074985,0.012354
05640,9.559205,1.757950,1.716067,0.051949,-0.074152,0.000755
05641,9.575693,1.690243,1.755617,0.009007,-0.078927,-0.003696
05642,9.631879,1.580988,1.723583,-0.029100,-0.088624,0.001934
05643,9.582123,1.475216,1.655724,-0.015020,-0.084307,0.001655
05644,9.616252,1.447681,1.748139,0.018797,-0.081280,-0.005558
05645,9.572068,1.470205,1.760900,0.016205,-0.082856,-0.005728
05646,9.631865,1.380121,1.803079,0.024458,-0.088037,-0.011104
05647,9.688712,1.364584,1.676642,0.006824,-0.082572,-0.010574
05648,9.703572,1.318255,1.521206,0.043939,-0.056487,-0.001249
05649,9.702470,1.480575,1.572960,0.099504,-0.027993,0.000068
05650,9.649832,1.607967,1.691979,0.068829,-0.038223,0.000564
05651,9.674535,1.598330,1.664444,0.009434,-0.050198,-0.000278
05652,9.670269,1.526127,1.581810,0.001502,-0.051358,-0.006234
05653,9.665047,1.470033,1.622795,0.008892,-0.047598,-0.006884
05654,9.616743,1.437954,1.660215,0.012592,-0.057768,-0.028234
05655,9.707037,1.343079,1.609974,0.007463,-0.050813,-0.031543
05656,9.699025,1.309620,1.456368,0.024131,-0.021922,-0.020886
05657,9.675162,1.322191,1.476712,0.061995,-0.014850,-0.013433
05658,9.668114,1.321015,1.547073,0.072526,-0.017543,-0.010841
05659,9.674094,1.379527,1.498110,0.060600,-0.025930,-0.004963
05660,9.668899,1.415984,1.446617,0.069715,-0.026045,-0.002342
05661,9.656572,1.449359,1.467935,0.076236,-0.023064,-0.006404
05662,9.605322,1.524562,1.560819,0.057501,-0.029232,-0.016314
05663,9.655656,1.507317,1.487334,0.040432,-0.034966,-0.018346
05664,9.607967,1.530956,1.529374,0.046734,-0.020597,-0.028726
05665,9.687947,1.631537,1.514513,0.024293,-0.011885,-0.023832
05666,9.712920,1.569683,1.464768,-0.012297,0.005776,-0.015915
05667,9.685585,1.433712,1.604174,-0.046431,-0.004926,-0.009933
05668,9.699171,1.277116,1.426447,-0.062399,-0.021274,-0.002247
05669,9.756383,1.260414,1.282935,-0.004815,-0.007627,-0.002684
05670,9.705766,1.388724,1.381906,0.062543,0.018090,-0.003419
05671,9.603367,1.590990,1.578243,0.052336,0.024134,-0.009213
05672,9.587995,1.622977,1.628517,-0.004371,0.011267,-0.005381
05673,9.587294,1.551730,1.504286,-0.052437,0.011749,0.001480
05674,9.588561,1.497612,1.479133,-0.037590,0.006001,-0.002522
05675,9.626788,1.472850,1.531993,-0.025400,0.007654,-0.008621
05676,9.648064,1.461733,1.535048,-0.038593,0.013065,-0.006778
05677,9.661953,1.376011,1.485148,-0.052065,0.006133,0.000204
05678,9.673685,1.288927,1.458577,-0.035616,-0.004604,0.000547
05679,9.760887,1.297618,1.467133,-0.005951,-0.006346,0.000642
05680,9.704216,1.297753,1.486123,0.016679,0.005915,-0.000199
05681,9.643633,1.442264,1.462728,0.020503,0.011638,0.000159
05682,9.574072,1.474668,1.507516,-0.009405,0.010370,-0.007840
05683,9.560272,1.452455,1.530681,-0.021537,0.004404,-0.006336
05684,9.596766,1.410398,1.483642,-0.029718,-0.003690,-0.003624
05685,9.679659,1.309421,1.511889,-0.022729,0.000253,-0.006527
05686,9.686567,1.313324,1.439464,0.010956,0.006488,-0.008210
05687,9.673545,1.346422,1.465373,0.041563,0.024599,-0.009616
05688,9.678055,1.421121,1.544531,0.033126,0.022466,-0.016724
05689,9.658376,1.435517,1.519910,0.031024,0.012870,-0.013801
05690,9.679483,1.426031,1.522600,0.044159,0.020740,-0.012965
05691,9.677479,1.481076,1.551033,0.029229,0.025351,-0.007891
05692,9.602680,1.440896,1.519291,0.011295,0.019589,-0.003301
05693,9.595984,1.421877,1.469840,0.016903,0.008165,-0.002326
05694,9.626194,1.432017,1.497999,0.031462,0.003721,-0.009626
05695,9.661128,1.444697,1.477439,0.020834,0.005269,-0.011151
05696,9.626440,1.489594,1.501344,0.035596,0.021780,-0.014405
05697,9.582794,1.513980,1.499701,0.027775,0.022487,-0.011386
05698,9.568862,1.492174,1.523285,-0.006702,0.008393,-0.002244
05699,9.645429,1.463278,1.407582,-0.007513,0.004074,-0.000197
05700,9.664427,1.451018,1.434521,0.011096,0.017342,-0.001162
05701,9.657710,1.503057,1.511373,0.003850,0.019348,-0.008091
05702,9.649281,1.537880,1.489603,-0.008104,0.024590,-0.010673
05703,9.617557,1.545961,1.587356,-0.013464,0.020318,-0.009939
05704,9.610081,1.472061,1.536092,-0.039620,0.006463,-0.002662
05705,9.602783,1.397762,1.484183,-0.038572,0.004057,-0.004919
05706,9.661684,1.399280,1.442263,0.004896,0.016947,-0.010338
05707,9.660257,1.417057,1.567478,0.012115,0.023135,-0.015370
05708,9.647159,1.379411,1.467897,-0.019851,0.008705,-0.015058
05709,9.631764,1.340763,1.391890,0.014599,0.009191,-0.015725
05710,9.644733,1.436158,1.496545,0.042198,0.021255,-0.012969
05711,9.629123,1.468372,1.546258,-0.012770,0.000141,-0.010581
05712,9.648297,1.385662,1.447279,-0.030856,0.011181,-0.008798
05713,9.604868,1.408905,1.445184,0.015318,0.013163,-0.006655
05714,9.611614,1.483943,1.499098,0.002506,0.008647,-0.010721
05715,9.641597,1.494190,1.528104,-0.005110,0.011592,-0.009852
05716,9.606031,1.484003,1.549871,0.000913,0.013632,-0.015074
05717,9.618488,1.453506,1.526529,-0.015075,0.010893,-0.015888
05718,9.639726,1.443652,1.529007,-0.011774,0.001269,-0.018287
05719,9.641875,1.446171,1.505292,-0.000391,0.008362,-0.014195
05720,9.673503,1.403105,1.508045,-0.021104,0.017814,-0.012588
05721,9.631029,1.318509,1.477077,-0.023606,0.008391,-0.011907
05722,9.662157,1.312419,1.382947,0.010991,0.015459,-0.010098
05723,9.623007,1.409370,1.458255,0.033388,0.020079,-0.012259
05724,9.601630,1.477003,1.460287,0.031923,0.017219,-0.015758
05725,9.572831,1.541520,1.534863,0.011175,0.012267,-0.015759
05726,9.602692,1.552110,1.563977,-0.016924,0.008965,-0.011594
05727,9.636306,1.455179,1.539597,-0.031591,0.002521,-0.011370
05728,9.689702,1.400490,1.543605,-0.026115,0.007921,-0.013159
05729,9.688660,1.346934,1.542783,-0.023494,0.018465,-0.014902
05730,9.657281,1.284391,1.514433,-0.021623,0.020381,-0.019198
05731,9.653751,1.322154,1.443961,-0.007924,0.015957,-0.019833
