// Start Time: Unknown
// Update Rate: 100.0Hz
// Filter Profile: human (46.1)
// Firmware Version: 4.3.5
PacketCounter,Acc_X,Acc_Y,Acc_Z,Gyr_X,Gyr_Y,Gyr_Z
41450,9.074354,-4.683378,1.307160,0.276266,-0.119888,0.159346
41451,9.132339,-3.997723,1.090928,0.474334,-0.177867,0.158879
41452,9.321780,-3.577932,0.875140,0.508592,-0.201652,0.191076
41453,9.422633,-3.200088,0.701251,0.411161,-0.188206,0.236500
41454,9.291169,-2.904701,0.340932,0.226773,-0.172783,0.284589
41455,9.319992,-3.010491,0.074148,0.034360,-0.147266,0.346862
41456,9.406566,-3.476306,0.317258,-0.145574,-0.075392,0.431106
41457,9.316554,-3.658131,0.674395,-0.258262,-0.014165,0.483094
41458,9.294532,-3.684807,1.335007,-0.388005,0.067643,0.509780
41459,9.134231,-3.730582,1.816014,-0.542062,0.132330,0.532872
41460,9.025278,-3.746513,1.888207,-0.711906,0.169752,0.536886
41461,8.878861,-4.104794,1.752956,-0.836229,0.194919,0.531733
41462,8.662897,-5.044185,1.568627,-0.835532,0.176390,0.543731
41463,8.530110,-6.088470,1.431254,-0.604072,0.086793,0.552057
41464,8.539241,-6.811594,1.269015,-0.199468,-0.029822,0.564843
41465,8.613146,-6.698179,0.940047,0.298585,-0.162009,0.576673
41466,8.767382,-5.981577,0.763280,0.710208,-0.271088,0.579164
41467,9.074543,-5.252572,0.597570,0.950514,-0.330554,0.601252
41468,9.344306,-4.647063,0.652713,1.016450,-0.335259,0.641627
41469,9.446984,-3.990407,0.491642,0.947206,-0.315426,0.668617
41470,9.525478,-3.469727,0.189059,0.775334,-0.261549,0.701761
41471,9.562670,-3.306483,0.356200,0.501173,-0.143586,0.768423
41472,9.362149,-3.029856,0.711493,0.189360,-0.019971,0.813370
41473,9.095680,-3.033439,1.018315,-0.190867,0.091608,0.843590
41474,8.876726,-3.470028,1.157368,-0.525882,0.168789,0.870684
41475,8.703508,-4.198146,1.297894,-0.723300,0.202249,0.862743
41476,8.572875,-4.985670,1.365129,-0.730372,0.183679,0.851754
41477,8.362179,-5.892393,1.125117,-0.551548,0.105078,0.828841
41478,8.288847,-6.464328,0.870176,-0.208418,-0.021180,0.806716
41479,8.466728,-6.462342,0.689193,0.163350,-0.148065,0.797279
41480,8.740091,-6.055538,0.696043,0.491506,-0.251532,0.783494
41481,8.896571,-5.400433,0.618437,0.699570,-0.315584,0.769300
41482,8.942984,-4.742165,0.503837,0.762234,-0.342810,0.775703
41483,8.921663,-4.334932,0.376313,0.699966,-0.330522,0.779759
41484,8.952779,-4.180108,0.329659,0.573318,-0.292187,0.802937
41485,9.042449,-4.005418,0.684116,0.363642,-0.196086,0.843270
41486,8.959463,-3.766085,1.007260,0.073827,-0.076938,0.876322
41487,8.721230,-3.871532,1.186511,-0.282812,0.054749,0.911479
41488,8.443214,-4.365149,1.481231,-0.591718,0.159239,0.936521
41489,8.176483,-4.802234,1.537867,-0.787824,0.219615,0.919500
41490,7.780880,-5.499986,1.284423,-0.843833,0.232942,0.894587
41491,7.526693,-6.355909,0.984666,-0.745625,0.179950,0.859565
41492,7.480515,-7.017223,0.947653,-0.493927,0.085059,0.818036
41493,7.726855,-7.330881,1.061117,-0.167996,-0.016204,0.791011
41494,7.985918,-7.263636,1.087778,0.135983,-0.108469,0.780006
41495,8.191637,-6.857775,1.093248,0.343224,-0.175035,0.784094
41496,8.263290,-6.409584,0.892135,0.433149,-0.215731,0.786397
41497,8.266562,-6.154091,0.878203,0.461849,-0.226258,0.799581
41498,8.208379,-5.898918,0.659230,0.475007,-0.208755,0.788182
41499,8.024601,-5.494717,0.532983,0.411442,-0.172583,0.797838
41500,7.942530,-5.231483,0.531087,0.253668,-0.121108,0.818311
41501,7.912210,-5.235079,0.676001,0.001657,-0.049358,0.855096
41502,7.831664,-5.658913,0.577181,-0.209650,0.027682,0.889057
41503,7.806708,-6.377665,1.037365,-0.360946,0.116363,0.924551
41504,7.669252,-6.946626,1.564932,-0.396781,0.178512,0.936309
41505,7.379110,-7.280251,1.411314,-0.332067,0.179837,0.931908
41506,7.136703,-7.473918,1.106771,-0.221556,0.136888,0.911303
41507,7.090957,-7.593815,1.051806,-0.097891,0.064968,0.898286
41508,7.213465,-7.757541,1.114047,0.019270,-0.026078,0.903340
41509,7.333670,-7.900831,0.917803,0.154610,-0.108510,0.907430
41510,7.487727,-7.859781,1.015716,0.303299,-0.170537,0.910360
41511,7.603361,-7.596702,1.081734,0.406149,-0.213370,0.909444
41512,7.678321,-7.298606,0.860334,0.447949,-0.223404,0.915554
41513,7.442354,-7.001449,0.493817,0.426301,-0.201125,0.929698
41514,7.194195,-6.590782,0.531927,0.355644,-0.162896,0.949428
41515,7.249145,-6.405877,0.793398,0.209595,-0.075003,0.995228
41516,7.327879,-6.213660,0.766363,0.015420,0.082970,1.049437
41517,7.057579,-6.172846,1.020824,-0.232640,0.238143,1.105440
41518,6.805706,-6.535701,1.801252,-0.515761,0.404862,1.141162
41519,6.242210,-7.211141,1.905718,-0.709643,0.500692,1.152865
41520,5.640344,-8.242157,1.275665,-0.714341,0.481016,1.134770
41521,5.248466,-9.360983,0.721612,-0.491056,0.352206,1.101431
41522,5.208654,-9.820632,0.490543,-0.100803,0.168965,1.058512
41523,5.342373,-9.618660,0.322498,0.331966,-0.055519,0.993629
41524,5.735479,-9.325653,0.361482,0.719677,-0.257253,0.952193
41525,6.088651,-9.041986,0.493566,1.042601,-0.389396,0.916559
41526,6.289730,-8.412479,0.676131,1.236363,-0.450996,0.889880
41527,6.424167,-7.460313,0.717729,1.252612,-0.452102,0.870759
41528,6.397114,-6.445875,0.305297,1.086971,-0.404196,0.857022
41529,6.306927,-5.760953,0.037494,0.782955,-0.301575,0.856569
41530,6.230450,-5.464924,0.273225,0.390769,-0.164586,0.862085
41531,6.124595,-5.831897,0.535617,0.008884,-0.004600,0.882367
41532,6.170841,-6.737835,1.414927,-0.341966,0.182795,0.933913
41533,5.810784,-7.616764,1.805446,-0.528606,0.337190,0.974774
41534,5.198773,-8.341018,1.223893,-0.586831,0.384648,0.997107
41535,4.642832,-8.909984,0.754944,-0.519991,0.345315,0.991365
41536,4.473204,-8.969404,0.566274,-0.411933,0.234776,0.974267
41537,4.513924,-8.857516,0.486029,-0.339850,0.121067,0.960645
41538,4.584628,-8.906777,0.944247,-0.298315,0.010013,0.942219
41539,4.572623,-9.418527,1.003253,-0.163659,-0.111344,0.919568
41540,4.388621,-10.435725,0.666503,0.151494,-0.253093,0.900762
41541,4.347719,-11.134709,0.587287,0.651943,-0.387325,0.881516
41542,4.270722,-10.574769,0.605490,1.156323,-0.480774,0.841433
41543,3.974051,-8.819599,-0.072446,1.403933,-0.548542,0.800208
41544,4.020985,-7.239295,-0.015660,1.296660,-0.522817,0.805275
41545,4.261939,-6.578248,0.993140,0.939387,-0.380198,0.835315
41546,4.466565,-6.632064,1.983915,0.490465,-0.140829,0.867331
41547,4.182830,-7.180286,2.340035,0.075089,0.108680,0.888233
41548,3.619444,-7.843078,2.265792,-0.228680,0.300695,0.898293
41549,2.984118,-8.099018,1.943705,-0.402166,0.399497,0.873811
41550,2.546685,-8.287941,1.642537,-0.493434,0.403292,0.827848
41551,2.318349,-8.741536,1.061494,-0.457519,0.319905,0.764575
41552,2.313876,-9.550928,0.569939,-0.217880,0.133979,0.670951
41553,2.561040,-10.131541,0.462924,0.182194,-0.086440,0.582775
41554,2.938708,-10.318858,0.609933,0.640721,-0.329809,0.489658
41555,3.522808,-10.102164,0.751595,1.043931,-0.526385,0.424680
41556,4.158106,-9.352321,0.996626,1.310588,-0.639144,0.391429
41557,4.729312,-8.344116,1.283614,1.353693,-0.626037,0.384283
41558,4.949169,-7.554692,1.246520,1.176094,-0.507818,0.405350
41559,4.818196,-7.149811,1.645963,0.849891,-0.323532,0.438308
41560,4.472182,-7.066172,1.953762,0.500563,-0.117547,0.440110
41561,3.994886,-7.353879,2.055694,0.199731,0.051831,0.415371
41562,3.551505,-7.833887,2.501981,-0.026850,0.184734,0.384746
41563,3.017545,-8.117582,2.394926,-0.126643,0.216655,0.331323
41564,2.733925,-8.480047,2.013277,-0.119460,0.159630,0.265541
41565,2.797052,-8.765012,1.481373,0.006118,0.032132,0.207483
41566,2.862891,-8.995513,1.270053,0.199046,-0.119024,0.154674
41567,2.832469,-9.122047,1.119550,0.430823,-0.293947,0.098659
41568,3.085274,-9.031431,1.314036,0.656626,-0.450399,0.038728
41569,3.690014,-8.900842,1.715038,0.817392,-0.524938,-0.005700
41570,4.280525,-8.734813,1.944072,0.911006,-0.489650,-0.045317
41571,4.651743,-8.314320,2.019204,0.891752,-0.383740,-0.053293
41572,4.636736,-7.561540,2.091721,0.716472,-0.228983,-0.039988
41573,4.460481,-6.930046,2.299186,0.391174,-0.080067,-0.026258
41574,4.196202,-7.031946,2.305686,0.050892,0.031757,-0.025633
41575,3.834255,-8.108914,2.153736,-0.146288,0.066382,-0.038101
41576,3.504582,-9.300622,1.783150,-0.051663,0.014413,-0.085552
41577,3.464438,-9.592864,1.286897,0.240196,-0.121689,-0.138424
41578,3.893009,-8.961880,1.206163,0.491930,-0.253596,-0.176410
41579,4.520576,-8.080288,1.618662,0.542503,-0.298625,-0.173124
41580,4.772040,-7.676470,1.921485,0.410294,-0.279835,-0.155020
41581,4.668823,-7.921017,2.073583,0.216080,-0.239549,-0.127443
41582,4.361701,-8.380923,2.242958,0.122889,-0.222547,-0.124246
41583,4.029662,-8.618171,2.131404,0.129417,-0.240015,-0.125344
41584,3.821126,-8.182380,2.134507,0.132967,-0.269616,-0.124915
41585,3.633853,-7.485556,2.114913,0.046343,-0.290797,-0.122165
41586,3.510059,-7.397285,1.908681,-0.072813,-0.290210,-0.131212
41587,3.773834,-8.159187,1.921348,-0.136566,-0.281275,-0.137272
41588,3.896795,-9.264443,2.196474,-0.025844,-0.250905,-0.155827
41589,3.756614,-9.924086,2.227879,0.208029,-0.264939,-0.185561
41590,3.450928,-9.890753,2.198756,0.439625,-0.292082,-0.204446
41591,3.572314,-9.585232,2.455138,0.554590,-0.317492,-0.209173
41592,3.902501,-9.344040,2.499533,0.566674,-0.322637,-0.214345
41593,4.243125,-9.213259,2.688601,0.542639,-0.324913,-0.218971
41594,4.691241,-8.916639,3.193740,0.455030,-0.273876,-0.186710
41595,4.899042,-8.502458,3.487739,0.376069,-0.246614,-0.162598
41596,5.289901,-8.724348,3.863424,0.119488,-0.175197,-0.050221
41597,5.139323,-9.708938,3.646131,-0.061047,-0.105218,0.065403
41598,4.795853,-11.148816,3.393539,0.003127,-0.088586,0.122752
41599,4.627782,-11.795274,3.364237,0.322442,-0.125924,0.175382
41600,4.890137,-11.249373,3.001198,0.653780,-0.216598,0.244015
41601,5.500413,-10.529627,2.966878,0.718788,-0.211812,0.371475
41602,5.911536,-10.137561,3.082744,0.544575,-0.149602,0.538695
41603,6.190050,-10.250616,3.250413,0.232765,-0.035065,0.732445
41604,5.984631,-10.787853,3.371747,-0.059597,0.097480,0.920781
41605,5.326612,-11.284390,3.245368,-0.217559,0.186734,1.082070
41606,4.403206,-11.629869,3.019675,-0.218999,0.210197,1.207829
41607,3.411438,-12.273882,3.079984,-0.118378,0.184438,1.318184
41608,2.755405,-12.612898,3.250678,0.116338,0.105924,1.388961
41609,2.475204,-12.426250,3.419133,0.405737,-0.013646,1.454902
41610,2.732115,-12.189464,3.536764,0.617888,-0.131154,1.521377
41611,3.163603,-12.053611,3.793173,0.768144,-0.190318,1.609071
41612,3.350000,-12.212025,3.966458,0.847064,-0.213400,1.720406
41613,3.452451,-12.274466,3.849917,0.874178,-0.214137,1.844157
41614,3.459617,-12.087159,3.657243,0.864127,-0.205633,1.970949
41615,3.384390,-11.703942,3.264591,0.831648,-0.204610,2.085631
41616,3.115900,-11.402901,2.761513,0.814691,-0.196714,2.184118
41617,2.643845,-11.419807,2.482836,0.812376,-0.181842,2.276563
41618,2.313005,-11.884238,2.845076,0.866619,-0.157120,2.371248
41619,2.120795,-12.234446,3.608022,0.974162,-0.091319,2.469199
41620,1.900267,-11.750357,4.453397,1.065026,-0.001716,2.538637
41621,1.539777,-10.605149,4.976277,1.020940,0.102058,2.598371
41622,1.159308,-9.601401,5.172786,0.875851,0.212109,2.632481
41623,0.638862,-9.125171,5.057496,0.693452,0.302038,2.629673
41624,-0.040906,-9.106222,4.754326,0.594941,0.331432,2.617548
41625,-0.558184,-9.250193,4.540213,0.592936,0.305093,2.581411
41626,-0.801556,-9.461275,4.562053,0.660859,0.231136,2.540399
41627,-0.871722,-9.830449,4.577106,0.755896,0.147632,2.516116
41628,-0.708243,-9.899532,4.584960,0.857386,0.081333,2.507111
41629,-0.607137,-9.319565,4.228871,0.950446,0.025254,2.476900
41630,-0.670331,-8.366624,3.764590,0.989546,-0.036402,2.408152
41631,-1.059601,-7.572220,3.329785,0.999750,-0.096390,2.315909
41632,-1.370562,-7.192187,3.328715,0.941825,-0.140265,2.245402
41633,-1.498553,-7.727709,3.503918,0.861688,-0.165547,2.208294
41634,-1.487645,-8.685472,3.632957,0.880100,-0.163809,2.174809
41635,-1.486431,-9.125207,4.291763,0.989237,-0.107593,2.151306
41636,-1.705838,-8.767797,4.893889,1.077543,-0.024251,2.146678
41637,-1.822033,-7.841712,5.450429,1.038241,0.056604,2.145902
41638,-2.005018,-6.967619,5.734805,0.848062,0.145166,2.126671
41639,-2.385521,-6.732632,5.465022,0.577988,0.189658,2.115148
41640,-2.898578,-7.467897,5.031687,0.384424,0.191255,2.093772
41641,-3.316479,-8.940411,4.592516,0.380535,0.113613,2.091532
41642,-3.444418,-10.035125,4.479943,0.654955,0.001079,2.067183
41643,-3.430689,-9.919964,4.489103,1.035969,-0.107423,2.053573
41644,-3.518857,-8.538099,4.291224,1.353790,-0.198844,2.015750
41645,-3.778958,-6.884333,3.986199,1.474266,-0.274627,1.958560
41646,-3.801899,-5.278442,3.826012,1.369749,-0.347202,1.884645
41647,-3.723554,-4.706717,4.118080,1.043302,-0.353922,1.841493
41648,-3.719843,-5.494616,4.648751,0.746731,-0.312076,1.808334
41649,-3.813557,-6.869130,5.118743,0.642217,-0.257979,1.796097
41650,-3.895520,-7.505377,5.777768,0.758080,-0.178436,1.771253
41651,-4.114287,-7.302679,6.126920,0.889349,-0.097809,1.765739
41652,-4.261078,-6.695975,6.138300,0.927549,-0.017134,1.764881
41653,-4.514467,-6.265216,5.872906,0.874064,0.052110,1.742228
41654,-4.808911,-6.190564,5.510410,0.772047,0.050793,1.734738
41655,-4.855780,-6.177476,5.433244,0.619704,0.025847,1.740063
41656,-4.768347,-6.196049,5.688082,0.468557,-0.002115,1.764575
41657,-4.722182,-6.433705,6.091436,0.373422,-0.000344,1.792865
41658,-4.881064,-6.990177,6.042867,0.458322,0.006529,1.806517
41659,-5.099524,-7.225837,5.409040,0.723686,-0.026612,1.797762
41660,-5.446150,-6.689519,4.620131,1.045871,-0.100953,1.788034
41661,-5.576434,-5.617822,4.254079,1.261605,-0.200609,1.752312
41662,-5.501337,-4.928163,4.525484,1.303497,-0.243280,1.744413
41663,-5.318175,-4.774658,5.451094,1.270061,-0.232981,1.749420
41664,-5.239078,-4.870077,6.147245,1.217486,-0.175199,1.776048
41665,-5.195342,-4.946143,6.479576,1.208464,-0.100593,1.796542
41666,-5.377171,-4.812660,6.508193,1.252415,-0.021455,1.804974
41667,-5.637269,-4.507228,6.268149,1.340286,0.021461,1.799556
41668,-5.888263,-4.336278,6.018769,1.435304,0.020804,1.783594
41669,-6.059463,-4.148820,5.888621,1.493005,-0.004978,1.773397
41670,-5.991594,-3.973753,6.055590,1.476049,-0.030613,1.795396
41671,-5.772567,-3.865052,6.415915,1.407898,-0.034190,1.828118
41672,-5.745480,-3.775353,6.613995,1.349675,-0.014441,1.847707
41673,-5.873373,-3.158643,6.492977,1.281535,-0.007533,1.853869
41674,-6.044165,-1.995026,6.181238,1.146212,-0.022805,1.823153
41675,-6.097784,-1.213884,5.785615,0.887985,-0.064161,1.822332
41676,-5.878832,-1.511867,5.299250,0.648339,-0.098999,1.811475
41677,-5.903564,-2.623953,5.192425,0.582878,-0.109401,1.800630
41678,-6.118859,-4.016910,5.317812,0.807770,-0.146320,1.801466
41679,-6.145042,-4.541748,5.860530,1.270324,-0.200641,1.811305
41680,-5.859665,-3.530729,6.665016,1.682755,-0.197297,1.816913
41681,-5.734992,-2.099079,7.076946,1.891147,-0.136655,1.814803
41682,-5.818993,-0.781381,7.203599,1.906376,-0.071268,1.789434
41683,-5.887479,0.252729,7.118702,1.711815,-0.010854,1.760141
41684,-6.076223,0.925134,7.043810,1.378268,0.048425,1.739486
41685,-6.119794,0.754821,6.962490,1.009820,0.071742,1.739767
41686,-6.070066,0.053456,6.971962,0.839073,0.083849,1.723716
41687,-6.271629,-0.281504,6.900789,0.890218,0.065176,1.691664
41688,-6.371674,-0.033502,6.633201,0.991887,0.004478,1.652102
41689,-6.398760,0.610700,5.964744,1.055575,-0.069016,1.588848
41690,-6.360299,1.265042,5.260186,1.022433,-0.161899,1.516249
41691,-5.955471,1.663320,4.688586,0.929001,-0.241938,1.451148
41692,-5.713637,1.094198,4.950898,0.889830,-0.263023,1.408439
41693,-5.821024,0.255247,5.703914,1.058657,-0.273383,1.365892
41694,-5.777537,-0.135362,6.896364,1.375620,-0.262448,1.312555
41695,-5.549349,0.118901,7.545217,1.752946,-0.232278,1.265979
41696,-5.341552,1.147729,7.551231,1.964216,-0.177547,1.251030
41697,-5.310311,2.580411,7.284003,1.895807,-0.087594,1.230661
41698,-5.311562,3.893033,7.017117,1.555822,-0.009497,1.196365
41699,-5.397656,4.199896,7.021060,1.006041,0.076405,1.222292
41700,-5.702059,3.244560,7.012440,0.614476,0.131422,1.238240
41701,-6.061295,2.146530,6.653815,0.512318,0.126810,1.238390
41702,-6.224730,1.715928,6.186829,0.623612,0.057371,1.231709
41703,-6.195008,2.118911,5.507609,0.748217,-0.033456,1.208261
41704,-6.173807,2.605277,4.744854,0.815252,-0.154167,1.176101
41705,-5.844736,2.399172,4.602115,0.844276,-0.261331,1.155207
41706,-5.606347,2.238396,4.970903,1.000118,-0.332397,1.139228
41707,-5.232783,2.505361,5.917503,1.198380,-0.339481,1.125016
41708,-5.022353,2.875846,7.100887,1.310841,-0.277731,1.114299
41709,-4.980396,3.409773,7.618564,1.344620,-0.190223,1.122623
41710,-5.128721,4.114013,7.550694,1.263409,-0.085025,1.116022
41711,-5.405812,4.549209,7.250310,1.103308,-0.013895,1.118281
41712,-5.396778,4.903296,6.676989,0.943429,0.030674,1.098184
41713,-5.305791,4.886696,6.262256,0.795055,0.057191,1.073601
41714,-5.330139,4.373523,5.945774,0.761000,0.066700,1.050636
41715,-5.391926,3.960175,5.899374,0.855230,0.040926,1.030363
41716,-5.374708,3.710824,6.021941,1.004416,0.009342,1.025363
41717,-5.203569,3.748610,6.123420,1.188074,-0.018196,1.001594
41718,-5.117620,4.477538,6.037678,1.308803,-0.055408,0.962277
41719,-5.068811,5.753873,5.683659,1.248798,-0.087533,0.881905
41720,-4.959526,6.988004,5.050742,1.035214,-0.144587,0.762501
41721,-4.641795,7.768087,4.548533,0.606496,-0.173659,0.733497
41722,-4.321302,7.582428,4.865752,0.237956,-0.175532,0.685424
41723,-4.347671,6.324779,5.349473,0.098498,-0.142636,0.614281
41724,-4.722265,4.994042,5.837228,0.189244,-0.149283,0.547616
41725,-4.848467,4.425178,6.064513,0.471779,-0.176835,0.457720
41726,-4.730640,4.776257,6.300951,0.727789,-0.194218,0.376262
41727,-4.534069,5.718576,6.350409,0.797458,-0.189880,0.324273
41728,-4.427746,6.657066,6.232393,0.656067,-0.140338,0.277300
41729,-4.421486,6.821376,6.180003,0.371129,-0.098650,0.245103
41730,-4.508577,6.373597,6.203717,0.104550,-0.053434,0.228314
41731,-4.485591,5.561201,6.422643,-0.054623,-0.029999,0.228442
41732,-4.472806,4.767512,6.420309,-0.066921,-0.022476,0.230714
41733,-4.461212,4.109586,6.185812,0.033546,-0.026192,0.220668
41734,-4.416159,4.418380,5.641802,0.178184,-0.058599,0.193297
41735,-4.064222,5.694115,5.450407,0.186268,-0.063912,0.138530
41736,-4.037957,6.998791,5.010872,0.012148,-0.095550,0.055995
41737,-3.774532,7.345303,4.779707,-0.293533,-0.111161,0.008221
41738,-3.626204,6.783180,5.015165,-0.542905,-0.076826,-0.045511
41739,-3.685525,6.093314,5.580979,-0.611482,-0.040388,-0.122077
41740,-3.738576,5.854131,6.207708,-0.581010,0.004590,-0.201338
41741,-3.947010,5.652591,6.335588,-0.512543,0.051624,-0.287322
41742,-4.068200,5.806517,5.932227,-0.454049,0.081086,-0.357905
41743,-4.253082,6.588155,5.522023,-0.528508,0.095307,-0.430082
41744,-4.257869,7.359065,5.085666,-0.779758,0.084561,-0.511613
41745,-4.177362,7.575476,4.852479,-1.145734,0.073476,-0.594236
41746,-4.009185,7.124569,4.811558,-1.520589,0.065697,-0.667464
41747,-4.052351,5.789300,4.968688,-1.789698,0.042071,-0.716655
41748,-4.251193,3.953992,5.126870,-1.805205,0.002264,-0.769213
41749,-4.511736,3.451797,5.095021,-1.593099,-0.092400,-0.844613
41750,-4.587428,4.506866,5.020844,-1.505128,-0.177259,-0.920205
41751,-4.574796,5.125011,5.040037,-1.603698,-0.258581,-0.992069
41752,-4.309171,4.412300,4.841159,-1.718144,-0.325634,-1.033206
41753,-4.127797,2.974104,4.699970,-1.587066,-0.361067,-1.072533
41754,-4.093588,1.192268,5.163758,-1.174926,-0.359957,-1.091475
41755,-4.155855,-0.304691,5.913545,-0.437545,-0.340745,-1.139188
41756,-4.235782,-0.489154,6.623878,0.421745,-0.270686,-1.182525
41757,-4.547778,1.618480,7.346979,1.025562,-0.147133,-1.179899
41758,-4.962736,4.695718,8.072802,1.093449,-0.008200,-1.165693
41759,-4.998582,6.977279,8.323541,0.606984,0.164197,-1.147022
41760,-5.123207,7.731457,8.129862,-0.150146,0.348961,-1.120497
41761,-5.384340,7.167271,7.627906,-0.881165,0.487650,-1.107608
41762,-5.638661,5.811504,6.942986,-1.442666,0.558222,-1.124938
41763,-5.707151,4.198286,6.477545,-1.763346,0.574396,-1.132163
41764,-5.773084,2.686254,6.271702,-1.816453,0.566246,-1.163240
41765,-6.001370,1.655413,6.040411,-1.663094,0.497673,-1.190076
41766,-6.139831,1.541578,5.508849,-1.417009,0.382204,-1.225847
41767,-6.124931,2.009702,5.326329,-1.238856,0.253740,-1.267648
41768,-5.918614,2.144579,5.660812,-1.125608,0.146156,-1.311083
41769,-5.621821,2.037354,6.317157,-1.059511,0.074538,-1.350372
41770,-5.195284,2.074997,7.126324,-1.045279,0.068698,-1.392889
41771,-4.891099,2.000134,7.791455,-1.126736,0.130781,-1.431641
41772,-4.869144,1.883064,7.902914,-1.243056,0.204091,-1.463025
41773,-5.043380,1.874054,7.832303,-1.377938,0.272481,-1.491835
41774,-5.447455,1.613403,7.375201,-1.478592,0.314215,-1.536526
41775,-5.736467,1.126449,6.669134,-1.496570,0.315705,-1.592547
41776,-6.044246,0.738976,5.801752,-1.452142,0.272374,-1.659321
41777,-6.267151,0.447005,5.402921,-1.365181,0.187531,-1.737608
41778,-6.109252,0.258851,5.639217,-1.305763,0.081878,-1.822113
41779,-5.792754,0.010451,6.136395,-1.292599,-0.018229,-1.890366
41780,-5.582367,-0.349100,6.318819,-1.366125,-0.089039,-1.896830
41781,-5.708166,-0.920775,6.588679,-1.484282,-0.112682,-1.868521
41782,-6.216828,-1.762947,6.647235,-1.556089,-0.143112,-1.823915
41783,-6.558166,-2.218879,6.296263,-1.505319,-0.218351,-1.841286
41784,-6.451969,-1.908075,6.173016,-1.501512,-0.278939,-1.850060
41785,-6.105338,-2.068785,6.814474,-1.565243,-0.283250,-1.843956
41786,-5.876160,-2.897521,7.251289,-1.573525,-0.262837,-1.802386
41787,-5.653152,-3.420463,7.817492,-1.469704,-0.180537,-1.744010
41788,-5.559815,-3.477476,8.377488,-1.365858,-0.037999,-1.657171
41789,-5.638616,-3.398528,8.768974,-1.302077,0.118609,-1.573634
41790,-5.763584,-3.424476,8.650206,-1.274207,0.276246,-1.517778
41791,-5.954454,-3.681695,7.970421,-1.191410,0.387983,-1.497631
41792,-6.129247,-3.680396,7.184094,-1.046853,0.427432,-1.506910
41793,-6.235162,-3.212270,6.623909,-0.969213,0.417636,-1.523526
41794,-6.352474,-2.443678,6.203852,-1.029065,0.372593,-1.552641
41795,-6.328644,-2.417744,6.209431,-1.230872,0.293668,-1.578159
41796,-6.173372,-3.134157,6.266734,-1.386163,0.209476,-1.584048
41797,-6.179522,-4.103315,6.273301,-1.440651,0.136983,-1.572747
41798,-6.129163,-5.086238,6.445661,-1.377496,0.045966,-1.542504
41799,-6.095152,-5.582200,6.654146,-1.193993,-0.052052,-1.529563
41800,-6.009701,-5.084714,6.277590,-1.024221,-0.138740,-1.516480
41801,-5.703099,-4.619590,6.583526,-0.994752,-0.163672,-1.491860
41802,-5.403816,-4.860332,7.165198,-1.019254,-0.137068,-1.460706
41803,-5.152418,-5.203316,7.683205,-0.987360,-0.041892,-1.425344
41804,-5.017792,-5.042176,8.203754,-0.955886,0.120616,-1.397708
41805,-5.146826,-4.811702,8.218441,-0.961998,0.319644,-1.381810
41806,-5.395449,-4.898778,7.420913,-1.005214,0.506530,-1.363554
41807,-5.712547,-5.288896,6.693190,-1.024687,0.629762,-1.354437
41808,-5.854081,-6.052447,6.515708,-0.919109,0.678985,-1.364544
41809,-5.975822,-6.598583,6.232334,-0.667533,0.644980,-1.366931
41810,-6.137043,-6.422295,5.818594,-0.425048,0.546395,-1.376503
41811,-6.173131,-5.794359,5.229888,-0.341131,0.405807,-1.385552
41812,-5.858380,-5.338662,5.196387,-0.442973,0.265890,-1.401053
41813,-5.365460,-5.347251,5.619941,-0.595269,0.165218,-1.409794
41814,-4.905468,-5.839913,6.143517,-0.755024,0.119875,-1.396467
41815,-4.636897,-6.415468,6.357036,-0.853456,0.113770,-1.370092
41816,-4.680660,-6.102398,5.580341,-0.897136,0.086918,-1.378544
41817,-4.683178,-5.171543,4.763587,-1.036916,0.067521,-1.381917
41818,-4.543602,-5.123411,4.811177,-1.258809,0.090838,-1.399370
41819,-4.442871,-6.143059,4.951188,-1.327936,0.109813,-1.415206
41820,-4.372774,-7.087274,5.142427,-1.215191,0.155848,-1.427028
41821,-4.365554,-7.418540,5.241010,-0.962006,0.224941,-1.460772
41822,-4.268184,-7.196780,5.507914,-0.732001,0.298321,-1.498170
41823,-4.242642,-6.809814,5.283645,-0.579722,0.341808,-1.535790
41824,-4.049912,-6.463847,5.060812,-0.573309,0.352595,-1.566947
41825,-4.075552,-6.235571,4.586648,-0.687712,0.333129,-1.586836
41826,-4.074262,-6.339102,4.228345,-0.860876,0.264879,-1.626705
41827,-3.999272,-7.035231,4.070528,-1.048125,0.163899,-1.649605
41828,-3.796702,-8.179234,4.190115,-1.174114,0.051124,-1.633779
41829,-3.619369,-9.555939,4.485825,-1.182967,-0.045251,-1.598178
41830,-3.664897,-10.673889,4.599957,-1.014182,-0.134742,-1.570029
41831,-3.745065,-10.495750,4.352345,-0.751383,-0.245841,-1.534675
41832,-3.599029,-9.338665,4.349523,-0.647433,-0.317673,-1.479317
41833,-3.326630,-8.679160,4.989463,-0.722408,-0.316123,-1.409375
41834,-3.377559,-8.589709,4.801029,-0.854623,-0.318118,-1.362956
41835,-3.439978,-9.015587,4.315868,-0.965828,-0.313414,-1.300791
41836,-3.198951,-9.521458,4.652390,-1.025136,-0.279899,-1.248518
41837,-2.858661,-9.921791,5.168242,-1.006707,-0.196397,-1.187839
41838,-2.880152,-10.242363,5.395506,-0.933236,-0.094905,-1.128128
41839,-3.025528,-10.553951,5.280517,-0.753362,-0.016789,-1.066470
41840,-3.034124,-10.359324,5.118213,-0.488449,0.020456,-1.043507
41841,-3.034176,-9.769832,4.706050,-0.242487,0.031264,-1.028674
41842,-3.006781,-8.912177,4.395978,-0.134850,-0.004124,-1.034577
41843,-2.870311,-7.887731,4.359634,-0.245985,-0.062218,-1.055765
41844,-2.628231,-7.577747,4.437660,-0.551258,-0.136507,-1.071463
41845,-2.128793,-8.350055,4.716474,-0.881655,-0.196849,-1.075246
41846,-1.794650,-9.974973,4.886771,-1.020997,-0.239469,-1.045558
41847,-1.824478,-11.397876,4.605717,-0.867699,-0.296793,-1.009659
41848,-1.743564,-11.841171,4.240870,-0.496991,-0.375413,-0.976853
41849,-1.716869,-10.510611,4.188336,-0.136840,-0.399779,-0.959350
41850,-1.734264,-8.361227,4.827982,0.027166,-0.367678,-0.982736
41851,-1.605195,-7.158730,5.163404,-0.047538,-0.282845,-1.001565
41852,-1.459587,-7.385999,4.619106,-0.206859,-0.166272,-0.993393
41853,-1.453546,-7.902198,4.075065,-0.247229,-0.030428,-1.018654
41854,-1.245835,-7.832159,4.168304,-0.184821,0.108230,-1.085089
41855,-1.167974,-7.548921,4.390337,-0.122685,0.285315,-1.159787
41856,-1.372268,-7.674877,4.267329,-0.090710,0.383394,-1.208903
41857,-1.536027,-8.096969,3.960553,-0.039717,0.415877,-1.231965
41858,-1.662479,-8.360281,3.534149,0.052475,0.384077,-1.256193
41859,-1.746859,-8.025075,3.048761,0.108529,0.311136,-1.272126
41860,-1.522753,-7.348724,2.922113,-0.015556,0.224516,-1.292803
41861,-0.985370,-7.476609,3.105606,-0.296527,0.158962,-1.316266
41862,-0.576414,-9.187639,3.236114,-0.517253,0.115825,-1.298561
41863,-0.270151,-10.884295,2.738133,-0.470132,0.021638,-1.268955
41864,0.061990,-11.167955,1.992033,-0.249221,-0.102859,-1.227420
41865,0.339186,-10.389354,2.194717,-0.121910,-0.186542,-1.189420
41866,0.428827,-9.679201,2.832322,-0.139175,-0.208643,-1.129111
41867,0.561809,-9.571286,3.417786,-0.193511,-0.169970,-1.080558
41868,0.602902,-9.883952,3.849759,-0.205806,-0.077637,-1.022416
41869,0.662566,-9.852508,4.322196,-0.167676,0.031057,-0.985178
41870,0.774668,-9.347584,4.732132,-0.130162,0.166786,-0.970099
41871,0.706561,-9.025310,4.883504,-0.136088,0.297243,-0.962545
41872,0.483171,-9.029408,4.633082,-0.146007,0.371059,-0.967331
41873,0.354534,-9.054635,4.134097,-0.146212,0.374811,-0.991201
41874,0.353697,-8.943879,3.735757,-0.167038,0.328883,-1.025313
41875,0.505249,-8.838390,3.541301,-0.218681,0.229592,-1.062505
41876,0.747959,-9.132377,3.412145,-0.291851,0.107947,-1.084680
41877,1.055126,-9.959304,3.484509,-0.325286,0.005402,-1.080248
41878,1.282701,-10.717236,3.388015,-0.252858,-0.088391,-1.063710
41879,1.518247,-10.553844,3.004520,-0.079702,-0.191905,-1.068212
41880,1.741110,-9.628839,2.789047,0.050067,-0.259655,-1.072941
41881,1.877247,-8.787940,2.951098,0.060160,-0.268431,-1.079161
41882,1.978744,-8.703078,3.217456,-0.029465,-0.231280,-1.047456
41883,2.240106,-8.935070,3.658181,-0.095775,-0.134375,-1.033067
41884,2.250179,-8.683860,4.009507,-0.174835,0.002099,-1.007758
41885,2.184728,-8.219406,4.036413,-0.372718,0.130500,-0.978013
41886,2.352022,-8.153966,3.655746,-0.653860,0.224570,-0.947414
41887,2.448910,-9.050513,3.257033,-0.844453,0.300986,-0.928234
41888,2.150800,-10.092879,2.704083,-0.790668,0.303010,-0.927264
41889,1.831230,-10.822891,2.409308,-0.547955,0.201881,-0.936392
41890,1.980584,-10.896842,2.408315,-0.206127,0.060430,-0.961945
41891,2.264505,-10.326449,2.610072,0.038133,-0.069038,-0.967618
41892,2.758784,-9.629255,3.118873,0.104062,-0.147206,-0.937965
41893,3.176785,-9.367185,3.464513,0.023659,-0.146831,-0.891527
41894,3.292899,-9.624028,3.373513,-0.093194,-0.123450,-0.831981
41895,3.490099,-10.014038,3.161648,-0.158062,-0.086524,-0.784523
41896,3.443492,-9.901391,3.039959,-0.184598,-0.043318,-0.762107
41897,3.475764,-9.509817,3.013815,-0.232568,-0.002318,-0.736542
41898,3.718020,-9.343521,3.146483,-0.335724,0.047198,-0.702609
41899,3.894534,-9.465826,3.328206,-0.483931,0.124055,-0.642893
41900,3.802053,-9.972826,3.475784,-0.609499,0.180309,-0.571376
41901,3.554265,-10.757947,3.305286,-0.579090,0.202380,-0.516428
41902,3.197309,-11.172710,2.880495,-0.354359,0.159337,-0.486118
41903,2.957470,-10.867274,2.418468,-0.094797,0.077832,-0.461373
41904,2.933922,-10.238428,2.436007,0.075590,-0.022488,-0.443583
41905,2.987256,-9.731164,2.612429,0.172897,-0.097821,-0.430969
41906,3.159585,-9.403294,2.998988,0.232555,-0.142029,-0.410016
41907,3.394449,-8.811160,3.343532,0.212100,-0.138753,-0.381562
41908,3.488517,-8.436966,3.327170,0.042077,-0.095060,-0.347782
41909,3.443137,-8.573850,3.279545,-0.134135,-0.032384,-0.331688
41910,3.215660,-8.900378,3.073179,-0.222031,0.019652,-0.326449
41911,3.058585,-9.009908,2.918613,-0.229327,0.045052,-0.332275
41912,3.095171,-9.146332,2.732522,-0.191124,0.046184,-0.348702
41913,3.258958,-9.124111,2.574159,-0.135608,0.032628,-0.357746
41914,3.340609,-8.928265,2.528901,-0.087241,0.040593,-0.361264
41915,3.363796,-8.732761,2.842703,-0.050763,0.028675,-0.374083
41916,3.421196,-8.865719,2.582774,0.014110,0.010557,-0.390568
41917,3.249273,-9.075561,2.363807,0.167557,-0.013306,-0.426854
41918,3.030478,-8.891623,2.432154,0.363036,-0.073245,-0.473280
41919,3.427575,-8.202160,2.850781,0.424129,-0.143842,-0.501043
41920,4.529031,-7.451981,3.379948,0.104667,-0.121844,-0.430121
41921,5.001132,-8.831688,3.346786,-0.340506,0.050908,-0.406045
41922,4.263350,-10.344323,2.922979,-0.285841,0.135597,-0.398060
41923,4.036148,-9.623030,3.201751,-0.086431,0.129860,-0.344887
41924,4.622957,-9.010495,3.191871,-0.126812,0.135642,-0.285272
41925,4.849281,-9.170109,3.012882,-0.311712,0.206653,-0.193211
41926,4.892537,-10.175025,2.757299,-0.337348,0.185166,-0.146459
41927,5.124226,-10.532642,2.549405,-0.170871,0.115733,-0.130056
41928,5.461749,-10.145422,2.496953,-0.021212,0.042634,-0.117181
41929,5.969779,-9.786718,2.122765,0.088512,0.025212,-0.110354
41930,5.799541,-8.666833,2.246639,0.201144,0.057766,-0.118072
41931,5.314304,-7.163202,2.622759,0.214212,0.042831,-0.142916
41932,5.096652,-6.733750,2.394346,0.087557,0.021465,-0.126405
41933,4.860473,-7.393467,2.526509,-0.035500,0.003956,-0.121994
41934,5.026733,-8.079117,3.191975,0.000770,-0.015679,-0.113815
41935,5.374297,-8.154858,3.723358,0.052485,0.009333,-0.076327
41936,5.576182,-7.844009,3.845630,-0.039630,0.068698,-0.018353
41937,5.556164,-7.969860,3.060097,-0.229281,0.118129,0.026948
41938,5.606964,-7.981419,2.476412,-0.380965,0.155988,0.056383
41939,5.731072,-7.831952,2.599791,-0.548087,0.201190,0.091152
41940,5.998200,-7.984151,2.539825,-0.741162,0.267624,0.123107
41941,6.039099,-8.435139,1.832561,-0.835322,0.305552,0.117757
41942,5.844194,-8.768647,1.384045,-0.728016,0.292116,0.062481
41943,5.121928,-8.321792,0.894227,-0.491520,0.224468,-0.010920
41944,4.359913,-7.543061,0.318221,-0.325786,0.085187,-0.092846
41945,4.042817,-7.235511,0.202325,-0.312171,-0.055967,-0.142656
41946,4.022516,-7.352251,0.342085,-0.309610,-0.167893,-0.208034
41947,4.368572,-7.199080,0.545939,-0.322856,-0.264488,-0.282341
41948,4.742554,-6.742864,0.780758,-0.415395,-0.318263,-0.356078
41949,5.117511,-6.259720,1.298282,-0.607158,-0.323018,-0.412252
41950,5.215372,-6.107154,1.609674,-0.863250,-0.291696,-0.444330
41951,4.987852,-6.596431,1.950568,-1.128633,-0.263347,-0.468305
41952,4.375373,-8.064543,1.731850,-1.154687,-0.276281,-0.508098
41953,3.750996,-9.933330,1.522456,-0.827976,-0.339371,-0.566748
41954,3.447883,-10.750092,1.485329,-0.193308,-0.428009,-0.624971
41955,3.562863,-10.021920,1.578723,0.359025,-0.505306,-0.668979
41956,3.948257,-8.272883,1.891297,0.622399,-0.528040,-0.719104
41957,4.261638,-6.651993,2.351781,0.499728,-0.475999,-0.755038
41958,4.386486,-5.927313,2.885690,0.132470,-0.375203,-0.795097
41959,4.453416,-5.907362,3.007320,-0.250392,-0.262512,-0.855228
41960,4.303693,-6.435922,2.927488,-0.568295,-0.124526,-0.887732
41961,4.037083,-7.039065,2.861139,-0.791941,-0.014435,-0.920265
41962,3.980356,-7.600844,2.696633,-0.906257,0.064696,-0.970645
41963,3.959896,-7.872678,2.317270,-0.886696,0.129080,-1.038702
41964,3.997734,-7.918951,1.964824,-0.824105,0.143663,-1.104714
41965,4.254045,-7.970397,1.969707,-0.769542,0.147020,-1.156228
41966,4.617215,-8.224172,2.042189,-0.727499,0.158779,-1.194114
41967,5.047171,-8.480878,2.123217,-0.676064,0.176612,-1.222439
41968,5.407623,-8.662015,2.184918,-0.623600,0.199524,-1.230252
41969,5.743090,-8.966928,2.208921,-0.578086,0.229567,-1.200921
41970,5.995878,-9.330747,2.116144,-0.485048,0.252543,-1.177984
41971,6.229361,-9.421663,1.836217,-0.333641,0.266514,-1.161530
41972,6.144204,-9.056086,1.407692,-0.159455,0.261823,-1.162706
41973,5.852959,-8.514287,0.916690,-0.030279,0.217970,-1.157611
41974,5.582151,-7.780785,0.458652,0.017159,0.156484,-1.160464
41975,5.684635,-7.173703,0.342638,0.002686,0.108715,-1.171066
41976,6.002398,-6.783937,0.650368,0.001279,0.140410,-1.213049
41977,6.384061,-6.632477,1.494591,0.046100,0.228879,-1.263250
41978,6.516522,-6.511000,1.964460,0.072355,0.308787,-1.276016
41979,6.558380,-6.204741,2.257461,0.067968,0.381720,-1.304538
41980,6.623525,-6.295089,2.280523,-0.045999,0.430382,-1.332692
41981,6.519664,-7.186909,1.736265,-0.237150,0.447025,-1.332595
41982,6.425132,-8.438130,1.075091,-0.354973,0.421462,-1.338844
41983,6.462864,-9.060200,0.804346,-0.309798,0.377582,-1.362988
41984,6.711900,-8.421072,1.103368,-0.181582,0.297185,-1.370308
41985,7.193024,-7.103084,1.268474,-0.130085,0.233637,-1.367958
41986,7.476394,-5.933172,1.351503,-0.253294,0.229204,-1.366782
41987,7.557805,-5.877914,0.962679,-0.509989,0.255897,-1.321300
41988,7.414285,-6.474028,0.687353,-0.705089,0.297875,-1.283066
41989,7.148713,-7.056711,0.425707,-0.751278,0.304721,-1.265380
41990,7.133236,-7.551584,0.112893,-0.615267,0.288181,-1.258087
41991,7.231642,-7.607414,0.265082,-0.369586,0.262216,-1.270956
41992,7.564549,-7.377878,0.552786,-0.150576,0.259841,-1.270152
41993,7.869082,-6.932767,1.270232,-0.054595,0.285565,-1.262598
41994,8.004229,-6.625060,1.560762,-0.063847,0.301933,-1.235289
41995,7.966612,-6.719104,1.567885,-0.107140,0.301351,-1.210611
41996,7.825531,-6.717532,1.402814,-0.119166,0.273035,-1.194685
41997,7.813130,-6.662619,1.267782,-0.137404,0.223420,-1.177367
41998,8.034586,-6.563202,1.306192,-0.145592,0.171812,-1.158164
41999,8.264421,-6.528945,1.352713,-0.158020,0.144596,-1.130627
42000,8.478963,-6.385788,1.308397,-0.164369,0.139685,-1.101435
42001,8.451707,-6.173553,1.184553,-0.189189,0.138845,-1.061311
42002,8.279200,-5.970342,1.085383,-0.188461,0.130766,-1.032831
42003,8.281366,-5.671089,1.061350,-0.208208,0.133657,-1.010607
42004,8.309227,-5.337056,1.231244,-0.263070,0.164997,-0.986026
42005,8.420786,-5.067342,1.342111,-0.372364,0.193376,-0.960459
42006,8.519787,-4.933838,1.405508,-0.486296,0.247094,-0.952468
42007,8.478895,-4.857328,1.438818,-0.610718,0.298866,-0.945485
42008,8.433476,-4.866151,1.534387,-0.703082,0.327456,-0.933971
42009,8.591679,-4.932678,1.640000,-0.780415,0.342200,-0.923549
42010,8.768806,-5.064683,1.620062,-0.807349,0.340519,-0.922110
42011,8.796574,-5.132751,1.408536,-0.779243,0.347964,-0.930228
42012,8.740249,-5.097138,1.331411,-0.684266,0.332533,-0.944608
42013,8.760179,-4.966677,1.393675,-0.544549,0.318171,-0.981050
42014,8.894116,-4.955794,1.673014,-0.405304,0.299690,-1.010224
42015,8.975901,-5.015208,1.578100,-0.236287,0.275947,-1.033610
42016,8.913067,-5.120099,1.462327,-0.032905,0.247199,-1.055980
42017,8.877051,-5.071720,1.314749,0.194407,0.200976,-1.078131
42018,8.869997,-4.883012,1.165467,0.403091,0.144160,-1.098687
42019,8.921254,-4.616732,1.167525,0.545833,0.085150,-1.105090
42020,9.043013,-4.362106,1.278178,0.627729,0.040305,-1.110261
42021,9.216786,-4.077765,1.270630,0.664454,0.033682,-1.107407
42022,9.274715,-3.848997,1.302391,0.640560,0.041553,-1.092737
42023,9.339568,-3.813914,1.280589,0.554589,0.074775,-1.049225
42024,9.340635,-3.709199,1.428651,0.431180,0.095552,-0.992924
42025,9.340427,-3.680651,1.605325,0.285800,0.124243,-0.948825
42026,9.278664,-3.833862,1.809462,0.133133,0.150102,-0.893246
42027,9.264076,-4.038417,1.966674,0.039687,0.153088,-0.839321
42028,9.297757,-4.362246,1.886858,0.001651,0.142865,-0.787171
42029,9.281784,-4.537761,1.831243,0.027361,0.133197,-0.742466
42030,9.306122,-4.509462,1.741059,0.078115,0.122506,-0.699275
42031,9.316075,-4.394209,1.647042,0.126597,0.114694,-0.652786
42032,9.261652,-4.140755,1.651101,0.165250,0.108858,-0.609035
42033,9.273794,-3.893742,1.544024,0.168400,0.106676,-0.578437
42034,9.219708,-3.667928,1.519477,0.151143,0.099804,-0.550829
42035,9.201513,-3.586348,1.477339,0.132486,0.090918,-0.517698
42036,9.206191,-3.396664,1.647253,0.110159,0.094926,-0.499051
42037,9.237091,-3.310291,1.722902,0.080997,0.092504,-0.465293
42038,9.258567,-3.347758,1.707443,0.035743,0.095117,-0.433792
42039,9.325118,-3.389332,1.661097,0.012889,0.091982,-0.392186
42040,9.307389,-3.443515,1.706068,0.013908,0.091379,-0.359473
42041,9.314263,-3.442243,1.669143,0.008149,0.078551,-0.317009
42042,9.340089,-3.443933,1.681623,0.016682,0.059816,-0.278653
42043,9.381103,-3.369488,1.638677,0.016350,0.055857,-0.243589
42044,9.419964,-3.286933,1.653905,0.031272,0.040015,-0.219261
42045,9.480973,-3.286574,1.602345,0.035848,0.035393,-0.192197
42046,9.456319,-3.239019,1.641472,0.052244,0.030510,-0.169033
42047,9.443999,-3.193570,1.639857,0.077865,0.011344,-0.146272
42048,9.446898,-3.119447,1.642255,0.108058,-0.006032,-0.125091
42049,9.403246,-3.047830,1.673623,0.126782,-0.015211,-0.098891
42050,9.426936,-2.896831,1.710538,0.132251,-0.032011,-0.074333
42051,9.431905,-2.858367,1.755788,0.112672,-0.038258,-0.044588
42052,9.491293,-2.842091,1.743561,0.089478,-0.046342,-0.023935
42053,9.439050,-2.879400,1.799102,0.076073,-0.039475,-0.006451
42054,9.414949,-2.888408,1.819066,0.075718,-0.044676,0.010309
42055,9.392748,-2.818871,1.824196,0.087672,-0.038870,0.017446
42056,9.405501,-2.668924,1.825230,0.099782,-0.038770,0.019221
42057,9.334521,-2.631177,1.816116,0.111162,-0.033724,0.024383
42058,9.300991,-2.584487,1.745302,0.106323,-0.031452,0.031871
42059,9.322875,-2.504647,1.780783,0.111075,-0.026519,0.038633
42060,9.357943,-2.474659,1.836224,0.095174,-0.024450,0.048809
42061,9.450359,-2.435126,1.879927,0.070198,-0.021389,0.064349
42062,9.497612,-2.409204,1.894536,0.040195,-0.013174,0.074893
42063,9.497269,-2.475738,1.896054,0.022878,-0.005500,0.080248
42064,9.492316,-2.514715,1.851275,0.014718,-0.006290,0.090604
42065,9.502053,-2.512439,1.869520,0.025078,-0.007138,0.095401
42066,9.478649,-2.462405,1.817448,0.039397,-0.002420,0.083587
42067,9.451806,-2.479259,1.840388,0.047759,0.001532,0.081595
42068,9.457670,-2.446446,1.813826,0.061268,0.000601,0.075150
42069,9.462935,-2.400754,1.846467,0.073081,0.007863,0.060832
42070,9.427656,-2.393826,1.897383,0.076337,0.012373,0.051709
42071,9.422175,-2.368330,1.854174,0.080400,0.016496,0.041337
42072,9.412875,-2.362081,1.824928,0.067181,0.013438,0.041905
42073,9.477474,-2.362849,1.848712,0.061268,0.014393,0.036022
42074,9.476350,-2.365125,1.851562,0.054339,0.016907,0.034591
42075,9.467272,-2.406345,1.882614,0.041929,0.019451,0.029779
42076,9.462206,-2.427830,1.899577,0.039273,0.020325,0.027815
42077,9.486958,-2.479529,1.882787,0.038095,0.024726,0.019765
42078,9.442033,-2.551946,1.859280,0.050124,0.020217,0.019420
42079,9.482923,-2.572740,1.846884,0.064165,0.016933,0.021740
42080,9.461204,-2.563347,1.858183,0.081101,0.017597,0.018682
42081,9.422703,-2.523943,1.863483,0.092201,0.017785,0.015989
42082,9.376290,-2.475761,1.836258,0.101667,0.012764,0.019936
42083,9.374597,-2.463418,1.898742,0.102157,0.017893,0.018282
42084,9.402785,-2.434603,1.866410,0.092833,0.012697,0.022077
42085,9.457472,-2.516223,1.816667,0.085906,0.015211,0.020630
42086,9.391647,-2.578151,1.801895,0.077673,0.021892,0.020569
42087,9.400582,-2.612250,1.721260,0.079878,0.015967,0.024189
42088,9.431532,-2.599719,1.794120,0.092196,0.017785,0.025403
42089,9.405814,-2.562627,1.759232,0.100081,0.019545,0.027690
42090,9.383866,-2.553571,1.771156,0.098167,0.016966,0.031281
42091,9.396293,-2.616901,1.737537,0.088855,0.013307,0.043985
42092,9.403712,-2.641008,1.714980,0.080715,0.009748,0.051697
42093,9.403092,-2.657467,1.659740,0.086828,0.010604,0.057025
42094,9.409197,-2.669940,1.695594,0.089149,0.009313,0.062739
42095,9.350390,-2.697615,1.651728,0.097899,0.003381,0.074217
42096,9.385726,-2.743306,1.653381,0.093802,-0.006513,0.088793
42097,9.374937,-2.788966,1.684058,0.099896,-0.011575,0.098301
42098,9.379829,-2.744971,1.715363,0.119060,-0.013874,0.101516
42099,9.364531,-2.644083,1.693024,0.128577,-0.009930,0.103925
42100,9.307995,-2.582869,1.688605,0.116324,-0.018920,0.113165
42101,9.318364,-2.654193,1.652622,0.089760,-0.020497,0.125871
