// Start Time: Unknown
// Update Rate: 100.0Hz
// Filter Profile: human (46.1)
// Firmware Version: 4.3.5
PacketCounter,Acc_X,Acc_Y,Acc_Z,Gyr_X,Gyr_Y,Gyr_Z
36330,9.740016,-0.646816,2.072488,-0.304559,0.080241,-0.185502
36331,9.722596,-0.618387,1.888478,-0.350774,0.102533,-0.203772
36332,9.682882,-0.563437,1.775905,-0.396896,0.118585,-0.219713
36333,9.636383,-0.591274,1.657730,-0.455636,0.136345,-0.232390
36334,9.626410,-0.638467,1.575115,-0.507952,0.133450,-0.237571
36335,9.654444,-0.627657,1.602899,-0.531225,0.115123,-0.239641
36336,9.725645,-0.757575,1.722626,-0.526380,0.091104,-0.237536
36337,9.690768,-0.966726,1.700525,-0.514634,0.054697,-0.215431
36338,9.770746,-1.232157,1.711079,-0.471832,0.032553,-0.188713
36339,9.860001,-1.287415,1.971477,-0.442362,0.076917,-0.163275
36340,9.761698,-1.269728,2.405352,-0.431852,0.124347,-0.145532
36341,9.679340,-1.325199,2.800982,-0.437970,0.147444,-0.120553
36342,9.781825,-1.567032,3.067531,-0.440231,0.160461,-0.082962
36343,9.968523,-2.044641,3.310838,-0.372138,0.166289,-0.024824
36344,10.162177,-2.587364,3.372020,-0.205937,0.165302,0.045608
36345,10.172846,-2.891644,3.137427,0.072685,0.123293,0.098942
36346,10.009218,-2.460370,2.339097,0.366110,0.033111,0.089757
36347,10.015628,-1.337500,1.321014,0.512773,-0.052009,0.013999
36348,10.102144,-0.341003,0.454047,0.462450,-0.066188,-0.070959
36349,9.957444,0.316696,-0.217686,0.312916,-0.021545,-0.130752
36350,9.644124,1.088340,-0.435638,0.035541,0.017170,-0.192344
36351,9.455972,1.324633,0.103916,-0.386203,0.073701,-0.224448
36352,9.147695,0.907077,0.999896,-0.689720,0.105041,-0.214650
36353,8.863512,0.625662,1.705033,-0.862435,0.091923,-0.202820
36354,8.854581,0.364553,1.853801,-1.014215,0.033563,-0.182902
36355,8.998203,-0.269067,2.090274,-1.091460,-0.015894,-0.154863
36356,9.318101,-0.879357,2.683568,-1.022027,0.021333,-0.138672
36357,9.525938,-1.097288,3.473209,-0.880172,0.135115,-0.174686
36358,9.729775,-1.070012,3.929508,-0.744725,0.237319,-0.215267
36359,9.799857,-0.958700,3.925157,-0.620978,0.314900,-0.234905
36360,9.870711,-1.062468,3.744378,-0.473632,0.335137,-0.245157
36361,10.058668,-1.097735,3.536416,-0.295890,0.347702,-0.247761
36362,10.186754,-0.704503,3.465719,-0.223321,0.384522,-0.257663
36363,10.155368,-0.525174,3.146348,-0.282379,0.417651,-0.263499
36364,10.080771,-0.338634,2.257681,-0.349479,0.404932,-0.273210
36365,9.933426,-0.157251,1.356473,-0.469202,0.376868,-0.285414
36366,9.706919,-0.249534,0.683887,-0.605763,0.350110,-0.291352
36367,9.404089,-0.402779,0.372299,-0.662660,0.315464,-0.308567
36368,9.241657,-0.371208,0.325520,-0.682297,0.271936,-0.332138
36369,9.128512,-0.776543,0.692387,-0.743416,0.218605,-0.290791
36370,9.054852,-1.447636,1.077580,-0.763765,0.159996,-0.226483
36371,9.243148,-1.773327,1.807240,-0.784699,0.154169,-0.146244
36372,9.493428,-2.202028,2.897566,-0.852750,0.207193,-0.048733
36373,9.395233,-2.729563,3.870933,-0.876860,0.307745,0.044714
36374,9.247808,-3.297264,4.237315,-0.792862,0.392194,0.123433
36375,9.024067,-3.727040,4.057237,-0.661628,0.449169,0.206900
36376,8.832098,-3.886768,3.528223,-0.453248,0.458245,0.288876
36377,8.888459,-3.677316,2.933477,-0.146110,0.445048,0.341621
36378,8.928469,-2.863219,2.709471,0.122909,0.429272,0.357508
36379,9.128712,-2.117590,2.527413,0.263321,0.401334,0.375308
36380,9.315806,-1.451181,2.115645,0.309366,0.378496,0.357929
36381,9.335722,-0.970325,1.926032,0.222813,0.361422,0.347755
36382,9.244430,-0.883735,2.071140,0.107118,0.339518,0.340286
36383,9.198323,-0.732845,2.147270,0.090207,0.309509,0.297409
36384,9.309624,-0.326712,2.358010,0.079823,0.297440,0.246324
36385,9.426221,-0.277143,2.336316,0.014333,0.265620,0.224197
36386,9.484564,-0.390110,2.418237,-0.036039,0.227435,0.216970
36387,9.596011,-0.660462,2.773865,-0.123849,0.221251,0.223244
36388,9.592390,-1.042500,3.204113,-0.177100,0.230365,0.234611
36389,9.489389,-1.194735,3.353367,-0.164191,0.238810,0.241076
36390,9.451769,-1.290557,3.550971,-0.151824,0.242910,0.261619
36391,9.476261,-1.424396,3.715089,-0.135973,0.256958,0.289586
36392,9.461241,-1.480594,3.620783,-0.100890,0.263822,0.306710
36393,9.538039,-1.522882,3.422237,-0.075315,0.266869,0.317886
36394,9.543562,-1.415085,3.032506,-0.058483,0.265833,0.301010
36395,9.432642,-1.351531,2.712684,-0.076624,0.250327,0.284281
36396,9.435110,-1.578321,2.458668,-0.145762,0.252246,0.295617
36397,9.194505,-2.045581,2.484149,-0.188074,0.274307,0.324297
36398,8.945074,-2.202097,2.598898,-0.173760,0.262032,0.335929
36399,8.903347,-2.244995,2.700841,-0.118931,0.236400,0.321734
36400,9.039842,-2.232326,2.509233,-0.053050,0.225409,0.314471
36401,8.825016,-2.270062,2.161448,-0.033317,0.188134,0.321839
36402,8.754988,-2.370654,2.269765,-0.008979,0.145496,0.348417
36403,8.815158,-2.476154,2.925289,-0.006824,0.127332,0.389306
36404,8.993716,-2.546116,3.807760,0.022890,0.128099,0.436469
36405,9.262754,-2.472310,4.482717,0.035156,0.158254,0.478836
36406,9.373666,-2.416935,4.767615,0.038611,0.215256,0.509903
36407,9.306362,-2.327779,4.652778,0.044203,0.263572,0.521633
36408,9.159130,-2.205627,4.269893,0.054839,0.290482,0.509144
36409,9.089820,-2.145253,3.647751,0.048530,0.300147,0.484419
36410,8.951320,-2.455541,2.953693,0.029876,0.298800,0.485580
36411,8.876725,-2.866903,2.229027,0.040973,0.299938,0.517180
36412,8.484679,-3.101557,1.838290,0.061839,0.296047,0.534012
36413,8.226848,-3.120640,1.915553,0.142028,0.259646,0.503206
36414,8.183321,-3.012320,2.104991,0.222918,0.223476,0.462061
36415,8.140966,-2.832783,2.217056,0.248264,0.169588,0.467059
36416,8.311535,-2.921274,2.535790,0.228320,0.095996,0.508618
36417,8.592702,-3.016888,3.199229,0.209008,0.053637,0.593798
36418,9.003361,-3.045959,4.144274,0.164660,0.065752,0.680429
36419,9.269683,-2.809236,5.122522,0.144948,0.130195,0.744281
36420,9.392503,-2.528629,5.704508,0.132493,0.193992,0.786547
36421,9.535001,-2.339496,5.923733,0.099748,0.268844,0.816439
36422,9.515545,-2.291637,5.787379,0.034989,0.368262,0.821964
36423,9.278351,-2.661918,5.170483,-0.054066,0.485458,0.803640
36424,8.842602,-3.147543,4.463929,-0.088726,0.540737,0.784758
36425,8.707703,-3.793574,3.740630,-0.114342,0.560150,0.781888
36426,8.446139,-4.423708,3.089873,-0.053842,0.563840,0.847704
36427,8.122744,-4.605997,2.881247,0.076781,0.498830,0.857817
36428,7.990014,-4.491454,2.638856,0.214141,0.443929,0.844448
36429,7.836396,-4.099462,2.107044,0.246495,0.347323,0.840418
36430,7.864258,-4.038814,1.892768,0.225215,0.267500,0.843944
36431,7.972600,-3.950563,2.405601,0.231604,0.197986,0.870499
36432,8.246920,-3.635021,3.423534,0.202753,0.175803,0.903910
36433,8.574488,-3.152893,4.628901,0.136389,0.217111,0.932102
36434,8.802513,-2.929990,5.745628,0.054126,0.282454,0.953838
36435,8.978676,-2.958955,6.708240,0.016511,0.396601,0.982573
36436,8.864441,-3.100736,6.717905,-0.020041,0.532451,1.014606
36437,8.622558,-3.328587,5.968175,-0.070971,0.617406,1.050512
36438,8.275876,-3.718801,4.952623,-0.107113,0.642766,1.083534
36439,7.882379,-4.213585,3.696880,-0.144475,0.620053,1.085579
36440,7.622971,-4.688809,2.909821,-0.132249,0.545624,1.074106
36441,7.746291,-5.281852,2.705136,-0.069208,0.467518,1.097892
36442,7.737957,-5.600575,2.724827,0.030328,0.414127,1.109051
36443,7.515263,-5.408904,2.601495,0.148575,0.334726,1.076711
36444,7.495280,-4.996237,2.388874,0.223424,0.251304,1.028250
36445,7.407439,-4.774982,2.467449,0.199430,0.196263,0.999773
36446,7.343023,-4.680829,3.106748,0.168720,0.148724,0.989431
36447,7.594724,-4.513028,4.406356,0.114139,0.157851,1.015141
36448,7.849501,-4.455255,5.618508,0.002174,0.247147,1.065151
36449,7.957612,-4.375263,6.599531,-0.063653,0.331846,1.123309
36450,8.151472,-4.549163,7.468182,-0.127422,0.450030,1.189960
36451,8.039623,-4.893642,7.601031,-0.155396,0.584576,1.251951
36452,7.610610,-5.084419,6.687773,-0.190334,0.652797,1.279458
36453,7.167120,-5.392768,5.057489,-0.242558,0.643892,1.265391
36454,6.913162,-6.007473,3.726387,-0.251775,0.579047,1.242043
36455,6.739594,-6.782905,2.940499,-0.168352,0.491374,1.217910
36456,6.421550,-7.327029,2.674777,0.023622,0.379610,1.199051
36457,6.281072,-6.991493,2.839268,0.298623,0.217995,1.147674
36458,6.390468,-6.336787,2.811301,0.556842,0.091550,1.090655
36459,6.521191,-5.745011,2.738185,0.711671,0.007036,1.059066
36460,6.569841,-5.619591,2.969871,0.730650,-0.026760,1.056329
36461,6.614060,-5.699286,3.875938,0.693926,-0.019999,1.081636
36462,6.719296,-5.742994,5.213425,0.599675,0.020585,1.127477
36463,6.912540,-5.556657,6.669523,0.491291,0.133730,1.181382
36464,7.024561,-5.319317,7.553150,0.361269,0.282368,1.231866
36465,6.917498,-5.248144,7.863598,0.201040,0.422047,1.273052
36466,6.709657,-5.482212,7.585803,0.008410,0.541170,1.304452
36467,6.364763,-5.999216,6.633951,-0.162179,0.624741,1.318999
36468,5.945484,-6.441443,5.267692,-0.270250,0.619096,1.306207
36469,5.712226,-7.052653,4.198633,-0.274206,0.540457,1.258121
36470,5.676899,-7.856624,3.631252,-0.117180,0.440353,1.240998
36471,5.519668,-8.159439,3.230130,0.165276,0.315867,1.217471
36472,5.419153,-7.849366,3.033662,0.466729,0.175962,1.172610
36473,5.371318,-7.394193,2.904531,0.729732,0.068463,1.130793
36474,5.295590,-6.874433,3.093195,0.879932,0.015868,1.101787
36475,5.175575,-6.630387,3.691762,0.872314,0.015428,1.091880
36476,5.073510,-6.439792,4.622202,0.793454,0.017716,1.103887
36477,5.201255,-6.159773,5.796073,0.662696,0.064354,1.140325
36478,5.503195,-5.939262,7.036627,0.485421,0.185400,1.191162
36479,5.615292,-5.889371,7.552813,0.253687,0.351777,1.243984
36480,5.423406,-5.961620,7.349096,0.015690,0.486138,1.295326
36481,5.117859,-6.312844,6.640120,-0.220449,0.556884,1.326339
36482,4.879609,-6.926148,6.006349,-0.333742,0.570241,1.333021
36483,4.729680,-7.651760,6.210171,-0.296956,0.570257,1.302513
36484,4.525688,-8.343322,7.052029,-0.156485,0.588269,1.267675
36485,4.187977,-8.950607,7.513998,0.076166,0.616963,1.303003
36486,3.636958,-9.076782,6.387635,0.431141,0.578175,1.383707
36487,3.163090,-8.684004,4.592950,0.747541,0.428228,1.468416
36488,3.130650,-8.607884,3.446233,0.983226,0.207699,1.476799
36489,3.457371,-8.662644,3.581849,1.208460,0.035017,1.392907
36490,3.787471,-8.286957,4.119498,1.454251,-0.071387,1.284458
36491,4.144692,-7.476376,4.645422,1.686231,-0.139771,1.198457
36492,4.350362,-6.560407,5.051192,1.781173,-0.128507,1.147433
36493,4.199956,-5.891529,5.377904,1.707430,-0.092327,1.126694
36494,4.070933,-5.628274,5.556581,1.501243,-0.055449,1.131323
36495,3.838312,-5.766934,5.546682,1.264567,-0.028951,1.144736
36496,3.656914,-5.899964,5.296738,1.051100,-0.012833,1.143158
36497,3.786542,-6.102662,5.264867,0.811713,0.007036,1.110735
36498,3.902781,-6.414905,5.526187,0.603471,0.066291,1.069030
36499,3.819173,-6.600802,6.039525,0.507696,0.125292,1.041581
36500,3.664452,-6.382623,6.670866,0.492829,0.165943,1.011045
36501,3.407734,-6.002197,6.845780,0.475358,0.207020,0.992808
36502,2.961592,-5.540010,6.246004,0.403813,0.191442,0.972561
36503,2.684734,-5.226231,5.385743,0.329278,0.120371,0.925024
36504,2.700257,-5.272799,4.906482,0.277745,0.044773,0.860238
36505,2.843332,-5.663709,4.889183,0.309215,-0.022973,0.815744
36506,2.898467,-5.907000,4.965812,0.417749,-0.099686,0.777389
36507,2.890560,-5.832178,4.944786,0.508173,-0.145227,0.730786
36508,2.626523,-5.778133,5.232506,0.603691,-0.162393,0.680682
36509,2.360196,-6.128311,5.628633,0.679696,-0.178362,0.655202
36510,2.251528,-6.419490,5.780450,0.632124,-0.203417,0.675645
36511,2.302620,-6.505067,6.066130,0.602184,-0.239688,0.704090
36512,2.508990,-6.183632,6.901994,0.650512,-0.239221,0.714788
36513,2.770982,-5.828808,8.319454,0.598127,-0.157091,0.747183
36514,2.682645,-6.268578,9.468960,0.504690,-0.006325,0.817600
36515,1.991799,-7.471255,9.773445,0.445237,0.088292,0.955245
36516,1.190822,-8.904901,8.961456,0.514382,-0.003540,1.102931
36517,0.916089,-9.723848,6.982703,0.868577,-0.293146,1.188216
36518,1.448756,-9.006706,4.510786,1.519042,-0.680817,1.113454
36519,2.741505,-7.237648,2.833615,2.103324,-0.985503,0.913916
36520,3.903740,-6.069030,3.123749,2.328440,-1.026157,0.719396
36521,3.782922,-6.003558,4.557934,2.467916,-0.898018,0.611955
36522,2.881212,-4.908275,5.790642,2.649560,-0.827314,0.571409
36523,2.083798,-2.737053,6.546629,2.563064,-0.825351,0.560493
36524,1.880779,-0.819453,6.693927,2.088745,-0.800759,0.532253
36525,2.178283,0.016482,6.340798,1.338321,-0.731955,0.500172
36526,2.792436,-0.089537,5.998783,0.595844,-0.577182,0.395017
36527,2.934639,-0.898159,5.980198,0.085519,-0.421645,0.258906
36528,2.730016,-1.934360,6.308261,-0.235782,-0.402778,0.182577
36529,2.741771,-3.041390,7.020619,-0.458049,-0.385580,0.153030
36530,2.633418,-4.108672,7.814814,-0.485332,-0.340295,0.138257
36531,2.462972,-4.920885,8.502919,-0.315499,-0.365640,0.137130
36532,2.641293,-5.400934,9.045778,-0.123583,-0.409711,0.155048
36533,2.953545,-5.616662,9.489875,0.072776,-0.453970,0.164306
36534,3.298152,-5.778461,9.714594,0.244336,-0.493738,0.147200
36535,3.354127,-5.509729,9.337413,0.404266,-0.516583,0.087983
36536,3.172283,-4.753890,8.644076,0.491474,-0.594681,0.012514
36537,3.229435,-4.482341,8.016461,0.465559,-0.657719,-0.034704
36538,3.213205,-4.852027,7.346782,0.456031,-0.680086,-0.028875
36539,3.142008,-4.707624,6.960599,0.533223,-0.694537,-0.023519
36540,3.354148,-3.859706,7.063395,0.559799,-0.665157,-0.071317
36541,3.546629,-3.121523,7.049813,0.372643,-0.604822,-0.135840
36542,3.644428,-2.896972,6.954963,0.092873,-0.568628,-0.201061
36543,3.691118,-2.990715,7.289890,-0.183017,-0.502740,-0.267938
36544,3.419722,-3.695468,7.628859,-0.360085,-0.449931,-0.284765
36545,3.178002,-4.340376,7.774745,-0.409504,-0.450919,-0.270759
36546,3.287476,-4.824729,8.095040,-0.364916,-0.454884,-0.239581
36547,3.564939,-5.299827,8.348058,-0.267183,-0.438856,-0.212569
36548,3.743866,-5.642089,8.395824,-0.111696,-0.442902,-0.198463
36549,4.023575,-5.727659,9.046589,0.009529,-0.436623,-0.189543
36550,4.051794,-5.955082,9.996125,0.071048,-0.407164,-0.165240
36551,3.735959,-6.265606,10.294521,0.252734,-0.403255,-0.134658
36552,3.466321,-6.006751,9.674942,0.485635,-0.437632,-0.107415
36553,3.438217,-5.507252,8.331378,0.575469,-0.491288,-0.095050
36554,3.853337,-5.044727,7.378486,0.576153,-0.492882,-0.115356
36555,4.065422,-4.714560,6.638548,0.480479,-0.464639,-0.128121
36556,4.452984,-4.030146,6.549705,0.368196,-0.410038,-0.174735
36557,4.566458,-3.185999,6.918301,0.195775,-0.320066,-0.262127
36558,4.524462,-2.888767,7.379365,-0.129644,-0.266861,-0.303493
36559,4.428728,-3.195260,8.190909,-0.437430,-0.175748,-0.303237
36560,4.092423,-3.639788,8.768846,-0.617290,-0.078144,-0.286406
36561,4.101504,-4.464811,9.391479,-0.715527,-0.017684,-0.243658
36562,4.396199,-5.348404,9.833295,-0.678538,0.068732,-0.210559
36563,4.424485,-5.597856,9.781300,-0.531570,0.120380,-0.231697
36564,4.469407,-5.674604,9.469893,-0.446403,0.114901,-0.237366
36565,4.557921,-6.103211,9.393491,-0.326806,0.117761,-0.220573
36566,4.444700,-6.648232,9.224395,-0.117445,0.110518,-0.168828
36567,4.336218,-6.472455,9.034885,0.127731,0.119372,-0.120674
36568,4.429943,-5.936030,9.032939,0.296386,0.131365,-0.088282
36569,4.571407,-5.269223,9.189787,0.374021,0.170454,-0.080759
36570,4.819911,-4.643783,9.382711,0.349788,0.224542,-0.097204
36571,4.958381,-4.223545,9.527582,0.279610,0.292769,-0.127305
36572,4.885404,-3.912635,9.540529,0.190481,0.360959,-0.158084
36573,4.789827,-3.798270,9.128606,0.091863,0.418352,-0.181120
36574,4.678998,-3.698857,8.591844,0.003323,0.495417,-0.200545
36575,4.505674,-3.414685,7.794906,-0.095958,0.549660,-0.222734
36576,4.477395,-3.086631,6.882801,-0.181804,0.540705,-0.276378
36577,4.555051,-3.204045,6.230876,-0.266507,0.487548,-0.340255
36578,4.576591,-3.886707,6.100065,-0.374735,0.420033,-0.370620
36579,4.505105,-4.953607,6.595672,-0.389601,0.432771,-0.366103
36580,4.092323,-5.576415,7.162977,-0.279421,0.480379,-0.327228
36581,3.769986,-5.379531,7.838579,-0.134251,0.470877,-0.285904
36582,3.937979,-4.941288,8.729309,-0.126152,0.507672,-0.261809
36583,4.219264,-4.554269,9.680323,-0.204864,0.618347,-0.267210
36584,4.371302,-4.176400,10.086283,-0.289127,0.708827,-0.296493
36585,4.322528,-3.870222,9.787533,-0.368373,0.747892,-0.348671
36586,4.108164,-3.895364,8.725593,-0.475799,0.721949,-0.427399
36587,3.928324,-4.182462,7.478503,-0.499657,0.613134,-0.502335
36588,3.992669,-4.401793,6.661802,-0.480874,0.518012,-0.580755
36589,3.911809,-4.369605,5.969456,-0.349379,0.442631,-0.648852
36590,3.810459,-4.029281,5.574122,-0.209573,0.331663,-0.697974
36591,4.041628,-3.931789,5.632885,-0.125548,0.280734,-0.747330
36592,3.942281,-3.961767,5.825395,-0.041779,0.324458,-0.785138
36593,3.647323,-4.004148,6.116597,-0.047748,0.304087,-0.775869
36594,3.719780,-3.988901,6.665265,-0.117267,0.307453,-0.732215
36595,3.669088,-3.868097,7.517542,-0.280797,0.386757,-0.703023
36596,3.699258,-3.557658,8.074798,-0.434626,0.447491,-0.706352
36597,3.922247,-3.351120,8.460773,-0.567892,0.510332,-0.738200
36598,4.089725,-3.373716,8.578204,-0.720033,0.597321,-0.775547
36599,4.101076,-3.512863,8.264278,-0.828134,0.633391,-0.814764
36600,4.046494,-3.746664,7.577176,-0.940646,0.650979,-0.857761
36601,3.867570,-4.420688,6.936468,-1.027691,0.626737,-0.879372
36602,3.748427,-5.206986,6.369241,-0.975397,0.549913,-0.906577
36603,3.682750,-5.630559,6.213882,-0.810013,0.471742,-0.938538
36604,3.390339,-5.862524,6.077872,-0.646597,0.393683,-0.958382
36605,3.101243,-5.835727,5.759258,-0.490053,0.298811,-0.962135
36606,3.039592,-5.629924,5.628036,-0.362135,0.226584,-0.961575
36607,3.122627,-5.210486,5.901561,-0.288147,0.185460,-0.969235
36608,3.442257,-4.646206,6.405765,-0.274310,0.150699,-0.996009
36609,4.089810,-4.279301,7.755244,-0.328695,0.157597,-1.039098
36610,4.612423,-4.545517,9.631861,-0.474874,0.318500,-1.057021
36611,4.303680,-4.940332,10.437202,-0.568448,0.488937,-1.019343
36612,3.894371,-4.917958,10.000909,-0.577759,0.567202,-0.943454
36613,3.665008,-5.178821,9.116316,-0.708269,0.609206,-0.850372
36614,3.442513,-5.678514,7.897288,-0.775707,0.587504,-0.808484
36615,3.548928,-6.163729,6.761561,-0.753752,0.504786,-0.832852
36616,3.892484,-6.648291,5.901515,-0.606776,0.367574,-0.861298
36617,4.207073,-6.770323,5.740808,-0.315135,0.230433,-0.918820
36618,4.463548,-6.540610,6.381691,0.041607,0.154617,-1.012840
36619,4.398854,-6.532551,7.326013,0.366464,0.157537,-1.058121
36620,3.817929,-6.533534,8.098536,0.679921,0.173723,-1.013762
36621,3.444504,-6.083659,8.612552,0.864698,0.184620,-0.914346
36622,3.467930,-5.543109,8.687558,0.780551,0.156990,-0.817385
36623,3.963973,-5.068924,8.751776,0.585636,0.137093,-0.788512
36624,4.628748,-4.703877,8.863992,0.390386,0.162992,-0.838634
36625,5.027034,-4.334308,8.712710,0.317760,0.234150,-0.951941
36626,4.955351,-3.826672,8.269635,0.303715,0.267235,-1.080931
36627,4.553625,-3.771635,7.741900,0.301662,0.262055,-1.193272
36628,4.082043,-3.939853,7.130604,0.300980,0.316121,-1.281939
36629,3.557963,-3.987073,5.878873,0.262329,0.326979,-1.307012
36630,3.277260,-3.986052,4.578243,0.256742,0.241703,-1.292288
36631,3.488882,-4.048913,4.279011,0.232106,0.120892,-1.288664
36632,3.780023,-4.217005,4.459932,0.235815,0.003740,-1.310592
36633,3.903452,-4.217349,4.588660,0.252521,-0.117254,-1.337078
36634,4.212620,-4.317883,4.863394,0.202943,-0.196881,-1.334866
36635,4.615705,-4.526318,5.862961,0.095689,-0.194932,-1.327067
36636,4.881451,-4.469411,7.363297,-0.048158,-0.129512,-1.334255
36637,5.151211,-4.072581,8.918485,-0.263940,-0.033855,-1.339190
36638,5.209645,-3.453916,9.892541,-0.481066,0.053083,-1.302303
36639,5.156430,-3.300067,10.012548,-0.610058,0.114469,-1.243354
36640,4.746071,-3.798249,9.210257,-0.655244,0.189118,-1.163697
36641,4.104254,-4.697711,8.071845,-0.605187,0.196408,-1.111469
36642,3.899334,-5.764706,6.823208,-0.414726,0.113025,-1.069494
36643,3.959074,-6.176144,5.732441,-0.136217,-0.041529,-1.017537
36644,4.003205,-5.827003,4.835721,0.133620,-0.273036,-1.015538
36645,4.380723,-5.001258,4.470209,0.372210,-0.494692,-1.079942
36646,4.595499,-3.995573,4.393740,0.488508,-0.652535,-1.191284
36647,4.934216,-3.416178,4.520014,0.436595,-0.746764,-1.266215
36648,5.112563,-3.320194,4.641275,0.362673,-0.798718,-1.306082
36649,5.401961,-3.262177,5.516950,0.244806,-0.795410,-1.324854
36650,6.005499,-2.944114,7.006685,0.030420,-0.749934,-1.324078
36651,6.631965,-2.410949,8.762364,-0.271921,-0.647442,-1.331463
36652,6.726721,-2.135132,9.988693,-0.582834,-0.455041,-1.358962
36653,6.291065,-2.338691,9.926723,-0.774142,-0.284723,-1.344806
36654,5.545556,-2.822623,8.977061,-0.867040,-0.217756,-1.296691
36655,4.980275,-3.909037,7.899474,-0.863156,-0.241654,-1.272974
36656,5.068235,-5.262277,7.224792,-0.677997,-0.313629,-1.227014
36657,5.223239,-6.078440,6.726698,-0.327941,-0.413690,-1.157481
36658,5.562060,-5.983926,6.365404,0.082837,-0.565147,-1.114511
36659,6.069409,-4.889959,6.044397,0.441900,-0.739308,-1.124621
36660,6.152802,-3.700133,5.476861,0.654500,-0.900618,-1.202961
36661,6.106175,-2.778990,4.845194,0.703930,-1.053445,-1.316306
36662,6.102892,-2.109414,4.622820,0.582075,-1.117880,-1.409113
36663,6.388910,-1.830982,4.953234,0.347576,-1.125004,-1.429521
36664,6.764673,-1.852365,5.818166,0.114906,-1.075960,-1.395731
36665,7.123720,-2.019417,7.240417,-0.097132,-0.944314,-1.357819
36666,7.405391,-2.203480,8.362831,-0.232137,-0.773813,-1.274878
36667,7.541202,-2.131130,8.584716,-0.328013,-0.663451,-1.198898
36668,7.458874,-2.215639,8.360020,-0.427318,-0.610023,-1.156302
36669,6.938303,-2.366889,7.471180,-0.491451,-0.608075,-1.164413
36670,6.539248,-2.922128,6.632876,-0.497548,-0.662536,-1.145844
36671,6.312860,-3.793681,6.083666,-0.373754,-0.727996,-1.093161
36672,6.178347,-4.081236,5.869800,-0.139988,-0.817551,-1.053206
36673,6.595345,-4.001410,5.731140,0.096896,-0.922684,-0.998633
36674,7.108792,-3.576185,5.503923,0.332920,-1.001486,-0.933522
36675,7.533381,-2.815756,5.143616,0.464070,-1.054405,-0.901474
36676,7.902941,-2.051068,5.056315,0.421448,-1.080779,-0.885216
36677,8.075542,-1.576357,5.002861,0.265680,-1.078898,-0.877750
36678,8.173247,-1.335784,5.258196,0.060720,-1.039393,-0.868526
36679,8.062055,-1.499873,5.766860,-0.107382,-0.958089,-0.870662
36680,8.041281,-1.616501,6.602395,-0.293184,-0.848737,-0.864346
36681,7.974552,-1.545470,7.264199,-0.480599,-0.731912,-0.857521
36682,7.978594,-1.639519,7.416374,-0.614016,-0.658662,-0.814108
36683,8.011168,-1.978002,6.901187,-0.573229,-0.628395,-0.745939
36684,7.993523,-2.137066,6.476467,-0.488349,-0.627362,-0.689956
36685,7.898686,-2.617638,6.149947,-0.431339,-0.675245,-0.609688
36686,7.789645,-3.116890,5.766137,-0.243701,-0.765318,-0.541269
36687,7.789638,-3.289867,5.341630,-0.008882,-0.834234,-0.532498
36688,7.862612,-3.038878,5.032924,0.209605,-0.874132,-0.563948
36689,8.041293,-2.346008,4.917806,0.361414,-0.882565,-0.617050
36690,8.131430,-1.309093,4.974090,0.407224,-0.881971,-0.689350
36691,8.195466,-0.779003,4.660734,0.290935,-0.842280,-0.702000
36692,8.072607,-0.862194,4.146652,0.172428,-0.798707,-0.607906
36693,7.925319,-1.128163,3.819280,0.005151,-0.799359,-0.463538
36694,8.319745,-1.609006,3.913398,-0.166251,-0.851223,-0.307291
36695,8.888561,-2.099121,4.705756,-0.210279,-0.853390,-0.219039
36696,9.139759,-2.030276,5.684111,-0.200930,-0.774664,-0.210497
36697,9.016669,-1.365960,6.368996,-0.178556,-0.701215,-0.253799
36698,8.794611,-0.418451,6.738072,-0.170086,-0.627073,-0.320977
36699,8.484257,0.056218,6.697352,-0.189037,-0.526079,-0.347335
36700,8.335341,-0.066515,6.255262,-0.220951,-0.495260,-0.341737
36701,8.599621,-0.577513,5.514635,-0.216956,-0.511994,-0.297719
36702,8.985755,-1.193596,4.745424,-0.185388,-0.545974,-0.240864
36703,9.222060,-1.495188,4.050728,-0.086361,-0.588072,-0.224776
36704,9.394903,-1.252691,3.766985,-0.011008,-0.621344,-0.248203
36705,9.217981,-1.019737,3.269397,-0.002585,-0.641093,-0.264159
36706,8.867919,-0.937051,2.873034,-0.057871,-0.651437,-0.268280
36707,8.732387,-1.141507,3.149837,-0.113812,-0.632698,-0.257855
36708,8.623362,-1.233295,4.014485,-0.149283,-0.580253,-0.227502
36709,8.667297,-1.236985,5.043289,-0.216999,-0.541913,-0.154976
36710,8.907176,-1.431943,5.685784,-0.284891,-0.489361,-0.054352
36711,9.022613,-1.575645,5.871314,-0.247667,-0.435259,0.015884
36712,9.018392,-1.542689,5.883592,-0.179815,-0.407845,0.029636
36713,9.012104,-1.437890,5.652227,-0.078707,-0.391191,0.009997
36714,8.940666,-1.148009,4.917937,0.042265,-0.367193,-0.035814
36715,8.741846,-0.886555,4.012179,0.072428,-0.353443,-0.078480
36716,8.586533,-1.261856,3.271287,0.048296,-0.409528,-0.071216
36717,8.547506,-1.627622,2.676944,0.160559,-0.491504,-0.040850
36718,8.698833,-1.396876,2.532359,0.301555,-0.550967,-0.026497
36719,8.766320,-0.942392,2.484509,0.314166,-0.576645,-0.013382
36720,8.549376,-0.532166,2.338600,0.251844,-0.616313,0.006726
36721,8.400122,-0.346668,1.956076,0.120173,-0.674267,0.029042
36722,8.256818,-0.512936,1.792784,-0.087743,-0.690706,0.073533
36723,8.174604,-1.116726,1.960583,-0.252811,-0.676531,0.124576
36724,7.991557,-1.748076,2.424025,-0.297817,-0.620924,0.210139
36725,8.040612,-2.045921,3.114673,-0.323464,-0.578816,0.322313
36726,8.771317,-2.340149,3.730554,-0.281554,-0.576161,0.430263
36727,9.286045,-1.977487,4.231747,-0.086326,-0.565785,0.480290
36728,9.793561,-1.351262,4.861382,0.057813,-0.554929,0.484871
36729,10.475747,-0.777758,5.232614,0.202402,-0.501621,0.443083
36730,10.528790,0.030719,5.020240,0.260509,-0.410938,0.367634
36731,10.192763,0.533198,4.419336,0.153699,-0.380815,0.273227
36732,9.957642,0.420462,3.769172,0.053204,-0.391399,0.199561
36733,9.727034,-0.035572,3.159353,0.067731,-0.406677,0.144412
36734,9.516402,-0.448961,2.579863,0.098603,-0.423978,0.122086
36735,9.534844,-0.743733,2.070751,0.135440,-0.429034,0.112442
36736,9.555782,-0.763871,2.015236,0.129796,-0.405207,0.117732
36737,9.425927,-0.972229,2.258929,-0.005108,-0.390608,0.152415
36738,9.135648,-1.772910,2.223442,-0.203455,-0.405747,0.221387
36739,8.633745,-2.652511,1.721031,-0.326680,-0.428609,0.297226
36740,8.314677,-3.600637,1.724116,-0.254754,-0.458448,0.370841
36741,8.512594,-3.931350,2.459466,0.066123,-0.482188,0.430114
36742,9.167591,-3.340715,3.834919,0.365842,-0.457425,0.462046
36743,10.014357,-2.292688,5.059904,0.634033,-0.405711,0.463500
36744,10.659054,-0.963376,5.475774,0.834100,-0.312091,0.466352
36745,10.990164,0.264253,4.777776,0.959917,-0.256869,0.423349
36746,11.059539,1.218565,3.789304,0.919970,-0.216619,0.331711
36747,10.699533,1.306552,2.995731,0.649534,-0.195300,0.239354
36748,10.422733,0.636054,2.817452,0.407901,-0.208853,0.168820
36749,10.364564,-0.161833,2.657686,0.296576,-0.169064,0.149777
36750,10.158352,-0.347997,1.994078,0.258639,-0.102210,0.139676
36751,9.951257,-0.212722,1.223020,0.194213,-0.104528,0.105042
36752,9.762471,-0.139203,0.798178,0.118903,-0.160332,0.045630
36753,9.804732,-0.011060,1.026789,0.109806,-0.204259,0.016153
36754,10.030437,0.083718,2.124902,0.076877,-0.162600,0.003736
36755,10.236610,-0.088451,3.816371,-0.046020,-0.093033,0.016069
36756,10.451164,-0.635261,5.029639,-0.196532,0.003644,0.037480
36757,10.114615,-1.083469,4.570878,-0.271018,0.074007,0.056008
36758,9.796886,-1.425861,3.333576,-0.262415,0.045665,0.039774
36759,9.577022,-1.655707,2.433483,-0.071489,-0.003979,0.011966
36760,9.261030,-1.389566,1.682959,0.144040,-0.053740,-0.009429
36761,9.334897,-1.079898,1.560079,0.205972,-0.085025,-0.019410
36762,9.443744,-1.285053,2.186940,0.167884,-0.053428,-0.020372
36763,9.298672,-1.766544,2.752373,0.068444,0.002681,-0.007384
36764,8.866449,-2.578047,2.596060,-0.064055,0.029788,0.047543
36765,8.439092,-3.136931,1.810633,-0.058117,-0.016864,0.106856
36766,8.497519,-2.933804,1.327573,0.094688,-0.053019,0.130886
36767,8.654353,-2.042434,1.148402,0.207583,-0.064231,0.131978
36768,9.034107,-1.134358,1.247691,0.275961,-0.106296,0.115349
36769,9.494273,-0.739517,1.485173,0.298208,-0.150742,0.102235
36770,9.679308,-0.810484,1.759153,0.271348,-0.171031,0.097395
36771,9.822025,-0.848931,1.867713,0.252164,-0.205443,0.082852
36772,10.012216,-0.774022,2.129432,0.215110,-0.200336,0.059958
36773,9.969009,-0.614548,2.449513,0.155678,-0.155955,0.046044
36774,9.831848,-0.386629,2.902697,0.108503,-0.128035,0.035159
36775,9.833913,-0.360668,3.261841,0.025203,-0.081284,0.050779
36776,9.905838,-0.863511,3.391494,-0.025633,-0.028314,0.059480
36777,9.726676,-1.325517,3.035895,-0.004784,0.009933,0.057962
36778,9.560492,-1.460753,2.496364,0.002755,0.017425,0.041938
36779,9.324293,-1.476372,1.952960,-0.004788,-0.013618,0.044399
36780,9.438290,-1.212585,1.879325,0.071797,-0.067492,0.024161
36781,9.409776,-0.444520,1.901873,0.169141,-0.069420,-0.029757
36782,9.299144,0.077915,1.926146,0.084413,-0.138477,-0.054963
36783,9.533301,-0.543082,1.905621,-0.097148,-0.176542,-0.053364
36784,9.561134,-1.568496,1.967136,-0.159209,-0.127050,-0.052639
36785,9.217291,-2.457999,1.880516,-0.168929,-0.077393,-0.034508
36786,9.062529,-2.993215,1.950750,-0.119783,-0.080844,0.008971
36787,9.403251,-2.787576,2.388852,0.047412,-0.096344,0.057092
36788,9.825697,-1.910462,2.868631,0.182204,-0.099036,0.084090
36789,10.046178,-1.099172,2.946202,0.233827,-0.104259,0.085127
36790,10.178889,-0.564141,2.832735,0.182474,-0.102848,0.065022
36791,10.126989,-0.457769,2.770343,0.113787,-0.091192,0.032755
36792,10.061736,-0.639971,2.620028,0.054176,-0.070413,-0.006225
36793,9.883900,-0.970125,2.307088,0.032738,-0.065668,-0.032737
36794,9.624493,-1.066086,1.997545,0.033838,-0.065590,-0.048282
36795,9.631189,-1.258828,1.980746,0.005209,-0.057173,-0.052230
36796,9.554795,-1.279729,2.016239,-0.009183,-0.042556,-0.040260
36797,9.512548,-1.177101,2.256521,-0.023785,-0.038838,-0.031206
36798,9.571670,-1.118278,2.386509,-0.037939,-0.024789,-0.017746
36799,9.601177,-1.039179,2.445370,-0.062150,-0.007883,-0.018197
36800,9.615441,-1.132676,2.353515,-0.090095,0.009039,-0.025399
36801,9.561463,-1.446673,2.257449,-0.081221,0.023564,-0.036796
36802,9.490780,-1.691436,2.024087,-0.030721,0.016593,-0.036583
36803,9.492240,-1.750367,1.898925,0.023052,0.000517,-0.024855
36804,9.518073,-1.733516,1.867838,0.061436,-0.026453,-0.006847
36805,9.603063,-1.600757,1.920423,0.077180,-0.036091,0.010842
36806,9.673844,-1.375703,2.063409,0.058477,-0.035395,0.023955
36807,9.708074,-1.275029,2.176251,0.024587,-0.030325,0.036097
36808,9.645623,-1.215719,2.151688,-0.009668,-0.025144,0.039675
36809,9.578987,-1.258995,2.172440,-0.030889,-0.029717,0.035106
36810,9.527435,-1.335857,2.053092,-0.026527,-0.032895,0.033566
36811,9.413411,-1.265200,2.125657,-0.008442,-0.047521,0.028296
36812,9.480410,-1.267044,2.234660,0.001827,-0.046583,0.033460
36813,9.422898,-1.343042,2.322828,0.001748,-0.046811,0.029908
36814,9.367075,-1.521283,2.248274,0.021004,-0.045714,0.045129
36815,9.463760,-1.470026,2.155795,0.036674,-0.044141,0.060691
36816,9.527619,-1.439953,1.988100,0.031404,-0.044327,0.057364
36817,9.576012,-1.497910,1.882983,0.037086,-0.040902,0.053415
36818,9.594611,-1.671836,1.854736,0.050164,-0.039004,0.050232
36819,9.585584,-1.779371,1.932302,0.060997,-0.030019,0.044999
36820,9.572079,-1.788364,2.033637,0.075563,-0.021059,0.046495
36821,9.608927,-1.705989,2.200063,0.104674,-0.014603,0.048032
36822,9.595819,-1.413865,2.267888,0.120150,-0.009151,0.046246
36823,9.660547,-1.196451,2.306326,0.107864,-0.009158,0.041563
36824,9.714045,-1.127652,2.247992,0.094799,-0.000844,0.037015
36825,9.699390,-1.120046,2.125890,0.085706,0.005628,0.031520
36826,9.663919,-1.124027,2.000860,0.069782,0.010202,0.013457
36827,9.669981,-1.202460,1.894550,0.046212,0.006686,0.000899
36828,9.527384,-1.245464,1.874960,0.044400,0.001199,0.000369
36829,9.537416,-1.217969,1.895321,0.044418,-0.005699,-0.007718
36830,9.545292,-1.209014,2.001370,0.023339,0.000207,-0.016381
36831,9.540063,-1.168510,2.072761,-0.002757,0.006660,-0.017717
36832,9.560702,-1.254383,2.089023,-0.013402,0.007084,-0.022253
36833,9.572426,-1.407019,2.048559,-0.017518,0.009729,-0.019241
36834,9.569810,-1.588019,2.022430,-0.003454,0.009617,-0.012997
36835,9.551043,-1.679871,1.946354,0.028734,0.000898,-0.005992
36836,9.499845,-1.629796,1.907601,0.061917,-0.011086,0.001308
36837,9.523299,-1.533883,1.949869,0.073859,-0.016374,0.002003
36838,9.561158,-1.410067,1.977242,0.069159,-0.023035,0.006264
36839,9.525656,-1.309301,2.010960,0.071357,-0.024513,0.007259
36840,9.581107,-1.215578,2.038113,0.058593,-0.027979,0.006337
36841,9.563269,-1.144571,2.071634,0.049329,-0.032186,0.001519
36842,9.573912,-1.117091,2.088905,0.037244,-0.033010,-0.005188
36843,9.576818,-1.132972,2.138209,0.017234,-0.024534,-0.011071
36844,9.585978,-1.227993,2.080299,0.009107,-0.027207,-0.018720
36845,9.543906,-1.309894,2.121094,0.018283,-0.023250,-0.017460
36846,9.538936,-1.332898,2.065158,0.015768,-0.020165,-0.014334
36847,9.551295,-1.386168,2.010333,0.015311,-0.017749,-0.008141
36848,9.555123,-1.343278,2.011031,0.014643,-0.020388,-0.002344
36849,9.601488,-1.316697,1.981541,0.011899,-0.016751,-0.000694
36850,9.580940,-1.328941,1.977015,-0.006567,-0.012397,0.000239
36851,9.599704,-1.299846,1.927017,-0.021826,-0.012782,0.002477
36852,9.596631,-1.342379,1.922903,-0.043707,-0.015665,-0.006359
36853,9.669481,-1.279239,1.950291,-0.046303,-0.012834,-0.006775
36854,9.749207,-1.131624,1.981920,-0.042479,-0.026400,-0.012662
36855,9.868159,-0.936581,2.141332,-0.041498,-0.037889,-0.029593
36856,9.913564,-0.826285,2.182044,-0.076809,-0.044950,-0.058520
36857,9.864456,-0.913102,2.113660,-0.124913,-0.048580,-0.080274
36858,9.729792,-1.031140,1.980578,-0.173242,-0.038903,-0.092967
36859,9.572704,-1.084334,1.743099,-0.235030,-0.040999,-0.099731
36860,9.530887,-1.189025,1.515546,-0.291566,-0.049579,-0.107821
36861,9.398817,-1.383181,1.479628,-0.313512,-0.042863,-0.123081
36862,9.323882,-1.561806,1.572634,-0.307364,-0.041135,-0.122793
36863,9.267599,-1.710633,1.616271,-0.277681,-0.053360,-0.117492
36864,9.260342,-1.791079,1.634051,-0.241446,-0.068200,-0.101509
36865,9.297607,-1.805414,1.661229,-0.203869,-0.070790,-0.088896
36866,9.312952,-1.793102,1.722913,-0.169919,-0.073119,-0.079443
36867,9.352961,-1.766539,1.754058,-0.131355,-0.078175,-0.064455
36868,9.450966,-1.705755,1.829774,-0.104889,-0.078217,-0.053626
36869,9.528091,-1.658078,1.902797,-0.083643,-0.072617,-0.043534
36870,9.545669,-1.606819,1.970247,-0.073435,-0.064089,-0.028152
36871,9.557062,-1.580002,1.983852,-0.071829,-0.056844,-0.019850
36872,9.558425,-1.579912,1.977347,-0.068175,-0.056126,-0.011050
36873,9.587351,-1.583841,1.991463,-0.057105,-0.052247,-0.008150
36874,9.595457,-1.600531,2.002646,-0.030161,-0.053630,0.002066
36875,9.624177,-1.604922,2.017519,0.005084,-0.054337,0.008700
36876,9.666563,-1.580326,2.019236,0.034271,-0.053514,0.007622
36877,9.677244,-1.554804,2.035644,0.051611,-0.046115,0.018704
36878,9.674579,-1.536665,1.981276,0.068606,-0.039317,0.019118
36879,9.665044,-1.563249,1.958449,0.076924,-0.031846,0.023723
36880,9.615836,-1.533563,1.971194,0.096896,-0.028240,0.029500
36881,9.601806,-1.502327,1.936328,0.114753,-0.023938,0.032208
36882,9.577763,-1.497070,1.881388,0.130792,-0.025134,0.034311
36883,9.583600,-1.413476,1.887805,0.151257,-0.024645,0.031718
36884,9.570352,-1.421195,1.816030,0.161577,-0.024691,0.031129
36885,9.573348,-1.379198,1.819000,0.166362,-0.028992,0.032422
36886,9.614163,-1.314630,1.862219,0.170968,-0.026890,0.034785
36887,9.656486,-1.329544,1.830662,0.180043,-0.028738,0.033458
36888,9.666654,-1.303184,1.850224,0.175681,-0.032208,0.030399
36889,9.674218,-1.298569,1.781073,0.170526,-0.027362,0.027536
36890,9.656947,-1.328474,1.829006,0.171219,-0.030072,0.026281
36891,9.633751,-1.362167,1.736672,0.175627,-0.035072,0.016932
