// Start Time: Unknown
// Update Rate: 100.0Hz
// Filter Profile: human (46.1)
// Firmware Version: 4.3.5
PacketCounter,Acc_X,Acc_Y,Acc_Z,Gyr_X,Gyr_Y,Gyr_Z
12880,8.784666,-3.343987,1.567443,0.090182,0.106658,0.127474
12881,8.926385,-3.146382,1.535491,-0.083326,0.142982,0.129057
12882,9.047555,-3.101993,1.654953,-0.304438,0.198385,0.149521
12883,9.011284,-3.314385,1.780995,-0.524695,0.270430,0.162350
12884,8.774758,-3.715094,1.919089,-0.708340,0.305785,0.194789
12885,8.562624,-4.452036,2.035716,-0.870737,0.292895,0.253490
12886,8.435916,-5.308561,2.196631,-0.856431,0.253722,0.301650
12887,8.422185,-5.925894,2.600752,-0.614062,0.204532,0.302039
12888,8.473024,-5.871968,3.120722,-0.323539,0.183025,0.292528
12889,8.444090,-5.424514,3.313538,-0.119623,0.159145,0.282894
12890,8.336605,-5.047740,3.250590,0.018848,0.101660,0.283514
12891,8.492944,-4.845470,3.107534,0.144223,0.036167,0.283439
12892,8.644502,-4.785377,2.929967,0.263161,-0.014924,0.294962
12893,8.817553,-4.822079,2.746163,0.410713,-0.028939,0.299277
12894,8.879899,-4.633929,2.403909,0.561158,-0.016649,0.284154
12895,8.870490,-4.149141,1.840796,0.665433,0.002209,0.240145
12896,8.901112,-3.256067,0.872576,0.669098,0.029159,0.133984
12897,9.046548,-2.092559,-0.041170,0.574997,0.065967,-0.036736
12898,9.525656,-0.963164,-0.214756,0.451038,0.144095,-0.174975
12899,10.226984,-0.443494,1.169649,0.083737,0.307943,-0.035631
12900,10.048174,-0.787522,2.799636,-1.035269,0.671531,0.228652
12901,9.094090,-1.665352,3.187174,-2.454979,0.960566,0.331419
12902,8.277625,-3.254561,2.666297,-3.366476,1.045827,0.510101
12903,7.084269,-6.534270,1.615164,-3.102608,0.841084,0.616695
12904,6.889272,-8.528344,2.151062,-1.998822,0.621415,0.360877
12905,7.210964,-8.344854,3.225531,-1.440056,0.542393,0.398312
12906,6.789058,-8.707253,3.252464,-1.157191,0.436399,0.452305
12907,6.734154,-8.676429,3.181658,-0.542234,0.243151,0.462423
12908,6.961199,-8.296905,3.176815,-0.033582,0.065038,0.486119
12909,7.297919,-7.891362,3.128221,0.443329,-0.085554,0.500884
12910,7.656351,-7.359624,3.143423,0.870712,-0.169419,0.503849
12911,7.800981,-6.622964,2.866691,1.149596,-0.195820,0.502776
12912,7.764352,-5.691641,2.091275,1.285423,-0.216395,0.475517
12913,7.862908,-4.589332,1.043967,1.283765,-0.264040,0.413750
12914,8.189196,-3.413581,0.348255,1.165783,-0.288566,0.314192
12915,8.754822,-2.613872,0.259695,0.991311,-0.265233,0.261631
12916,9.313711,-2.161453,0.867190,0.704143,-0.107754,0.338347
12917,9.192334,-2.334276,1.823366,0.090506,0.155013,0.462159
12918,8.614120,-3.056611,2.130170,-0.702089,0.341528,0.576883
12919,7.992293,-4.452112,2.133999,-1.185127,0.415565,0.732608
12920,7.481774,-6.092970,2.653380,-1.207142,0.408497,0.752947
12921,7.456503,-7.014939,3.327192,-1.028713,0.405951,0.664015
12922,7.394858,-7.203300,3.992698,-0.908021,0.447517,0.689083
12923,7.084551,-7.338589,4.136225,-0.864305,0.430422,0.709094
12924,6.800396,-7.542453,3.831493,-0.716624,0.315358,0.734535
12925,6.795040,-7.819378,3.599583,-0.454629,0.178557,0.760196
12926,6.888231,-7.997824,3.117288,-0.146122,0.092967,0.792529
12927,6.882573,-7.770873,2.186926,0.187463,0.032732,0.815055
12928,6.876470,-6.991683,1.240153,0.489782,-0.049524,0.808913
12929,7.080197,-6.010052,0.536233,0.651204,-0.152301,0.771759
12930,7.446593,-5.164527,0.101429,0.665924,-0.211422,0.708039
12931,7.889145,-4.431160,0.208754,0.592705,-0.165729,0.673407
12932,8.037142,-4.125870,0.991251,0.343907,-0.016654,0.707845
12933,7.704860,-4.491198,1.732354,-0.107028,0.146452,0.783142
12934,7.267972,-5.252778,2.070594,-0.509175,0.264445,0.877723
12935,6.907029,-6.010424,2.583589,-0.850657,0.348537,0.976222
12936,6.827310,-6.881380,3.101536,-1.139788,0.386771,1.036937
12937,6.842375,-7.831386,3.628574,-1.283428,0.434586,1.094629
12938,6.704715,-8.643738,4.172625,-1.269759,0.483308,1.124302
12939,6.420904,-9.217344,4.386042,-1.184836,0.474541,1.148799
12940,6.081424,-9.535704,4.045733,-1.038308,0.398661,1.178820
12941,5.841227,-9.552791,3.190414,-0.753488,0.255410,1.182432
12942,5.883652,-9.272875,2.184401,-0.356780,0.072598,1.173023
12943,6.006965,-8.698084,1.026800,0.090045,-0.086399,1.135440
12944,6.269567,-7.812943,0.329450,0.460753,-0.184241,1.090814
12945,6.500388,-7.013997,0.023932,0.655777,-0.247025,1.078320
12946,6.709590,-6.583726,0.162391,0.721267,-0.275619,1.073662
12947,6.898481,-6.281992,0.670198,0.681085,-0.235813,1.067617
12948,6.882645,-5.977390,1.150992,0.481697,-0.140772,1.083293
12949,6.578057,-6.045215,1.441927,0.150577,-0.073721,1.128869
12950,6.213674,-6.712484,1.770392,-0.193244,-0.053623,1.180160
12951,6.014160,-7.687427,2.313611,-0.437538,-0.030172,1.241043
12952,5.853677,-8.713790,3.114540,-0.518404,0.015157,1.268408
12953,5.608026,-9.274068,3.736155,-0.492257,0.061603,1.270272
12954,5.331824,-9.401396,3.860360,-0.483325,0.070506,1.279208
12955,5.117907,-9.373546,3.441819,-0.464832,0.021668,1.287864
12956,5.156617,-9.393024,2.867657,-0.349579,-0.050847,1.287669
12957,5.332527,-9.298587,2.338043,-0.167934,-0.122090,1.275544
12958,5.456011,-8.978819,1.773718,0.057026,-0.178759,1.252247
12959,5.424833,-8.379716,1.206112,0.263192,-0.234720,1.217698
12960,5.321573,-7.780348,0.548719,0.363442,-0.260096,1.179256
12961,5.242876,-7.280559,0.120749,0.390966,-0.280031,1.145255
12962,5.143147,-7.111811,0.161571,0.327573,-0.318117,1.140834
12963,5.250915,-7.564375,0.637248,0.222645,-0.331602,1.139238
12964,5.220382,-8.155094,1.138844,0.151100,-0.288809,1.169277
12965,4.873805,-8.683971,1.508557,0.096624,-0.250672,1.203113
12966,4.439836,-9.162518,1.862825,0.071010,-0.272691,1.233815
12967,4.276345,-9.629012,2.516260,0.115946,-0.326683,1.240941
12968,4.296930,-10.037026,3.407264,0.214503,-0.344523,1.231599
12969,4.229376,-10.295281,4.182371,0.300907,-0.332509,1.216140
12970,3.947176,-10.526872,4.288477,0.406679,-0.360020,1.223176
12971,3.705269,-10.578541,3.690671,0.587153,-0.452703,1.216683
12972,3.627605,-10.214263,2.669917,0.838601,-0.574830,1.194703
12973,3.724574,-9.607629,1.700330,1.090864,-0.713594,1.142874
12974,4.077142,-9.064806,0.893324,1.332412,-0.814471,1.078025
12975,4.471069,-8.492248,0.509527,1.516860,-0.807955,1.035385
12976,4.565235,-7.838363,0.823944,1.603545,-0.716254,1.006901
12977,4.393511,-7.386564,1.029477,1.517765,-0.606824,0.992126
12978,4.024869,-6.836063,0.576261,1.357102,-0.536344,0.960886
12979,3.882253,-6.100424,0.105909,1.180808,-0.504898,0.896201
12980,4.156717,-5.510649,0.212274,0.875251,-0.427102,0.832208
12981,4.528900,-5.379369,1.097418,0.390908,-0.242667,0.830870
12982,4.727772,-5.985119,2.399522,-0.235855,0.002028,0.884356
12983,4.493719,-7.123194,3.458579,-0.880299,0.241792,0.987091
12984,3.785113,-8.124592,3.568825,-1.404253,0.407170,1.055060
12985,3.137788,-8.623232,3.179762,-1.739677,0.479377,1.054640
12986,2.954969,-8.844643,3.025016,-1.990263,0.427635,0.991871
12987,3.040673,-9.389717,3.268849,-2.194581,0.359797,0.934031
12988,2.789139,-10.478781,3.306686,-2.215985,0.295864,0.922027
12989,2.231664,-11.455917,2.739704,-1.965830,0.230600,0.948504
12990,1.732719,-11.871502,2.081050,-1.487884,0.111625,0.962144
12991,1.724473,-11.666611,1.802921,-0.861027,-0.057101,0.895242
12992,1.949666,-11.133045,1.708503,-0.272331,-0.194446,0.812510
12993,2.148883,-10.499682,1.780221,0.320250,-0.315288,0.726791
12994,2.118939,-9.676210,1.873657,0.779214,-0.400726,0.653554
12995,2.041593,-9.021932,1.960254,1.048028,-0.487785,0.608837
12996,1.961078,-8.877268,1.817793,1.150374,-0.604837,0.577906
12997,1.904442,-9.069687,1.189201,1.253210,-0.747884,0.562590
12998,2.122037,-9.239655,0.803451,1.418397,-0.873627,0.546988
12999,2.406218,-9.422716,0.856134,1.533039,-0.906603,0.535366
13000,2.571068,-9.497633,1.687800,1.613489,-0.855294,0.521341
13001,2.330015,-9.774891,2.984433,1.676017,-0.783281,0.525112
13002,1.734174,-10.061711,4.201662,1.717027,-0.763584,0.554465
13003,1.342686,-10.443174,4.948120,1.730731,-0.854444,0.589785
13004,1.443673,-10.750580,4.485746,1.809078,-1.030091,0.613034
13005,2.036853,-10.737080,3.381066,2.147036,-1.235016,0.571858
13006,2.894286,-10.301591,2.892300,2.678290,-1.377990,0.474567
13007,3.267821,-9.713144,2.860190,3.189869,-1.382731,0.385357
13008,2.817144,-8.663839,2.299068,3.556610,-1.239991,0.318426
13009,2.056941,-7.032192,2.274676,3.819067,-1.059854,0.236858
13010,1.612026,-5.610402,3.179680,3.717451,-0.957761,0.164580
13011,1.513222,-5.214493,3.637224,3.079347,-0.962536,0.126089
13012,1.918277,-5.850294,3.197668,2.472706,-0.997645,0.140933
13013,2.528241,-6.369377,2.956431,2.226491,-0.919456,0.185005
13014,2.710502,-6.340946,3.357716,2.009982,-0.777373,0.195688
13015,2.780109,-6.186812,4.401792,1.708966,-0.637439,0.166907
13016,2.566987,-6.252674,5.727852,1.343184,-0.509043,0.164887
13017,1.990712,-6.599960,6.565948,0.864207,-0.426556,0.201139
13018,1.481075,-7.563732,6.797048,0.483783,-0.450170,0.263732
13019,1.437409,-8.593516,6.272112,0.453898,-0.561958,0.342587
13020,1.739367,-9.240380,5.836655,0.707074,-0.683219,0.379312
13021,2.045984,-9.670568,5.433268,1.048878,-0.763732,0.374058
13022,2.077322,-9.673386,4.634822,1.463265,-0.782988,0.330599
13023,1.750893,-8.865283,4.496678,1.951834,-0.750205,0.251892
13024,1.317640,-7.685944,4.889167,2.221314,-0.766846,0.179056
13025,1.237146,-7.131322,5.414454,2.217562,-0.865647,0.129357
13026,1.429428,-7.333422,5.192075,2.140474,-0.951614,0.133960
13027,1.905403,-7.197543,4.135162,2.240955,-1.009563,0.108840
13028,2.561286,-6.345496,4.321696,2.441257,-0.955220,0.067742
13029,2.957590,-5.395904,5.269289,2.517053,-0.861632,0.031846
13030,3.132633,-4.663901,6.565242,2.385474,-0.745950,0.064519
13031,2.950205,-4.114202,7.855888,2.019265,-0.613840,0.150405
13032,2.429901,-3.934925,8.744632,1.347994,-0.505004,0.218666
13033,2.163842,-4.279458,8.287608,0.426163,-0.442434,0.276492
13034,2.198524,-5.371283,7.785805,-0.077304,-0.400726,0.297331
13035,2.179511,-6.572595,7.240552,-0.136777,-0.437760,0.305963
13036,2.160655,-7.850249,6.861252,0.128509,-0.541161,0.293786
13037,2.179692,-8.843649,6.765286,0.666044,-0.687369,0.260915
13038,2.145051,-9.311314,7.212468,1.465143,-0.856267,0.222119
13039,1.900713,-9.248996,7.805611,2.233211,-1.055553,0.200407
13040,1.844868,-8.815076,7.608541,2.858531,-1.267805,0.174123
13041,2.189640,-7.852308,7.022286,3.407683,-1.407681,0.139118
13042,2.752458,-6.539914,6.716972,3.826400,-1.482728,0.101883
13043,3.364220,-5.017377,6.186853,4.021961,-1.494875,0.042923
13044,3.832343,-3.309831,5.927562,4.117598,-1.370853,-0.012934
13045,3.993668,-1.557766,6.498651,4.127258,-1.204059,-0.062889
13046,3.893402,-0.145332,7.581683,3.648480,-1.060101,-0.062363
13047,3.863006,0.854690,7.713214,2.349624,-0.808357,-0.117149
13048,4.158365,1.271671,7.760237,0.734922,-0.478586,-0.093180
13049,4.001231,0.518075,8.020271,-0.660726,-0.112914,-0.020946
13050,3.891419,-0.717550,8.455355,-1.471109,0.105264,0.020249
13051,3.491946,-2.467404,9.661302,-1.759750,0.188604,0.126024
13052,3.038715,-4.813051,9.555923,-1.907675,0.083817,0.240523
13053,3.018855,-7.389189,8.445350,-1.668337,-0.039945,0.324494
13054,2.904638,-9.407306,7.420148,-0.539807,-0.186975,0.300550
13055,3.225715,-9.324211,6.840939,1.015968,-0.453254,0.193523
13056,3.724458,-7.281263,7.754319,2.169755,-0.601806,0.096554
13057,3.893920,-4.702470,8.427198,2.743979,-0.615058,0.011367
13058,3.912246,-2.467474,9.047046,2.719072,-0.582959,-0.044534
13059,4.020950,-0.910783,9.080733,2.124538,-0.508217,-0.058774
13060,4.084958,-0.415020,8.731605,1.259207,-0.410864,-0.042935
13061,4.099400,-0.675616,7.991022,0.579016,-0.266742,-0.020602
13062,4.376946,-0.695291,7.688563,0.330442,-0.103234,-0.045219
13063,4.430618,-0.324674,8.230829,0.031842,0.105868,-0.077605
13064,4.264231,-0.250290,8.444236,-0.601235,0.252743,-0.098388
13065,4.278478,-0.993669,8.616912,-1.267267,0.363182,-0.101372
13066,4.036000,-2.252880,8.750529,-1.694521,0.490034,-0.087178
13067,3.617809,-3.544926,8.292952,-1.925008,0.556751,-0.064677
13068,3.464248,-4.592157,7.679038,-1.772877,0.589094,-0.080566
13069,3.626738,-4.724281,7.394741,-1.343377,0.642512,-0.118676
13070,3.894924,-3.763193,7.615278,-1.115569,0.730693,-0.175048
13071,4.168300,-2.641955,7.853685,-1.299554,0.905796,-0.216847
13072,4.144701,-1.857742,8.100119,-1.775015,1.100397,-0.244751
13073,3.826010,-1.614507,8.629907,-2.448293,1.210233,-0.252969
13074,3.239854,-2.826874,9.299073,-3.203988,1.164286,-0.211210
13075,3.135670,-4.868817,8.349965,-3.907452,1.090773,-0.092005
13076,2.908770,-6.917987,6.964689,-3.855932,1.172331,-0.025211
13077,2.448364,-8.169088,6.182831,-2.997535,1.168092,0.002213
13078,2.204735,-8.330873,6.993710,-2.031517,1.015550,-0.014000
13079,2.142501,-7.815166,8.362364,-1.590428,0.870769,-0.007244
13080,1.691280,-7.864943,8.537514,-1.446715,0.705071,-0.008063
13081,1.558437,-8.390143,7.818076,-1.124057,0.485619,-0.016159
13082,1.832772,-8.498712,7.141571,-0.484627,0.333004,-0.019051
13083,2.115122,-7.667894,7.207364,0.186800,0.243311,-0.050293
13084,2.351479,-6.524823,7.242148,0.482671,0.203131,-0.080426
13085,2.474806,-5.660662,7.253791,0.491406,0.200878,-0.097458
13086,2.566462,-4.903255,6.962240,0.294924,0.256083,-0.101882
13087,2.658834,-4.349818,6.706252,0.002510,0.323375,-0.114739
13088,2.966329,-3.897393,6.420417,-0.354779,0.455459,-0.130126
13089,3.080394,-3.497418,6.254248,-0.801209,0.684442,-0.149428
13090,2.725490,-3.342538,6.743958,-1.313836,0.876166,-0.160812
13091,2.430078,-3.634491,6.733642,-2.088151,0.918474,-0.144350
13092,2.586760,-4.677496,6.299537,-2.755196,0.941962,-0.120920
13093,2.728646,-5.752242,5.859763,-2.909836,1.011269,-0.103458
13094,2.787534,-6.379071,5.980121,-2.675014,1.081270,-0.108162
13095,2.613882,-6.425603,6.869703,-2.591985,1.145312,-0.110587
13096,2.099794,-6.909471,7.170849,-2.792996,1.137087,-0.088341
13097,1.615658,-8.045619,6.538106,-2.998848,1.040443,-0.035123
13098,1.384463,-9.605401,5.193808,-2.881445,0.892537,0.015980
13099,1.599659,-10.726096,4.268687,-2.210004,0.784191,0.017062
13100,1.998031,-10.387037,4.182187,-1.513122,0.821456,-0.019541
13101,2.098811,-9.058348,4.640791,-1.148275,0.906212,-0.050666
13102,2.097577,-7.708709,5.433781,-1.083829,0.941633,-0.088821
13103,2.011712,-6.797860,6.146098,-1.299581,0.936751,-0.102400
13104,1.728455,-6.524386,6.432330,-1.730903,0.922526,-0.092845
13105,1.480868,-7.187236,5.536656,-2.149992,0.879388,-0.087497
13106,1.692306,-7.852321,4.092517,-2.271966,0.896653,-0.078667
13107,2.273330,-7.714170,2.980548,-2.132586,1.024673,-0.096717
13108,2.926851,-6.431911,3.399897,-1.989337,1.238863,-0.152740
13109,3.402231,-4.933286,4.454059,-2.140535,1.447933,-0.258261
13110,3.389610,-4.074499,5.382671,-2.739938,1.584660,-0.354285
13111,2.574282,-4.723965,5.622524,-3.820887,1.605853,-0.367717
13112,1.572283,-7.431867,3.801886,-4.865612,1.421958,-0.282872
13113,0.874625,-11.140521,0.986851,-4.900318,1.218188,-0.166560
13114,0.708592,-13.726057,-0.083369,-3.679183,1.114118,-0.121432
13115,0.650311,-13.959292,0.889733,-2.432288,1.052445,-0.122261
13116,0.195261,-13.212413,1.624804,-1.741877,0.986775,-0.179603
13117,-0.333364,-12.362434,2.109282,-1.247101,0.873027,-0.229458
13118,-0.489193,-11.471284,2.401312,-0.915323,0.743810,-0.239974
13119,0.051976,-10.276431,2.506726,-0.643218,0.655446,-0.211262
13120,0.640301,-9.216671,2.649690,-0.547521,0.611855,-0.183021
13121,1.186441,-8.714466,2.399963,-0.675176,0.588057,-0.162324
13122,1.466502,-8.764815,1.926768,-0.756614,0.568354,-0.159125
13123,1.634556,-8.940474,1.430513,-0.751467,0.550978,-0.150305
13124,1.438346,-9.215549,1.145597,-0.728749,0.512969,-0.173720
13125,1.240209,-9.537207,1.206530,-0.701928,0.471587,-0.202872
13126,0.843884,-9.951140,1.446445,-0.677792,0.427433,-0.210492
13127,0.509345,-10.327323,1.259246,-0.664398,0.382892,-0.182764
13128,0.489530,-10.406104,1.116665,-0.592251,0.351503,-0.138247
13129,0.917338,-10.110901,1.169723,-0.538682,0.360425,-0.113959
13130,1.458437,-9.357308,1.138000,-0.545617,0.468049,-0.108508
13131,1.592001,-8.518661,1.644455,-0.631869,0.578980,-0.128285
13132,1.387324,-8.358204,2.235962,-0.957706,0.578989,-0.149828
13133,1.216487,-9.247303,1.645328,-1.300157,0.512705,-0.142714
13134,1.462888,-9.996238,0.243771,-1.276293,0.524041,-0.109651
13135,2.049970,-9.324723,-0.643099,-1.006885,0.677353,-0.105765
13136,2.643911,-7.766799,-0.336679,-0.941152,0.898349,-0.150199
13137,2.937112,-6.711962,0.542782,-1.288015,1.069630,-0.198803
13138,2.613091,-6.829165,1.459934,-1.934853,1.133589,-0.228152
13139,1.696692,-8.328515,0.767881,-2.647984,1.082893,-0.180935
13140,1.002386,-10.274945,-0.538885,-2.880498,0.962505,-0.114264
13141,1.055413,-11.363993,-1.266649,-2.533776,0.867088,-0.103374
13142,1.783657,-11.010598,-0.747151,-1.962777,0.823413,-0.176806
13143,2.409784,-9.991313,0.092949,-1.611652,0.811984,-0.305985
13144,2.486014,-9.504317,0.800916,-1.422564,0.788500,-0.380515
13145,1.842903,-9.897460,0.674369,-1.343994,0.729607,-0.373173
13146,0.982239,-10.593691,-0.254877,-1.173592,0.641333,-0.319019
13147,0.643580,-10.799873,-1.297511,-0.833411,0.547303,-0.269904
13148,1.170984,-10.180636,-1.739729,-0.464777,0.498593,-0.253511
13149,1.935478,-9.102932,-1.945123,-0.284612,0.520895,-0.266003
13150,2.625031,-8.004201,-2.112403,-0.316047,0.595614,-0.292089
13151,2.985966,-7.176704,-1.783648,-0.516065,0.710275,-0.312383
13152,3.040097,-6.876038,-1.334797,-0.958666,0.819854,-0.355704
13153,2.452316,-7.547063,-1.365032,-1.541162,0.838920,-0.372791
13154,1.736326,-9.189243,-2.116792,-2.080998,0.827337,-0.356524
13155,1.216580,-10.758748,-3.070657,-2.240843,0.851022,-0.305416
13156,1.018927,-11.234439,-3.473743,-1.946362,0.860234,-0.275359
13157,1.284868,-10.406867,-2.861556,-1.735822,0.874542,-0.290392
13158,1.487373,-9.717627,-1.460266,-1.817373,0.847059,-0.341434
13159,1.331530,-10.283001,-0.601342,-2.012687,0.741260,-0.355647
13160,0.955710,-11.473488,-0.609073,-1.908891,0.603696,-0.314114
13161,0.523978,-12.437183,-0.612553,-1.354534,0.422791,-0.249748
13162,0.435830,-13.142497,-0.855115,-0.702127,0.201140,-0.219802
13163,0.872792,-13.060775,-2.333934,0.125573,0.075689,-0.224497
13164,1.435399,-11.688627,-3.436656,1.110343,0.032211,-0.231193
13165,1.948705,-9.782674,-3.355082,1.757703,-0.033384,-0.263247
13166,2.592137,-8.157439,-2.866934,1.887088,-0.063438,-0.286524
13167,3.003747,-7.024812,-2.368270,1.730538,-0.011153,-0.273110
13168,3.247909,-6.300459,-1.897794,1.311448,0.102818,-0.272091
13169,3.363860,-6.028113,-1.831492,0.635582,0.215177,-0.250947
13170,3.333827,-6.600669,-1.856088,-0.104363,0.316681,-0.269093
13171,3.380559,-7.608496,-1.800541,-0.654937,0.424023,-0.297335
13172,3.288488,-8.699727,-1.481825,-0.969883,0.529309,-0.308877
13173,2.921801,-9.889796,-1.201069,-1.130462,0.582842,-0.297494
13174,2.408753,-10.999556,-0.915296,-1.073211,0.540218,-0.276141
13175,2.178163,-11.647095,-0.962828,-0.756941,0.408547,-0.279539
13176,2.290758,-11.660383,-0.952378,-0.274539,0.252530,-0.323379
13177,2.708530,-11.349907,-0.917967,0.319128,0.097675,-0.390891
13178,3.178999,-11.146940,-1.350649,0.909751,-0.011217,-0.447901
13179,3.246444,-10.830672,-2.123505,1.507078,-0.027106,-0.428776
13180,2.896919,-10.458752,-2.441836,2.024879,-0.049145,-0.366680
13181,2.786113,-9.993154,-1.929664,2.365084,-0.131253,-0.293518
13182,3.102097,-9.303653,-1.034744,2.511026,-0.262948,-0.267438
13183,3.904229,-8.514428,-0.447273,2.443797,-0.348407,-0.320791
13184,4.576727,-7.698311,-0.538746,2.262786,-0.322305,-0.430404
13185,4.740910,-7.189053,-0.538834,2.003830,-0.172964,-0.517799
13186,4.104967,-7.204835,-0.583118,1.643707,0.029614,-0.594162
13187,3.252140,-7.421705,-0.268514,1.371230,0.189228,-0.650709
13188,2.870934,-7.672042,0.222590,1.013375,0.262218,-0.654620
13189,2.859848,-8.248507,0.200659,0.578328,0.268353,-0.577278
13190,3.108038,-9.254054,0.117032,0.317912,0.244330,-0.492451
13191,3.360216,-10.370442,0.196677,0.254553,0.236463,-0.457810
13192,3.361581,-11.238919,-0.058043,0.413493,0.228985,-0.478422
13193,3.113525,-11.345239,-0.299933,0.797850,0.177278,-0.535223
13194,2.866673,-11.040664,-0.332992,1.202318,0.069082,-0.622673
13195,2.783509,-10.520335,-0.532940,1.533062,-0.050143,-0.684261
13196,2.759417,-9.788816,-0.561277,1.863536,-0.130343,-0.724117
13197,2.839815,-8.736717,-0.617593,2.065568,-0.199968,-0.749142
13198,3.171079,-7.711431,-0.772974,2.113040,-0.261099,-0.777272
13199,3.738522,-6.654647,-1.054922,2.017987,-0.251431,-0.836819
13200,4.230920,-5.859217,-0.835962,1.747791,-0.175715,-0.899978
13201,4.566498,-5.593599,-0.473904,1.302437,-0.018243,-0.943160
13202,4.619073,-5.905982,0.249740,0.821571,0.159980,-0.976395
13203,4.782500,-6.475223,1.109513,0.323664,0.340820,-0.979057
13204,4.734644,-7.515551,1.709838,-0.188298,0.468373,-0.916495
13205,4.639915,-8.777659,1.986486,-0.530604,0.516089,-0.854565
13206,4.613020,-9.818044,2.324060,-0.630218,0.527324,-0.822753
13207,4.451376,-10.445305,2.533016,-0.548141,0.511362,-0.825458
13208,4.145851,-10.565105,2.358392,-0.335616,0.463418,-0.850790
13209,3.776058,-10.415727,1.827898,-0.023172,0.359388,-0.892821
13210,3.752020,-10.166459,1.566543,0.380553,0.192282,-0.922664
13211,4.047467,-9.808348,1.008082,0.779941,0.045828,-0.951292
13212,4.292475,-8.939139,0.045320,1.167533,-0.066464,-0.979220
13213,4.550210,-7.935085,-0.103924,1.523061,-0.128148,-1.024804
13214,4.888386,-7.252785,0.620025,1.675007,-0.109896,-1.088478
13215,5.053126,-6.739833,1.202990,1.597207,-0.053676,-1.112613
13216,5.117458,-6.265443,1.436820,1.456181,-0.026779,-1.102908
13217,5.344275,-6.043969,1.772451,1.128786,-0.003682,-1.042980
13218,5.993106,-6.536142,1.739025,0.547923,0.048678,-0.901824
13219,6.624583,-7.577696,1.472480,0.128890,0.139713,-0.766077
13220,6.746890,-8.390629,1.764423,0.052017,0.251731,-0.745628
13221,6.478681,-8.545170,2.829443,0.046793,0.341632,-0.831401
13222,6.052702,-8.609943,3.712299,-0.094371,0.404227,-0.920956
13223,5.607266,-8.905642,4.144222,-0.203808,0.407454,-0.981683
13224,5.322273,-9.287242,4.164632,-0.184623,0.396971,-0.991365
13225,4.921638,-9.340906,3.186123,-0.021131,0.345842,-0.991889
13226,4.713292,-8.835458,1.642284,0.301337,0.223658,-1.023855
13227,4.927746,-8.024178,0.715682,0.724431,0.056207,-1.097072
13228,5.478232,-7.598354,0.193765,1.018222,-0.098015,-1.143439
13229,5.996976,-7.449019,0.061104,1.200507,-0.162922,-1.147921
13230,6.167950,-7.200075,0.405776,1.282316,-0.145895,-1.141723
13231,6.235380,-6.785408,0.743958,1.246152,-0.115386,-1.139048
13232,6.491480,-6.355997,1.056133,1.023846,-0.091999,-1.107865
13233,6.983867,-6.274554,1.435654,0.660822,-0.057454,-1.046189
13234,7.261951,-6.444384,1.961104,0.325535,0.028683,-1.005995
13235,7.233717,-6.522313,2.569002,0.077108,0.157776,-1.016122
13236,6.962926,-6.411894,3.470928,-0.193058,0.291507,-1.045163
13237,6.793985,-6.559687,4.006556,-0.578851,0.376514,-1.066285
13238,6.868490,-7.155575,4.146671,-0.904674,0.432884,-1.049702
13239,6.994748,-8.025398,4.024389,-1.011261,0.457757,-0.995917
13240,6.879111,-9.002759,3.688860,-0.909837,0.438228,-0.928091
13241,6.367703,-9.830263,2.962212,-0.554454,0.368447,-0.901500
13242,5.696248,-9.949190,2.071815,0.030535,0.222195,-0.927078
13243,5.342626,-9.138002,1.266665,0.619745,-0.041920,-0.971136
13244,5.517651,-8.007276,0.868484,1.114561,-0.324932,-1.040914
13245,6.062526,-6.609489,0.814552,1.474824,-0.519882,-1.123734
13246,6.595826,-5.258581,1.113616,1.619224,-0.586351,-1.180611
13247,7.067362,-4.267631,1.641983,1.585629,-0.552122,-1.182174
13248,7.465120,-3.616584,2.320114,1.353622,-0.439940,-1.112698
13249,7.862937,-3.392748,3.165702,0.844928,-0.286214,-1.004595
13250,8.026310,-3.612459,3.682834,0.039836,-0.122852,-0.926680
13251,8.050323,-4.432455,3.589509,-0.691764,0.029717,-0.891646
13252,7.761739,-5.484350,3.119408,-1.044914,0.150937,-0.880541
13253,7.400668,-6.522156,2.690711,-0.987690,0.198207,-0.904358
13254,7.339434,-7.084811,2.796267,-0.805470,0.176524,-0.928771
13255,7.578660,-7.469366,2.773965,-0.744324,0.147730,-0.887794
13256,7.718466,-8.074757,2.624257,-0.603955,0.127413,-0.822757
13257,7.666484,-8.371536,2.385578,-0.246673,0.071357,-0.793348
13258,7.507904,-8.073943,2.347950,0.173702,-0.001546,-0.788175
13259,7.280762,-7.342384,2.074632,0.438838,-0.090909,-0.806999
13260,7.175781,-6.405012,1.713536,0.617609,-0.190375,-0.832744
13261,7.386286,-5.690182,1.719559,0.727535,-0.296836,-0.834403
13262,7.722851,-5.138936,1.871518,0.748815,-0.347265,-0.793420
13263,7.901620,-4.696589,2.019048,0.681870,-0.309477,-0.743957
13264,7.944542,-4.192316,2.036976,0.531559,-0.254926,-0.707744
13265,7.999736,-3.837784,2.061653,0.239674,-0.228930,-0.644672
13266,8.113012,-3.877860,1.753052,-0.219210,-0.168209,-0.596399
13267,8.219650,-4.387449,1.357230,-0.568594,-0.114992,-0.533469
13268,8.210258,-5.088254,1.283137,-0.624159,-0.091791,-0.483680
13269,8.184376,-5.851863,2.089427,-0.485680,-0.072084,-0.434943
13270,7.904347,-6.565777,3.110255,-0.377606,-0.039110,-0.376367
13271,7.631564,-6.865458,3.577374,-0.280798,-0.062676,-0.317950
13272,7.582316,-6.576479,3.646191,-0.110536,-0.134967,-0.267737
13273,7.685054,-6.242251,3.647942,0.011848,-0.208466,-0.251342
13274,7.721890,-6.269552,3.409591,0.144776,-0.273615,-0.239966
13275,7.701656,-6.358844,3.173058,0.362388,-0.332950,-0.230818
13276,7.730021,-6.086194,2.708338,0.659207,-0.412631,-0.216796
13277,7.877317,-5.335750,1.855948,0.893960,-0.458032,-0.251423
13278,8.011562,-4.222168,0.974794,0.995018,-0.487294,-0.331451
13279,8.269114,-3.320194,0.554018,0.992435,-0.550057,-0.422070
13280,8.715482,-2.736053,0.467639,0.923632,-0.561070,-0.467014
13281,9.238189,-2.320288,0.775608,0.794040,-0.473039,-0.414003
13282,9.450799,-2.267974,1.907034,0.500989,-0.300192,-0.296530
13283,9.258930,-2.635410,3.084036,-0.102614,-0.121504,-0.184991
13284,8.861778,-3.678076,3.644260,-0.750192,0.010342,-0.077978
13285,8.333307,-4.996845,3.755300,-1.078612,0.086438,-0.005311
13286,7.735340,-5.816761,3.207363,-1.014346,0.097999,-0.003163
13287,7.474382,-6.082552,2.904211,-0.685754,0.002233,-0.020245
13288,7.734921,-5.973761,2.795158,-0.434023,-0.120592,-0.025972
13289,8.190746,-5.826521,2.386309,-0.226008,-0.209331,-0.009279
13290,8.590553,-5.668593,1.898509,0.104979,-0.271758,-0.011830
13291,8.814258,-5.362919,1.560424,0.422404,-0.310145,-0.036519
13292,8.824584,-4.887388,1.024325,0.622155,-0.297605,-0.077211
13293,8.764273,-4.311940,0.820879,0.814709,-0.298345,-0.110663
13294,8.770519,-3.648319,1.328610,0.948259,-0.313656,-0.124444
13295,8.877958,-3.037196,2.125989,0.915489,-0.298992,-0.125185
13296,8.968264,-2.576989,2.835801,0.689943,-0.243567,-0.109921
13297,8.955200,-2.355680,3.220999,0.201358,-0.165498,-0.077736
13298,8.836555,-2.723546,2.997151,-0.396215,-0.094976,-0.048338
13299,8.844121,-3.511678,2.757584,-0.655083,-0.059523,-0.046859
13300,8.956947,-4.290362,2.660632,-0.535773,-0.034111,-0.069308
13301,8.942694,-4.582772,2.661073,-0.274810,0.019319,-0.088943
13302,8.746021,-4.623720,2.822818,-0.168525,0.053195,-0.098356
13303,8.596036,-4.893045,2.622583,-0.182787,0.043923,-0.097150
13304,8.486835,-5.228641,2.061525,-0.097328,0.004723,-0.079900
13305,8.327644,-5.357012,1.747962,0.166503,-0.064781,-0.101790
13306,8.395356,-5.048844,1.631434,0.406792,-0.134858,-0.110999
13307,8.586271,-4.640509,1.662317,0.541892,-0.187124,-0.104132
13308,8.776357,-4.217286,1.781119,0.625185,-0.197751,-0.102210
13309,8.863570,-3.806579,2.056758,0.623322,-0.173556,-0.102148
13310,8.803624,-3.584995,2.251379,0.517855,-0.139869,-0.092281
13311,8.704221,-3.491505,2.277011,0.367389,-0.116158,-0.089099
13312,8.725746,-3.483162,2.239685,0.262109,-0.105781,-0.086047
13313,8.735337,-3.537380,2.328336,0.169390,-0.100451,-0.075689
13314,8.737555,-3.720309,2.263900,0.075687,-0.078577,-0.063537
13315,8.706323,-3.981040,2.105838,0.043162,-0.064520,-0.062461
13316,8.628116,-4.185209,2.104589,0.067506,-0.066790,-0.066797
13317,8.711203,-4.276481,2.058956,0.124258,-0.078932,-0.064326
13318,8.704984,-4.239289,1.987225,0.180692,-0.088889,-0.061727
13319,8.667301,-4.188237,1.993238,0.211424,-0.109498,-0.059762
13320,8.586618,-4.169568,1.924672,0.221713,-0.130864,-0.058535
13321,8.596900,-4.181664,1.913352,0.255460,-0.144114,-0.063529
13322,8.630391,-4.050276,1.963567,0.302541,-0.149549,-0.069282
13323,8.659196,-3.917197,2.073612,0.324655,-0.152017,-0.062558
13324,8.729833,-3.804716,2.126046,0.300585,-0.155924,-0.055699
13325,8.862560,-3.743239,2.072243,0.268626,-0.152012,-0.048468
13326,9.007042,-3.671956,2.128184,0.253960,-0.141279,-0.045517
13327,9.060585,-3.592004,2.176962,0.227206,-0.125563,-0.042656
13328,9.161152,-3.517846,2.199592,0.188101,-0.098858,-0.042060
13329,9.100925,-3.477327,2.211723,0.114722,-0.070504,-0.041788
13330,9.078216,-3.419919,2.266023,0.050193,-0.046612,-0.040503
13331,9.027810,-3.447861,2.309951,-0.032773,-0.030384,-0.030659
13332,8.958962,-3.585814,2.273761,-0.115440,-0.021975,-0.014627
13333,8.925137,-3.822315,2.160372,-0.169358,-0.017305,-0.004214
13334,8.941019,-3.950346,2.136706,-0.163905,-0.011623,-0.006232
13335,8.925395,-3.983190,2.130161,-0.133253,0.006784,-0.013536
13336,8.833986,-4.014354,2.080101,-0.131519,0.015691,-0.004631
13337,8.763312,-4.037466,2.022033,-0.130339,0.022877,0.000614
13338,8.735754,-4.064611,1.996978,-0.123246,0.011925,0.004587
13339,8.758349,-4.100820,2.085138,-0.094168,-0.001362,0.008920
13340,8.832651,-4.142843,2.087130,-0.087269,-0.002515,0.008584
13341,8.799274,-4.185175,2.032276,-0.070740,0.004927,0.006534
13342,8.805664,-4.133302,2.100381,-0.028221,0.007137,0.005529
13343,8.765479,-4.155984,2.257689,-0.014991,0.011243,0.006693
13344,8.721855,-4.270738,2.246112,-0.022140,0.002840,0.009496
13345,8.611081,-4.385876,2.069478,0.019306,-0.015100,0.025360
13346,8.626534,-4.356218,2.070928,0.102948,-0.029268,0.024562
13347,8.701622,-4.239678,2.097062,0.169057,-0.044301,0.026003
13348,8.713633,-4.147288,2.149985,0.204585,-0.051102,0.018100
13349,8.772511,-4.037724,2.126464,0.222946,-0.047241,0.011789
13350,8.784205,-3.922393,2.129656,0.214352,-0.041403,0.002878
13351,8.800037,-3.866916,2.084527,0.204050,-0.030096,0.000175
13352,8.847959,-3.809120,2.052019,0.190147,-0.014298,-0.005473
13353,8.884591,-3.804264,2.010681,0.161299,0.002913,-0.006128
13354,8.877487,-3.796717,1.936837,0.131819,0.022768,-0.002826
13355,8.888274,-3.800060,1.964168,0.113655,0.016484,-0.002170
13356,8.919402,-3.833350,1.943217,0.096111,0.023091,-0.010242
13357,8.956545,-3.791405,1.941010,0.096958,0.039899,-0.015254
13358,8.904860,-3.721897,2.022519,0.088799,0.045528,-0.022555
13359,8.942818,-3.641293,2.059188,0.043663,0.049439,-0.019225
13360,8.922216,-3.608535,2.112614,0.013175,0.059697,-0.027096
13361,8.922797,-3.626279,2.168615,-0.045426,0.071071,-0.033386
13362,8.872517,-3.734842,2.083156,-0.094835,0.083847,-0.033006
13363,8.823932,-3.825129,2.087059,-0.080139,0.088381,-0.040091
13364,8.792282,-3.845899,2.130181,-0.078200,0.086810,-0.042575
13365,8.780613,-3.934934,2.086614,-0.075893,0.081237,-0.041071
13366,8.758709,-3.920864,2.048849,-0.063381,0.077828,-0.043114
13367,8.769255,-3.903518,2.023614,-0.036832,0.067946,-0.047628
13368,8.743832,-3.847937,2.084953,-0.009977,0.063994,-0.046641
13369,8.776836,-3.803348,2.141258,-0.019769,0.063374,-0.045262
13370,8.744057,-3.879909,2.054987,-0.067690,0.065564,-0.035139
13371,8.731104,-4.005189,1.830143,-0.089755,0.064117,-0.033514
13372,8.715840,-3.995696,1.871240,-0.041536,0.054158,-0.037443
13373,8.739035,-3.890059,2.033846,-0.013852,0.053368,-0.040785
13374,8.707720,-3.754604,2.091343,-0.042406,0.054610,-0.041054
13375,8.782499,-3.829814,2.061731,-0.096072,0.058769,-0.034997
13376,8.744814,-3.885820,1.981264,-0.128125,0.066394,-0.036282
13377,8.681386,-4.045621,1.940680,-0.112873,0.059048,-0.039045
13378,8.676531,-3.984075,1.990188,-0.073654,0.057971,-0.036418
13379,8.730345,-3.895061,2.074378,-0.057773,0.040671,-0.033172
13380,8.805943,-3.953295,2.132754,-0.084266,0.040488,-0.030147
