// Start Time: Unknown
// Update Rate: 100.0Hz
// Filter Profile: human (46.1)
// Firmware Version: 4.3.5
PacketCounter,Acc_X,Acc_Y,Acc_Z,Gyr_X,Gyr_Y,Gyr_Z
41217,9.611423,-1.875133,1.295080,-0.032231,0.009073,-0.016174
41218,9.627798,-1.894006,1.272354,-0.032971,0.011097,-0.014009
41219,9.667899,-1.935944,1.260190,-0.031378,0.010815,-0.008274
41220,9.660323,-1.932984,1.226855,-0.024517,0.005175,-0.001769
41221,9.661596,-1.988310,1.275390,-0.014303,0.007039,0.003075
41222,9.654676,-2.023277,1.274195,-0.005778,0.000468,0.017409
41223,9.653858,-2.006889,1.257794,0.009124,-0.007298,0.023535
41224,9.660591,-1.993557,1.274807,0.022272,-0.008485,0.025583
41225,9.651099,-1.960291,1.315133,0.026177,-0.006079,0.025173
41226,9.626470,-1.921314,1.288438,0.033152,-0.007994,0.026171
41227,9.649810,-1.946219,1.298936,0.024304,-0.003213,0.026610
41228,9.640391,-1.912482,1.339650,0.030610,-0.003779,0.016301
41229,9.639700,-1.895084,1.324097,0.026598,0.004465,0.010748
41230,9.669511,-1.866303,1.320690,0.021816,0.005353,0.009120
41231,9.660869,-1.827300,1.255909,0.011379,0.010409,0.003817
41232,9.615269,-1.873392,1.316956,0.006787,0.014377,-0.001226
41233,9.600813,-1.904247,1.283606,0.006787,0.014378,-0.001225
41234,9.625523,-1.941224,1.205143,0.010659,0.007406,0.000129
41235,9.719519,-1.954807,1.077045,0.034513,-0.001404,0.000335
41236,9.984534,-1.960966,0.803780,0.080967,-0.021935,-0.010031
41237,10.184010,-1.871409,0.711366,0.143147,-0.048455,-0.021874
41238,10.133841,-1.676164,0.557393,0.201772,-0.076059,-0.030319
41239,9.976478,-1.512101,0.403506,0.251092,-0.133677,-0.039480
41240,9.813787,-1.436027,0.292178,0.318827,-0.193770,-0.051071
41241,9.726901,-1.572034,0.339447,0.386533,-0.244715,-0.062081
41242,9.546608,-1.654556,0.481809,0.484748,-0.280634,-0.073533
41243,9.533980,-1.624850,0.592099,0.587225,-0.300591,-0.100903
41244,9.527624,-1.402336,1.191940,0.641555,-0.288991,-0.114207
41245,9.509635,-1.010990,1.714665,0.583277,-0.228724,-0.109313
41246,9.417187,-0.550011,1.991724,0.397665,-0.176220,-0.114018
41247,9.301402,-0.229586,1.985167,0.101590,-0.114431,-0.129335
41248,9.228775,-0.081656,1.982774,-0.270305,-0.065490,-0.137592
41249,9.260239,-0.487960,1.899518,-0.632771,-0.018851,-0.135270
41250,9.379881,-1.179089,1.759842,-0.901844,0.023798,-0.130132
41251,9.526164,-1.946275,1.563320,-1.028684,0.064556,-0.113789
41252,9.654360,-2.461021,1.304239,-1.030413,0.077235,-0.100139
41253,9.805105,-2.734116,1.157324,-0.960961,0.078967,-0.076149
41254,9.837974,-2.777930,1.092578,-0.875277,0.073676,-0.038909
41255,9.782640,-2.931827,1.056873,-0.773265,0.045713,-0.003995
41256,9.786496,-3.192285,1.118345,-0.625838,0.001925,0.032506
41257,9.820552,-3.474805,1.114501,-0.435633,-0.038266,0.076133
41258,9.813565,-3.789400,0.885656,-0.174353,-0.085080,0.123189
41259,9.698061,-3.741160,0.801747,0.141874,-0.129908,0.132237
41260,9.790823,-3.075522,0.920636,0.361690,-0.158856,0.158803
41261,9.799465,-2.183100,1.047910,0.426230,-0.166771,0.171001
41262,9.766386,-1.279716,0.804758,0.291252,-0.150563,0.187489
41263,9.496893,-0.555850,-0.207666,0.071230,-0.143909,0.194100
41264,9.374448,-0.631771,-1.002110,-0.080834,-0.140933,0.211998
41265,9.854033,-1.994760,0.138708,-0.183603,-0.011327,0.285088
41266,10.012109,-3.143447,2.343323,-0.320428,0.216396,0.378093
41267,9.514587,-3.139332,3.398040,-0.402569,0.325030,0.374920
41268,9.439526,-2.247211,3.789781,-0.562163,0.305541,0.281325
41269,9.399309,-2.041242,3.537614,-0.777463,0.316529,0.221142
41270,8.973600,-3.173946,2.585648,-0.747605,0.232482,0.147502
41271,8.792594,-5.093896,0.776575,-0.376078,0.050012,0.167737
41272,8.815034,-6.772457,-0.706477,0.395633,-0.123997,0.171172
41273,9.451378,-6.571339,-0.323045,1.357377,-0.220158,0.145052
41274,10.080159,-4.457339,0.444870,1.832960,-0.277223,0.201186
41275,10.701252,-1.968566,1.185556,1.826957,-0.249210,0.229477
41276,11.041332,-0.402796,1.975752,1.290473,-0.160155,0.404658
41277,10.680920,-0.392774,2.132504,0.587588,-0.033414,0.549793
41278,9.996403,-0.594173,1.543631,0.012132,0.072020,0.565636
41279,9.503116,-0.790447,1.001415,-0.440221,0.129872,0.542797
41280,9.494594,-1.545647,1.149371,-0.813813,0.220424,0.552231
41281,9.264353,-2.469746,1.323842,-1.067049,0.294591,0.580424
41282,9.060401,-3.013728,1.065883,-1.163172,0.313478,0.590339
41283,8.833725,-3.401589,0.780682,-1.125224,0.283832,0.593540
41284,8.801997,-4.060185,0.616446,-0.967190,0.200542,0.626959
41285,8.926180,-5.034041,0.484789,-0.600060,0.084372,0.624974
41286,9.089040,-5.950238,0.388842,-0.019648,-0.042941,0.615141
41287,9.399916,-6.288094,0.422544,0.691777,-0.165471,0.603407
41288,9.606784,-5.645484,0.060249,1.328789,-0.256089,0.620139
41289,9.799363,-4.331683,-0.139375,1.730289,-0.354558,0.626541
41290,10.314348,-2.993443,0.944048,1.762038,-0.328079,0.679191
41291,10.399640,-2.056982,2.170770,1.400757,-0.229503,0.771274
41292,10.001901,-1.188849,2.270690,0.824146,-0.158355,0.816188
41293,9.911313,-0.739528,1.881287,0.181200,-0.091345,0.843745
41294,9.868272,-1.420452,1.713184,-0.476101,0.070432,0.929282
41295,9.478662,-2.826505,1.860673,-0.938920,0.240151,1.005912
41296,9.030642,-4.078875,1.865757,-1.155875,0.320921,1.040981
41297,8.886211,-4.497924,2.119366,-1.112402,0.365609,1.010023
41298,8.893169,-4.272367,2.348838,-1.034145,0.374262,0.979170
41299,8.707211,-4.293231,1.808914,-0.927948,0.332826,0.919692
41300,8.516202,-4.876566,1.378397,-0.727079,0.256994,0.862733
41301,8.409492,-5.787040,0.782266,-0.373394,0.156840,0.802532
41302,8.286499,-6.437030,0.490897,0.193924,0.055460,0.723220
41303,8.385860,-6.036693,0.442832,0.805857,-0.051027,0.621754
41304,8.800949,-5.004735,0.640575,1.196863,-0.119901,0.578634
41305,9.284557,-4.117777,1.378325,1.287808,-0.108096,0.583031
41306,9.318914,-3.242247,1.740762,1.091312,-0.044762,0.596666
41307,8.952834,-2.494868,1.366254,0.784242,-0.026638,0.569503
41308,9.100857,-2.533878,1.899793,0.409152,0.051923,0.635999
41309,9.140913,-3.340605,2.367137,0.005408,0.208459,0.732372
41310,8.989980,-3.936076,2.490320,-0.314844,0.360486,0.800212
41311,8.769684,-4.208659,2.731887,-0.586583,0.464009,0.840229
41312,8.651408,-4.096799,2.838033,-0.867588,0.537017,0.870094
41313,8.567190,-4.226254,2.545090,-1.154898,0.579712,0.866360
41314,8.389038,-4.986242,1.607047,-1.351594,0.585351,0.872156
41315,8.076051,-6.180497,0.407463,-1.308666,0.540323,0.875631
41316,7.952905,-7.129014,0.167464,-1.011802,0.442322,0.834055
41317,8.100810,-7.392581,0.692647,-0.594033,0.327135,0.763325
41318,8.396936,-7.369881,1.095838,-0.206436,0.229926,0.756417
41319,8.606251,-7.721396,0.994945,0.175005,0.132016,0.788788
41320,8.630668,-7.965702,0.540062,0.609763,0.041993,0.838940
41321,8.670934,-7.348633,0.245818,1.048968,-0.022340,0.851984
41322,8.893831,-6.214824,0.793487,1.278545,-0.040740,0.889126
41323,9.303739,-5.304879,1.752682,1.238886,0.004466,0.968656
41324,9.450289,-4.879778,2.451954,0.952224,0.099615,1.105665
41325,9.371246,-4.823756,2.651042,0.532944,0.199140,1.225130
41326,9.102721,-5.086661,2.655409,0.084461,0.294911,1.291403
41327,8.672030,-5.652495,2.336636,-0.257658,0.352074,1.328173
41328,8.203942,-6.048873,2.048530,-0.430040,0.367430,1.305348
41329,7.629647,-6.423001,1.813790,-0.434182,0.332859,1.224535
41330,6.872451,-6.927288,1.003820,-0.201875,0.203673,1.098321
41331,6.329656,-7.826923,-0.047699,0.353320,-0.026656,0.961932
41332,6.363571,-9.184588,-0.487071,1.173513,-0.319273,0.835231
41333,7.231424,-9.969570,-0.073246,2.193285,-0.519119,0.669061
41334,8.230783,-8.687839,0.563368,3.085104,-0.619556,0.588387
41335,9.105936,-6.627926,1.142971,3.533006,-0.629244,0.550898
41336,9.768544,-4.492878,2.387681,3.442331,-0.455975,0.609876
41337,9.765822,-3.071377,3.657691,2.825241,-0.228797,0.775124
41338,9.466866,-2.192400,4.521888,1.964346,0.028682,0.900242
41339,8.920580,-1.631363,5.249928,0.966877,0.264550,1.018198
41340,8.264047,-2.113322,5.176973,-0.081951,0.446946,1.096321
41341,7.785268,-3.036232,4.794745,-0.935587,0.587151,1.088513
41342,7.255109,-4.299460,4.139070,-1.483751,0.681538,1.049401
41343,6.835938,-6.032688,3.026889,-1.641564,0.667148,1.003064
41344,6.529688,-8.003948,1.561483,-1.326359,0.604678,0.945606
41345,6.260019,-9.640975,0.926349,-0.578360,0.527538,0.819333
41346,6.318899,-10.140658,1.743772,0.339390,0.428590,0.648781
41347,6.572726,-9.366012,2.352070,1.094679,0.334105,0.581120
41348,7.018227,-8.310256,2.854721,1.584660,0.270371,0.547028
41349,7.202508,-7.340988,3.111151,1.756431,0.252104,0.557235
41350,7.175656,-6.377632,3.424476,1.688654,0.278503,0.544058
41351,7.011555,-5.482428,3.724989,1.386266,0.307501,0.554760
41352,6.784100,-4.924779,4.031273,0.919059,0.358436,0.591276
41353,6.574590,-5.250983,4.059299,0.405399,0.421362,0.621944
41354,6.443473,-6.266187,3.762835,0.068065,0.489589,0.639897
41355,6.433704,-7.497145,3.459047,-0.065564,0.577777,0.670346
41356,6.311226,-8.134377,3.279527,0.020639,0.670018,0.668839
41357,6.243135,-7.844867,3.263921,0.106561,0.726870,0.664636
41358,5.974386,-6.958269,3.321814,0.063219,0.766928,0.643862
41359,5.602014,-6.458950,3.126759,-0.112398,0.744992,0.604805
41360,5.369043,-7.004297,2.466463,-0.264400,0.669975,0.566483
41361,5.319434,-8.213530,2.038186,-0.209841,0.560049,0.541110
41362,5.405249,-9.319920,2.146877,0.106443,0.435587,0.510551
41363,5.688546,-9.779495,2.441179,0.609581,0.328943,0.464499
41364,5.846995,-9.519032,2.649777,1.072957,0.266670,0.472180
41365,5.875795,-8.875956,3.022865,1.405794,0.236806,0.492165
41366,6.057406,-8.096942,3.477844,1.553698,0.238090,0.519282
41367,6.146033,-7.361079,3.815770,1.505636,0.280946,0.544902
41368,6.207151,-6.898141,3.808470,1.346616,0.322956,0.557636
41369,6.094396,-6.833259,4.190132,1.207996,0.394213,0.551494
41370,5.768073,-7.171881,4.946686,1.144016,0.488606,0.559514
41371,5.484153,-7.492781,5.626881,1.166332,0.597036,0.550673
41372,5.412990,-7.398976,6.041877,1.258192,0.705417,0.518676
41373,5.388712,-6.443812,6.380440,1.306838,0.806762,0.432845
41374,5.528876,-5.268529,6.875990,1.118027,0.886114,0.347261
41375,5.663818,-4.292224,7.725763,0.700933,0.954452,0.240563
41376,5.380236,-4.565010,7.153685,0.111861,0.945994,0.169773
41377,5.014279,-6.455879,5.921404,-0.118645,0.858906,0.092187
41378,4.947127,-8.910626,4.439605,0.147876,0.733181,0.067796
41379,5.038652,-10.655024,3.343884,0.922980,0.604883,-0.013926
41380,5.386283,-10.713404,2.651055,1.839514,0.437437,-0.070405
41381,5.696299,-9.056720,2.865049,2.578412,0.318601,-0.085933
41382,5.720685,-6.638085,3.177142,2.908640,0.222938,-0.085497
41383,5.879378,-4.649580,3.429635,2.757013,0.172363,-0.005970
41384,6.064654,-3.793859,4.348568,2.243632,0.239380,0.159054
41385,5.928401,-4.321479,5.331170,1.620082,0.378077,0.300337
41386,5.689944,-5.170154,6.016395,1.180945,0.512403,0.430001
41387,5.297586,-5.525020,6.189647,0.849513,0.623979,0.478743
41388,4.808946,-5.210277,6.231195,0.602642,0.682094,0.457316
41389,4.490255,-4.819476,6.052321,0.343904,0.683290,0.420720
41390,4.205097,-5.053816,5.539191,0.161965,0.642109,0.355307
41391,3.956922,-6.038443,4.885958,0.179987,0.572484,0.286245
41392,3.816858,-7.497459,4.806291,0.527750,0.470247,0.220383
41393,3.952654,-8.541148,4.992876,1.138757,0.369247,0.153934
41394,4.241357,-9.131105,4.877975,1.908080,0.283126,0.123364
41395,4.366189,-9.038585,4.420389,2.730893,0.191223,0.128905
41396,4.482025,-7.912312,4.158893,3.478677,0.116087,0.125956
41397,4.759325,-6.428930,4.513295,3.950737,0.071446,0.136500
41398,5.011827,-5.449756,5.233370,4.145760,0.085301,0.185005
41399,5.169335,-5.139540,5.697545,4.194551,0.147569,0.260222
41400,5.165951,-5.205968,6.073212,4.289304,0.218066,0.317835
41401,5.282082,-5.292978,6.644567,4.427401,0.290597,0.405042
41402,5.371914,-5.028533,7.282229,4.623519,0.400875,0.486803
41403,5.009418,-3.775583,7.699216,4.804538,0.494271,0.496511
41404,4.603505,-1.408713,8.210512,4.740305,0.534688,0.445775
41405,4.286833,1.110167,8.874608,4.222918,0.538769,0.392892
41406,4.147878,2.849534,9.285342,3.335045,0.542289,0.404228
41407,3.696882,2.702003,9.127561,2.351702,0.518427,0.403187
41408,3.563596,1.266277,9.057889,1.725525,0.466947,0.311506
41409,3.634778,-0.450556,8.744912,1.441229,0.432199,0.241396
41410,3.397250,-2.075335,8.346704,1.571970,0.389275,0.147583
41411,3.258440,-3.263777,8.247988,2.048656,0.304504,0.074494
41412,3.270143,-3.496133,7.966530,2.653309,0.198907,0.042329
41413,3.367539,-2.884565,7.587391,3.248145,0.069886,0.054451
41414,3.494103,-0.908903,7.656964,3.685559,-0.025105,0.038539
41415,3.626336,1.609113,7.950190,3.745234,-0.100282,0.042077
41416,3.747145,3.283925,7.864899,3.298278,-0.118097,0.044851
41417,4.077848,2.679343,7.751548,2.586620,-0.067102,0.093063
41418,4.385350,0.732689,8.364856,2.272902,0.066789,0.056543
41419,4.394436,-0.513731,8.622338,2.405851,0.221467,0.006260
41420,3.831687,0.141149,9.164508,2.774147,0.307318,-0.038531
41421,3.478168,2.096118,9.670910,2.850864,0.328458,-0.089032
41422,3.036122,3.565149,9.332038,2.551262,0.327051,-0.118093
41423,2.847093,3.368400,8.878527,2.142175,0.238648,-0.155695
41424,3.216423,2.120425,8.638090,2.031358,0.175022,-0.219730
41425,3.513813,0.644855,8.192844,2.291670,0.130307,-0.279472
41426,3.670244,-0.198183,7.920134,2.863308,0.087293,-0.316408
41427,3.612987,-0.173885,7.909284,3.422414,0.040910,-0.268109
41428,3.637312,0.838559,8.318619,3.778854,-0.016288,-0.145579
41429,3.663978,2.286560,8.490132,3.813523,-0.053330,-0.006755
41430,3.799813,3.268359,8.217108,3.581213,-0.091501,0.099325
41431,4.332084,3.352361,7.238344,3.317346,-0.115521,0.194663
41432,4.864733,3.117735,6.434880,3.215843,-0.129982,0.298335
41433,4.877660,3.757372,6.258758,3.291191,-0.110799,0.410457
41434,4.285447,5.379170,6.438753,3.366763,-0.069862,0.432746
41435,3.488459,8.036153,6.353280,3.183047,-0.074681,0.415895
41436,3.281230,9.772343,6.143093,2.383177,-0.083469,0.457546
41437,3.820905,8.731806,6.031147,1.443522,-0.045563,0.433221
41438,4.394918,7.646562,6.498232,0.947965,0.029583,0.282847
41439,4.493872,7.139738,7.227750,0.669212,0.149229,0.139431
41440,3.548276,6.977007,7.026078,0.381053,0.208397,0.048090
41441,2.657541,6.110699,7.234348,0.186666,0.124918,-0.006645
41442,3.029641,4.257353,7.605357,0.089765,0.015115,-0.009852
41443,3.897901,1.895612,7.059077,0.430971,-0.067643,0.013006
41444,4.562930,0.182508,6.359257,1.297244,-0.117499,0.048163
41445,4.698182,0.493120,6.219772,2.317045,-0.123353,0.097442
41446,4.142133,3.140282,6.311737,2.949385,-0.124806,0.156541
41447,3.744083,6.793710,6.815483,2.991424,-0.113116,0.188560
41448,3.799227,9.461311,7.406459,2.302282,-0.059735,0.219011
41449,4.155705,9.512837,7.739496,1.278864,0.073447,0.272669
41450,4.338709,7.855973,7.071887,0.638845,0.212253,0.263170
41451,4.119474,6.588340,6.334806,0.535094,0.285056,0.185452
41452,3.571506,7.296918,6.290626,0.705810,0.319406,0.086294
41453,2.936515,9.420029,6.311856,0.651778,0.320420,-0.054339
41454,2.351269,11.897016,6.596783,0.302526,0.299337,-0.259811
41455,2.152046,13.843207,7.216869,-0.582599,0.273188,-0.495426
41456,2.541457,13.995145,6.140564,-1.891430,0.281933,-0.776444
41457,2.307587,12.524946,4.762964,-2.979311,0.221829,-1.030225
41458,1.524514,8.694985,3.866003,-3.677773,-0.016170,-1.157180
41459,2.312928,5.334081,5.139456,-3.438450,-0.294602,-1.212872
41460,3.839519,2.606318,6.506883,-2.901886,-0.418365,-1.200576
41461,4.670067,0.780603,7.222336,-1.927204,-0.435665,-1.100487
41462,4.406655,-0.097239,7.122857,-0.805259,-0.429658,-0.939824
41463,4.100644,0.237117,7.029975,0.345236,-0.451273,-0.776679
41464,4.188718,1.641579,6.646257,1.236729,-0.469971,-0.578988
41465,4.170424,4.017314,6.286729,1.826982,-0.446587,-0.397839
41466,4.040344,5.922772,6.283094,1.930540,-0.404372,-0.244780
41467,4.242186,6.562655,6.443671,1.654502,-0.337792,-0.118774
41468,4.439176,6.627957,6.775858,1.343088,-0.246530,-0.048841
41469,4.330917,6.902052,7.108397,1.056710,-0.142081,-0.062785
41470,3.755535,7.032679,7.432053,0.781110,-0.079415,-0.102859
41471,3.520174,7.072882,7.568821,0.554876,-0.051777,-0.126258
41472,3.304153,7.490465,7.299227,0.385494,-0.040456,-0.147111
41473,2.951660,8.251708,6.979310,0.199286,-0.062154,-0.191551
41474,2.763580,9.006156,6.880576,-0.153094,-0.108593,-0.254702
41475,2.904491,9.092390,6.963384,-0.720750,-0.144675,-0.301920
41476,3.153670,8.234108,6.962589,-1.299010,-0.144500,-0.314864
41477,3.507893,7.351228,6.984463,-1.711859,-0.136551,-0.303375
41478,3.714674,7.218800,7.154455,-2.074255,-0.111947,-0.278446
41479,3.741767,7.532327,7.409415,-2.554786,-0.099394,-0.230180
41480,3.919274,7.975963,7.645927,-3.208870,-0.087453,-0.185076
41481,3.804255,7.831587,7.405062,-4.063078,-0.046575,-0.111406
41482,3.297639,7.017729,7.641324,-4.807949,-0.074432,-0.035028
41483,3.632234,6.262180,7.870933,-5.443902,-0.096586,-0.000586
41484,4.000292,5.074204,8.112558,-5.894365,-0.054769,0.050428
41485,4.218664,3.216461,8.385085,-6.239808,0.001377,0.133185
41486,4.322373,1.022781,8.960340,-6.542523,0.018310,0.343571
41487,4.516152,0.781833,8.825618,-6.630738,0.025032,0.367587
41488,4.668718,2.021692,7.533803,-6.799091,0.044990,0.362247
41489,3.927488,2.158988,5.469420,-6.683686,0.006489,0.260864
41490,3.360109,0.250726,5.087162,-6.262501,-0.079302,0.135266
41491,2.161918,-2.518205,5.239867,-5.250471,-0.090947,0.171004
41492,0.966684,-4.676529,4.669077,-3.643719,-0.227624,0.029682
41493,1.806151,-5.686721,5.270000,-1.731376,-0.339215,-0.124599
41494,2.883333,-4.652445,6.808880,-0.270036,-0.328434,-0.097038
41495,3.628771,-2.148270,8.342555,0.564619,-0.290831,-0.062261
41496,3.851501,0.777601,10.151900,0.637838,-0.238879,0.033837
41497,3.920270,2.823540,11.472991,-0.134004,-0.194851,0.224326
41498,4.142187,2.745279,11.264972,-1.198313,-0.120774,0.343697
41499,4.217072,1.492190,10.774339,-1.843452,-0.048839,0.318210
41500,4.124670,0.279253,10.308976,-2.174337,0.002318,0.218310
41501,3.630096,-0.203975,9.917069,-2.248642,0.052496,0.085829
41502,2.854029,-0.404675,9.895490,-2.317138,0.063655,-0.032797
41503,2.671052,-0.843672,10.212351,-2.376260,0.059488,-0.138546
41504,3.072608,-1.712094,10.002879,-2.391663,0.064469,-0.174717
41505,3.552204,-2.635954,9.479333,-2.224367,0.087272,-0.184027
41506,3.773190,-2.899438,9.537906,-1.962929,0.109643,-0.187155
41507,3.807213,-2.481782,9.724242,-1.889840,0.120074,-0.148746
41508,3.687916,-1.854326,9.543615,-1.983143,0.116845,-0.094803
41509,3.551369,-1.508252,9.573899,-2.250763,0.112494,-0.053810
41510,3.567906,-1.407030,9.636105,-2.589804,0.123832,-0.027847
41511,3.668082,-1.405037,9.392736,-2.961129,0.155885,-0.023705
41512,3.750933,-1.469015,9.266316,-3.295838,0.223918,-0.051785
41513,3.763570,-1.665783,9.123625,-3.667714,0.310853,-0.070230
41514,3.771386,-1.722162,8.794542,-4.084485,0.389448,-0.080692
41515,3.630360,-1.794106,7.897333,-4.583357,0.451289,-0.088635
41516,3.404804,-2.454997,7.164746,-5.018745,0.483882,-0.117367
41517,3.234778,-4.158447,6.522360,-5.256879,0.485190,-0.131492
41518,3.337402,-6.786393,6.450280,-4.868614,0.480693,-0.202891
41519,3.678873,-8.791091,6.093255,-3.728983,0.536421,-0.521317
41520,3.440263,-9.677834,4.876445,-2.350459,0.546873,-0.678440
41521,1.969995,-9.749239,4.707881,-1.064732,0.477023,-0.775400
41522,1.560159,-8.878955,5.336201,-0.115662,0.274915,-0.841557
41523,2.142122,-8.511859,5.377124,0.515971,0.010658,-0.771255
41524,3.437902,-8.021999,6.226747,0.956759,-0.225763,-0.573104
41525,4.301615,-7.423260,6.821671,1.108532,-0.328733,-0.270808
41526,4.501515,-6.018830,7.338680,1.002749,-0.324832,-0.013225
41527,4.662510,-3.989794,8.087120,0.545249,-0.294103,0.134597
41528,5.187973,-2.308007,8.944219,-0.241637,-0.130449,0.178170
41529,4.817197,-1.955953,8.880423,-1.254708,0.092972,0.153303
41530,3.749823,-2.843607,8.560426,-1.891561,0.293741,-0.059524
41531,2.994642,-4.426294,8.192035,-2.273066,0.428034,-0.251710
41532,2.761186,-5.851215,7.483769,-2.284061,0.502344,-0.341041
41533,2.796392,-6.479118,6.764773,-2.138065,0.512553,-0.407428
41534,3.037398,-6.801803,6.461191,-2.022263,0.454871,-0.388118
41535,3.436916,-7.016216,6.098990,-1.978736,0.364712,-0.290713
41536,3.860213,-7.124087,5.581168,-1.988270,0.253530,-0.147119
41537,4.016757,-6.952087,5.257220,-2.041837,0.129595,-0.005826
41538,4.066611,-7.036724,4.810779,-2.132015,0.020296,0.122010
41539,4.030889,-7.210521,5.129214,-2.090331,-0.037477,0.172076
41540,4.164507,-7.376999,5.167068,-1.946916,-0.028481,0.135073
41541,3.871263,-7.535320,4.801461,-1.759399,0.021310,0.072129
41542,3.576338,-6.934872,5.210587,-1.613908,0.075382,-0.008139
41543,3.812986,-5.197632,5.747783,-1.746615,0.177499,-0.046397
41544,3.876341,-3.838748,5.667890,-2.270673,0.285860,-0.026593
41545,3.217243,-4.030807,4.535378,-2.990099,0.327745,-0.010679
41546,2.393812,-6.347313,3.655746,-3.437276,0.270806,-0.013033
41547,2.471707,-9.410598,2.867753,-3.387932,0.144211,0.094601
41548,2.909534,-11.847653,2.229373,-2.590551,0.037162,0.049642
41549,3.546616,-11.856651,1.864393,-1.589258,-0.100595,0.011113
41550,3.505434,-10.726220,0.746363,-0.838153,-0.291603,0.104966
41551,2.798955,-10.270855,-0.077809,-0.285054,-0.577907,0.115622
41552,2.344208,-11.606909,0.107153,0.374099,-0.944770,0.081638
41553,2.827632,-13.768148,0.291674,1.328851,-1.290326,0.161755
41554,3.618658,-15.784345,-1.579469,2.742745,-1.618181,0.241717
41555,4.747912,-14.416941,-1.544124,4.426577,-1.953793,0.204455
41556,5.755482,-10.292267,0.232131,5.304782,-2.120454,0.291911
41557,5.483771,-5.054155,1.585387,5.369115,-1.965607,0.313228
41558,5.239810,-0.760995,5.298457,4.513947,-1.601706,0.316499
41559,5.267989,2.538517,10.877016,2.766080,-1.120851,0.513112
41560,4.115556,4.264902,13.321810,0.127241,-0.667446,0.575700
41561,2.893003,1.247062,10.783378,-2.329675,-0.342826,0.549716
41562,2.258857,-4.434344,7.889344,-3.275192,-0.185546,0.613294
41563,1.295598,-10.440131,5.132457,-2.791125,-0.200164,0.480905
41564,1.809604,-13.094063,3.549746,-0.921577,-0.237747,-0.051329
41565,3.155251,-11.855702,3.349481,0.604325,-0.358194,-0.197197
41566,4.314806,-9.643671,3.828412,1.641491,-0.475180,-0.287270
41567,5.098492,-7.028483,5.041023,1.892598,-0.522885,-0.292089
41568,5.199951,-4.970303,6.106055,1.481939,-0.523496,-0.237687
41569,5.118884,-3.921524,6.294264,0.615092,-0.506384,-0.109299
41570,4.814064,-4.767775,5.655126,-0.223799,-0.458045,-0.033149
41571,4.377729,-6.518670,5.069578,-0.656864,-0.420310,-0.014962
41572,4.118379,-7.990228,4.409417,-0.639000,-0.411363,-0.046625
41573,4.097278,-8.386053,4.187069,-0.316206,-0.427957,-0.107340
41574,4.148311,-8.043633,4.467274,-0.001059,-0.458836,-0.153191
41575,4.187238,-7.549591,4.792861,0.198474,-0.474754,-0.168242
41576,4.337464,-6.965546,5.335642,0.256510,-0.458211,-0.161448
41577,4.490200,-6.098163,5.749588,0.094605,-0.420041,-0.128912
41578,4.632525,-5.161569,5.812514,-0.306547,-0.366240,-0.083837
41579,4.831421,-4.761101,5.618721,-0.896027,-0.323427,-0.031449
41580,5.042131,-5.532585,5.333228,-1.445148,-0.239003,0.016991
41581,5.009538,-6.640990,4.767184,-1.803199,-0.128691,0.038102
41582,4.863473,-7.305327,4.244028,-1.934205,-0.019060,0.040924
41583,4.373921,-7.115754,3.605516,-1.992836,0.060936,0.007706
41584,3.499766,-6.925978,3.112766,-2.022948,0.029446,-0.074497
41585,3.033321,-7.215232,3.186033,-1.987036,-0.081927,-0.184594
41586,3.011113,-8.288517,3.929776,-1.665886,-0.204996,-0.354292
41587,3.318044,-10.408856,3.298109,-1.075399,-0.424305,-0.418734
41588,3.727446,-13.214015,1.805083,0.132547,-0.619627,-0.489973
41589,4.042818,-13.812867,1.162098,1.670393,-0.718065,-0.674025
41590,4.777034,-11.864308,1.730138,2.774541,-0.863911,-0.699386
41591,5.665777,-9.417183,3.684871,3.174240,-0.835836,-0.602020
41592,5.471082,-6.253030,4.815840,2.942754,-0.748303,-0.532313
41593,5.484196,-3.719473,5.822721,2.172023,-0.671516,-0.428154
41594,5.542315,-3.066958,6.985238,0.949600,-0.496731,-0.181363
41595,5.259107,-3.771630,7.015188,-0.140584,-0.313411,-0.104844
41596,5.190720,-4.854966,6.639417,-0.979765,-0.156893,-0.093075
41597,4.776566,-5.855288,5.770504,-1.435019,-0.043510,-0.149635
41598,4.120471,-6.811431,4.395372,-1.539663,-0.039261,-0.243815
41599,3.682448,-8.407359,3.206527,-1.331230,-0.140530,-0.339312
41600,3.923502,-9.912087,3.209085,-0.755962,-0.270272,-0.467953
41601,4.413088,-10.161340,3.110867,-0.034818,-0.396887,-0.573951
41602,5.166252,-9.429411,3.079549,0.555668,-0.551550,-0.589308
41603,6.108047,-8.332725,3.607843,0.830915,-0.631548,-0.554510
41604,6.368249,-6.998481,4.250722,0.774823,-0.630085,-0.494947
41605,6.303254,-5.965698,4.649886,0.425116,-0.591050,-0.415756
41606,5.988942,-5.627481,4.757854,-0.052636,-0.510125,-0.307324
41607,5.601267,-5.876921,4.310509,-0.475724,-0.419014,-0.247849
41608,5.561011,-6.654897,3.981521,-0.743006,-0.279100,-0.202104
41609,5.334000,-7.195755,4.254664,-0.830896,-0.111548,-0.178902
41610,5.057242,-7.046115,4.397090,-0.895042,-0.015451,-0.216634
41611,4.996678,-6.391686,3.920057,-0.998840,0.031889,-0.280186
41612,4.934070,-6.039920,2.971827,-1.166947,0.011350,-0.357587
41613,4.888297,-6.274367,2.633246,-1.301965,-0.108772,-0.441984
41614,5.094667,-6.986483,2.824684,-1.303050,-0.240609,-0.535002
41615,5.206248,-8.063224,2.616911,-1.116918,-0.370166,-0.589333
41616,5.211918,-9.555586,2.143670,-0.704221,-0.487616,-0.613719
41617,5.320168,-10.149600,1.699595,-0.094163,-0.580351,-0.686691
41618,5.658841,-9.028725,1.863335,0.374092,-0.667602,-0.725736
41619,6.374250,-7.675532,3.074402,0.460070,-0.686867,-0.697549
41620,6.708958,-6.941321,4.141318,0.149197,-0.657107,-0.598155
41621,6.544903,-7.174883,4.373620,-0.226703,-0.667041,-0.520733
41622,6.278203,-7.945494,3.938954,-0.374919,-0.657654,-0.459658
41623,5.926047,-8.787247,3.700993,-0.206017,-0.687853,-0.433429
41624,6.021613,-9.272337,3.915075,0.143725,-0.708273,-0.418494
41625,6.535874,-8.942818,4.520860,0.530599,-0.682422,-0.412822
41626,6.878436,-7.752604,4.913439,0.707075,-0.568542,-0.413591
41627,6.779946,-6.331053,4.731169,0.614353,-0.448867,-0.432834
41628,6.784584,-5.294867,4.279642,0.285735,-0.365727,-0.453154
41629,6.825344,-5.119867,3.296893,-0.138555,-0.330991,-0.455750
41630,6.819263,-5.946436,2.339320,-0.398285,-0.352927,-0.481363
41631,6.578652,-7.174386,1.756266,-0.376637,-0.436724,-0.504277
41632,6.156643,-8.117988,1.366580,-0.111606,-0.554729,-0.522783
41633,6.212392,-8.315261,1.554918,0.268696,-0.680648,-0.539145
41634,6.797603,-7.777338,2.395854,0.520148,-0.751951,-0.516101
41635,7.313108,-6.900962,3.272856,0.530889,-0.728850,-0.450139
41636,7.292926,-6.217577,3.706455,0.337070,-0.630896,-0.383199
41637,6.776040,-5.452542,3.243149,0.044599,-0.531849,-0.351995
41638,6.603001,-5.001920,2.711848,-0.259416,-0.485630,-0.343558
41639,6.987902,-5.257908,2.613616,-0.544301,-0.394066,-0.314715
41640,7.006347,-5.850782,2.471366,-0.717719,-0.284804,-0.308233
41641,6.649348,-6.273246,2.068399,-0.752342,-0.241752,-0.336967
41642,6.393714,-6.107888,1.796135,-0.689867,-0.261791,-0.405012
41643,6.449224,-5.694785,1.702086,-0.626135,-0.265432,-0.498642
41644,6.382249,-5.941547,1.375894,-0.602224,-0.333373,-0.573454
41645,6.602564,-6.458171,1.080391,-0.512839,-0.426694,-0.645644
41646,7.055958,-6.916013,1.040334,-0.333034,-0.536112,-0.711308
41647,7.606588,-6.933025,1.516106,-0.123264,-0.626958,-0.761936
41648,8.019413,-6.568684,2.027973,0.084897,-0.661600,-0.805602
41649,7.903560,-5.975540,2.409830,0.287417,-0.585556,-0.872781
41650,7.428282,-5.112508,3.507487,0.348096,-0.586594,-0.906399
41651,7.438693,-4.858994,3.986701,0.057273,-0.594516,-0.818176
41652,7.547143,-5.764609,3.950282,-0.331440,-0.493562,-0.737834
41653,7.591008,-6.556559,3.767488,-0.537664,-0.371997,-0.712461
41654,7.758615,-6.659447,3.512046,-0.587380,-0.277095,-0.695173
41655,7.944753,-6.265468,3.309509,-0.662014,-0.186179,-0.660757
41656,8.080446,-6.257802,3.305164,-0.802150,-0.089102,-0.644349
41657,7.986274,-6.497588,3.049868,-0.933128,-0.003789,-0.646443
41658,7.801891,-6.791100,2.562073,-0.966837,0.033167,-0.658995
41659,7.830703,-6.934648,2.186352,-0.894066,0.006067,-0.683872
41660,8.015704,-7.134368,1.728270,-0.737515,-0.043082,-0.707859
41661,8.163064,-7.586333,1.194573,-0.461409,-0.119809,-0.718881
41662,8.212250,-7.951851,0.785883,-0.071161,-0.217030,-0.728602
41663,8.114084,-7.545691,0.971478,0.351436,-0.305278,-0.729859
41664,8.146588,-6.506098,1.836756,0.570117,-0.362116,-0.713008
41665,8.321124,-5.436358,2.449247,0.496802,-0.362229,-0.689219
41666,8.296411,-4.927348,2.859524,0.246537,-0.331403,-0.660601
41667,8.058078,-4.645262,2.352399,-0.003203,-0.277205,-0.666989
41668,7.792890,-4.445089,1.438216,-0.176972,-0.254043,-0.710242
41669,7.782940,-4.722002,0.908413,-0.314969,-0.223275,-0.715298
41670,7.955989,-5.145798,0.974413,-0.340969,-0.151551,-0.743989
41671,8.089061,-5.311656,1.247953,-0.306773,-0.066341,-0.773838
41672,8.003489,-5.395951,1.242691,-0.273808,0.000096,-0.780323
41673,7.955875,-5.156889,1.746116,-0.301746,0.059049,-0.795051
41674,7.925685,-5.075841,2.139682,-0.404304,0.077591,-0.810750
41675,7.872958,-5.204900,1.860542,-0.482725,0.053598,-0.834544
41676,8.095842,-5.426730,1.476756,-0.465708,-0.006850,-0.894238
41677,8.514270,-5.601176,1.420256,-0.343965,-0.027740,-0.972495
41678,8.888638,-5.712949,1.648133,-0.153753,-0.029845,-1.031768
41679,9.209757,-5.465477,1.990023,0.024898,-0.006615,-1.048039
41680,9.239699,-4.866483,2.230146,0.067617,0.032641,-1.028021
41681,9.167890,-4.163036,2.187205,-0.126835,0.033339,-0.954343
41682,9.284075,-3.573887,2.387605,-0.555896,0.032428,-0.831391
41683,9.603357,-3.377428,2.415596,-1.200042,0.010173,-0.674517
41684,9.823263,-4.043893,2.149760,-1.758011,0.058306,-0.534495
41685,9.682053,-5.350010,1.607159,-2.037756,0.094471,-0.449819
41686,9.272040,-6.837280,0.979669,-1.889924,0.167125,-0.394142
41687,8.714789,-7.850614,0.557687,-1.332255,0.254496,-0.415358
41688,8.283683,-7.801559,0.524609,-0.581530,0.312385,-0.460005
41689,8.095803,-6.732402,0.629151,0.064781,0.323774,-0.493071
41690,8.188941,-5.287088,1.194051,0.484153,0.308896,-0.551133
41691,8.338118,-4.119456,1.493211,0.600842,0.266531,-0.592742
41692,8.460973,-3.545944,1.298921,0.518648,0.201484,-0.598306
41693,8.684918,-3.380095,1.166698,0.348708,0.121741,-0.605885
41694,9.031725,-3.333665,1.307065,0.145791,0.059548,-0.607822
41695,9.322726,-3.663374,1.339599,-0.077943,0.017837,-0.568160
41696,9.267413,-4.155999,1.109482,-0.219361,-0.014725,-0.519179
41697,9.287225,-4.482507,0.741461,-0.254683,-0.037285,-0.473285
41698,9.246261,-4.563888,0.804508,-0.216947,-0.038248,-0.425054
41699,9.055660,-4.184077,1.123490,-0.153512,-0.014257,-0.418815
41700,8.835897,-3.415006,1.105739,-0.140822,0.047375,-0.412142
41701,8.435803,-2.796009,1.194550,-0.186303,0.114482,-0.461460
41702,8.249955,-2.320482,1.322119,-0.320036,0.203670,-0.533369
41703,8.196150,-2.031683,1.325571,-0.510662,0.267350,-0.589899
41704,8.442919,-2.287516,1.250236,-0.709085,0.325657,-0.632272
41705,8.733055,-2.847053,1.390249,-0.836273,0.379808,-0.676844
41706,8.990127,-3.385284,1.321540,-0.882022,0.406269,-0.733229
41707,8.981602,-3.842037,0.741724,-0.796422,0.378775,-0.777936
41708,9.080136,-4.563080,0.412611,-0.563699,0.313401,-0.808820
41709,9.235262,-5.115397,0.373185,-0.203083,0.240726,-0.824030
41710,9.569149,-5.235375,0.581664,0.169126,0.175736,-0.811450
41711,10.054755,-4.948040,0.898024,0.450684,0.116896,-0.770204
41712,10.279500,-4.371997,1.203235,0.548354,0.108638,-0.732154
41713,10.064500,-3.745226,1.255540,0.490593,0.129825,-0.704229
41714,9.971646,-3.277635,1.653909,0.341328,0.193925,-0.693709
41715,9.890450,-2.786246,2.366537,0.143925,0.301302,-0.690117
41716,9.541678,-2.420190,2.504653,-0.091036,0.393437,-0.621424
41717,9.137215,-1.885583,2.013042,-0.323959,0.464582,-0.578776
41718,9.042614,-1.580184,1.713630,-0.651173,0.483674,-0.490981
41719,9.236918,-2.371068,1.490201,-1.073255,0.511206,-0.381462
41720,9.300107,-3.575138,1.216693,-1.249644,0.533760,-0.351710
41721,9.363468,-4.339767,1.222928,-1.176678,0.529011,-0.386001
41722,9.423097,-4.367283,1.283029,-0.962958,0.526859,-0.424093
41723,9.422813,-3.646439,1.430566,-0.777064,0.512471,-0.479317
41724,9.294701,-3.176663,1.384357,-0.704199,0.477186,-0.516917
41725,9.188457,-3.449766,1.431645,-0.632645,0.381489,-0.547476
41726,9.266332,-4.225733,1.095687,-0.439782,0.295737,-0.530319
41727,9.262050,-5.063571,0.744028,-0.038094,0.194184,-0.495118
41728,9.510085,-5.200167,0.677490,0.505939,0.076415,-0.486995
41729,9.820302,-4.581839,0.979991,0.937166,0.019896,-0.450164
41730,9.893980,-3.422551,1.217397,1.166120,-0.029281,-0.406563
41731,9.992286,-2.188286,1.554497,1.139818,-0.060867,-0.383491
41732,9.918488,-1.166483,1.899019,0.886936,-0.053642,-0.366290
41733,9.931928,-0.394598,2.172330,0.477356,-0.039028,-0.328884
41734,9.766731,0.069489,2.019257,-0.065445,-0.019132,-0.270367
41735,9.645698,-0.303313,1.565611,-0.577612,0.012406,-0.232261
41736,9.581237,-1.271375,1.363506,-0.897432,0.066323,-0.236506
41737,9.518596,-2.320692,1.543065,-1.019882,0.139085,-0.238445
41738,9.479038,-2.790248,1.646682,-0.955827,0.193084,-0.245981
41739,9.346794,-2.519449,1.761611,-0.847736,0.223922,-0.262417
41740,9.262902,-2.098494,1.877357,-0.803382,0.193355,-0.278267
41741,9.494159,-2.118180,1.929538,-0.802672,0.153544,-0.275441
41742,9.577506,-2.643252,1.715268,-0.720459,0.109556,-0.285215
41743,9.593307,-3.428133,1.463425,-0.459847,0.045507,-0.275814
41744,9.652948,-3.925775,1.176813,-0.043150,-0.023972,-0.284216
41745,9.850174,-3.498874,0.861382,0.417331,-0.067946,-0.303874
41746,10.137671,-2.489856,0.745708,0.731510,-0.091065,-0.317023
41747,10.422363,-1.504491,1.145665,0.800226,-0.049650,-0.276241
41748,10.235793,-0.534729,1.772690,0.680720,0.006106,-0.246231
41749,9.886584,0.187945,1.924175,0.333353,-0.016390,-0.184425
41750,9.544642,0.331501,1.527370,-0.184770,-0.045583,-0.098150
41751,9.178093,-0.115484,1.501959,-0.626461,-0.051382,-0.073364
41752,9.106509,-0.733686,1.583899,-0.919804,-0.052544,-0.075168
41753,9.182149,-1.182258,1.482080,-1.017146,-0.042423,-0.090694
41754,9.433524,-1.440369,1.217178,-0.977232,-0.026677,-0.126564
41755,9.698443,-1.491887,1.174092,-0.891625,-0.000620,-0.175303
41756,9.616482,-1.369486,1.318416,-0.854018,0.047488,-0.215541
41757,9.552947,-1.301092,1.472567,-0.868572,0.055464,-0.288315
41758,9.473345,-1.514782,1.435566,-0.914869,0.064221,-0.331074
41759,9.423690,-2.037206,1.329067,-0.926617,0.055015,-0.349488
41760,9.445498,-2.478061,1.414032,-0.845742,0.031358,-0.376821
41761,9.705497,-2.818464,1.638469,-0.750708,-0.004096,-0.380822
41762,9.844267,-3.208627,1.739787,-0.611373,-0.043075,-0.347666
41763,9.930125,-3.824783,1.491881,-0.379429,-0.095494,-0.285512
41764,9.876938,-3.935272,1.311118,0.053371,-0.120560,-0.267526
41765,9.735817,-3.417057,1.171325,0.459673,-0.154116,-0.223514
41766,9.765055,-2.447706,1.231905,0.659208,-0.174633,-0.177519
41767,9.828053,-1.638897,1.439307,0.579400,-0.164920,-0.149966
41768,9.870853,-1.278014,1.762571,0.342602,-0.143881,-0.125072
41769,9.833690,-1.376106,1.718349,0.073298,-0.114687,-0.093723
41770,9.761885,-1.485451,1.624871,-0.135529,-0.087462,-0.076942
41771,9.655278,-1.807782,1.440744,-0.271112,-0.058684,-0.066355
41772,9.565153,-2.327681,1.445509,-0.277989,-0.025712,-0.063046
41773,9.431189,-2.605347,1.509744,-0.171729,0.008605,-0.061517
41774,9.368359,-2.409730,1.755038,-0.020106,0.012667,-0.079196
41775,9.447389,-2.026355,1.876575,0.070168,0.012851,-0.089995
41776,9.570588,-1.930792,1.823992,0.103520,0.009697,-0.101267
41777,9.661262,-2.014018,1.811291,0.139070,0.015442,-0.109156
41778,9.847837,-1.968536,1.722078,0.211167,0.021872,-0.103144
41779,10.034824,-1.595060,1.772140,0.252727,0.028648,-0.093690
41780,10.055432,-1.184441,1.712996,0.205689,0.038314,-0.073133
41781,9.882422,-1.070559,1.535584,0.106607,0.036682,-0.047770
41782,9.699867,-1.266116,1.297171,0.055419,0.018447,-0.038064
