// Start Time: Unknown
// Update Rate: 100.0Hz
// Filter Profile: human (46.1)
// Firmware Version: 4.3.5
PacketCounter,Acc_X,Acc_Y,Acc_Z,Gyr_X,Gyr_Y,Gyr_Z
31695,9.589257,-0.486847,2.313598,0.017386,-0.005061,-0.006518
31696,9.567139,-0.491195,2.411327,0.028165,-0.003221,-0.007367
31697,9.552327,-0.463520,2.372884,0.020003,-0.000364,-0.010522
31698,9.520830,-0.472962,2.346622,0.005103,-0.006105,-0.007174
31699,9.558137,-0.515236,2.364558,0.002666,0.000637,-0.009273
31700,9.570259,-0.579147,2.284508,0.008597,-0.003304,-0.005312
31701,9.540603,-0.547685,2.285464,0.042151,-0.000897,-0.012516
31702,9.574135,-0.494263,2.338704,0.050799,0.000645,-0.010515
31703,9.522168,-0.445241,2.359916,0.032788,-0.004298,-0.012220
31704,9.576250,-0.449618,2.365406,0.025309,-0.004896,-0.013609
31705,9.576399,-0.447743,2.365159,0.016076,-0.002206,-0.015331
31706,9.521646,-0.459961,2.345898,0.014322,0.001087,-0.015669
31707,9.574723,-0.484959,2.338245,0.005050,-0.001554,-0.013308
31708,9.566449,-0.490648,2.305435,0.025068,-0.002381,-0.012448
31709,9.576766,-0.440697,2.364996,0.037263,-0.002087,-0.013860
31710,9.572143,-0.364433,2.386017,0.022302,-0.003301,-0.016627
31711,9.556458,-0.356852,2.333676,-0.016078,-0.005732,-0.020053
31712,9.555770,-0.353831,2.241125,-0.043841,-0.017730,-0.018227
31713,9.563677,-0.343477,2.180255,-0.035805,-0.026170,-0.024457
31714,9.552033,-0.276346,2.258309,-0.001789,-0.009938,-0.031658
31715,9.525423,-0.182191,2.297835,-0.020881,-0.029276,-0.040433
31716,9.597915,-0.370618,2.353508,-0.171347,-0.061059,-0.032799
31717,9.662481,-0.790062,2.347532,-0.307539,-0.085648,0.001662
31718,9.614263,-1.106660,2.798553,-0.213018,-0.104947,0.049093
31719,9.794303,-1.424784,3.841642,0.018341,-0.206802,0.095041
31720,10.304437,-1.907602,4.319088,0.265706,-0.301465,0.112913
31721,10.544903,-2.093001,3.513447,0.630552,-0.245366,0.089756
31722,10.221445,-1.411575,2.223866,1.166376,-0.116646,-0.036756
31723,9.945733,-0.224239,1.680445,1.585227,-0.029352,-0.181528
31724,9.963584,0.552374,1.986711,1.459041,0.062665,-0.217452
31725,9.610390,0.642249,2.554794,0.673301,0.198083,-0.120777
31726,8.802659,-0.050238,2.240447,-0.251429,0.145221,-0.042801
31727,8.762640,-0.760409,1.045531,-0.617585,0.046965,0.014179
31728,8.807095,-1.122353,-0.070212,-0.295546,0.053046,0.050356
31729,8.994274,-0.621119,-0.489602,0.439931,0.051635,0.038072
31730,9.224259,0.505328,-0.151216,1.004869,0.022111,-0.055501
31731,9.692205,1.557730,0.831808,1.036089,0.061907,-0.098697
31732,9.919704,1.781493,2.693163,0.167949,0.131783,0.111028
31733,9.530572,0.242064,4.002239,-1.422438,0.037278,0.444607
31734,9.318430,-2.579773,4.663334,-3.056730,-0.171369,0.511816
31735,9.631450,-6.195526,1.625537,-2.657174,-0.327460,0.377779
31736,9.902475,-7.342536,0.749915,1.003471,-0.028695,0.399119
31737,9.677256,-2.847549,3.502516,3.278008,0.223807,0.288207
31738,9.727686,0.338585,4.825073,3.513332,0.291856,0.211531
31739,9.768001,1.837062,4.628374,2.603100,0.281759,0.118249
31740,9.263460,2.346662,3.107312,0.998772,0.171242,0.062193
31741,9.163682,1.915731,1.192380,-0.448661,-0.054159,0.117968
31742,9.647437,0.755582,0.141663,-0.981655,-0.101259,0.307463
31743,9.658147,-0.323771,0.021456,-0.931108,0.064865,0.368503
31744,9.265698,-0.827644,0.632049,-0.455262,0.160915,0.310508
31745,9.034538,-0.667946,1.655859,0.191048,0.134806,0.210601
31746,9.195566,-0.199952,2.802245,0.452677,0.135127,0.228336
31747,9.571528,-0.369718,4.155332,-0.043958,0.132701,0.351097
31748,9.766766,-1.201086,4.471662,-0.900560,0.117449,0.452418
31749,9.746250,-2.404223,4.046472,-1.230119,0.095620,0.465931
31750,9.816223,-3.334087,2.951213,-0.498210,0.080980,0.413762
31751,9.926755,-2.920436,2.811500,0.814512,0.151963,0.344935
31752,9.712858,-1.531447,2.924888,1.427667,0.183032,0.288682
31753,9.615798,-0.555650,2.489745,1.309938,0.098681,0.264002
31754,9.832274,-0.033860,1.853651,0.910734,0.050622,0.225742
31755,9.770721,0.251439,1.522491,0.620024,0.113057,0.232002
31756,9.389676,0.259124,1.721389,0.456191,0.143358,0.279892
31757,9.206243,0.254775,2.169562,0.220254,0.103426,0.267388
31758,9.108433,0.111334,2.545459,0.009488,0.131728,0.271750
31759,8.961441,-0.268260,3.273212,-0.221025,0.161414,0.321067
31760,9.125176,-0.951310,4.006823,-0.543677,0.152748,0.369444
31761,9.289848,-1.627658,3.937433,-0.705042,0.165688,0.394480
31762,9.273787,-2.169196,3.701430,-0.455703,0.202887,0.398997
31763,9.362751,-2.222969,3.448674,-0.017929,0.209451,0.380426
31764,9.344523,-2.127615,3.284195,0.197182,0.221517,0.386616
31765,9.284117,-2.350001,3.414665,0.168430,0.215264,0.429203
31766,9.246833,-3.123149,3.139659,-0.042016,0.190012,0.521112
31767,9.167013,-3.710452,1.767067,-0.152833,0.162358,0.587970
31768,9.269044,-3.835220,0.529509,0.288797,0.177416,0.614831
31769,9.428940,-3.109555,0.676859,0.915539,0.200138,0.629193
31770,9.500551,-2.103110,1.117985,1.111092,0.179081,0.637338
31771,9.559028,-1.406426,1.569925,0.949070,0.157678,0.644433
31772,9.645443,-0.960062,2.120927,0.612397,0.189804,0.649137
31773,9.389641,-0.952489,2.770280,0.140249,0.253170,0.676413
31774,9.182648,-1.460872,2.911239,-0.342540,0.229248,0.741190
31775,9.246693,-2.252946,3.315566,-0.547842,0.197569,0.811287
31776,9.474107,-2.966689,3.693643,-0.309688,0.176257,0.843285
31777,9.800262,-2.838334,4.092035,0.232653,0.212805,0.838272
31778,9.785081,-2.307620,4.532515,0.507469,0.278685,0.829522
31779,9.562403,-2.031841,4.702632,0.419048,0.283062,0.804969
31780,9.401882,-2.088355,4.059052,0.235014,0.247674,0.776421
31781,9.092494,-2.142448,2.738598,0.192818,0.209676,0.747038
31782,8.793742,-2.128080,1.615310,0.302533,0.141838,0.702312
31783,8.919677,-2.091294,1.322952,0.395015,0.083312,0.664519
31784,9.240739,-2.011300,1.413449,0.409666,0.118752,0.666091
31785,9.221091,-2.047375,2.087341,0.394232,0.226481,0.671060
31786,8.997972,-1.937112,3.039227,0.330111,0.337219,0.680166
31787,8.934279,-1.773319,3.915773,0.156992,0.426374,0.726869
31788,9.173526,-1.693353,4.773770,-0.148289,0.523608,0.815655
31789,9.449415,-2.095552,6.010049,-0.593598,0.672923,0.955107
31790,9.396803,-3.243962,6.747034,-1.177250,0.743964,1.102518
31791,9.171330,-4.477360,5.876278,-1.668491,0.704848,1.204678
31792,9.008129,-5.828584,5.101291,-1.544304,0.672691,1.258948
31793,8.960781,-6.592411,4.707672,-0.914346,0.652979,1.258224
31794,8.838953,-6.261692,4.124158,-0.270867,0.628976,1.243477
31795,8.720467,-5.624609,3.251403,-0.008545,0.556899,1.212884
31796,8.798953,-5.273821,2.145508,0.212583,0.511992,1.170357
31797,8.877265,-4.937297,1.698424,0.625888,0.521804,1.127592
31798,8.930791,-4.256910,1.722279,1.003826,0.525276,1.082531
31799,9.053053,-3.605647,1.979098,1.171192,0.534988,1.058724
31800,9.030107,-3.045192,2.394066,1.089789,0.575147,1.052915
31801,8.667323,-2.833914,2.925640,0.827786,0.593339,1.064761
31802,8.333662,-2.838063,3.822700,0.522716,0.573289,1.076475
31803,8.229203,-3.011752,4.793733,0.251114,0.555500,1.114774
31804,8.116957,-3.289497,5.652917,-0.022103,0.588704,1.168963
31805,7.940934,-3.524352,5.896556,-0.307255,0.613031,1.215383
31806,7.770003,-3.752007,5.449805,-0.521227,0.630912,1.226946
31807,7.626437,-4.072666,4.556990,-0.702426,0.620310,1.225137
31808,7.434539,-4.542862,3.192533,-0.824548,0.536074,1.201264
31809,7.442059,-5.083926,1.726633,-0.735709,0.439867,1.156828
31810,7.477847,-5.760128,1.188633,-0.403258,0.381273,1.125807
31811,7.505572,-6.268623,1.348673,0.034025,0.342241,1.127840
31812,7.528304,-6.193779,1.999766,0.393093,0.342977,1.141084
31813,7.578883,-5.666543,2.835028,0.567411,0.372892,1.178294
31814,7.500428,-5.273319,3.852979,0.563305,0.393516,1.211134
31815,7.492551,-4.957490,4.887118,0.429360,0.389880,1.222324
31816,7.549844,-4.743678,6.011357,0.223483,0.416049,1.235070
31817,7.424281,-4.698180,6.923808,-0.049788,0.462743,1.247812
31818,7.188842,-4.867831,6.968652,-0.418907,0.495277,1.264075
31819,6.957248,-5.307531,6.186851,-0.733105,0.493782,1.274723
31820,6.841752,-5.676490,4.798319,-0.841049,0.450864,1.264579
31821,6.793516,-6.078867,3.526594,-0.731343,0.382314,1.222319
31822,6.685982,-6.417855,2.688714,-0.470274,0.323057,1.158110
31823,6.532747,-6.784168,2.482802,-0.172240,0.277946,1.110083
31824,6.379871,-7.070650,2.619328,0.150844,0.255931,1.091244
31825,6.202791,-6.987191,2.965098,0.407878,0.249553,1.091089
31826,6.168906,-6.768466,3.346807,0.512952,0.246676,1.126508
31827,6.333564,-6.654113,3.821237,0.468889,0.257369,1.186782
31828,6.455977,-6.740216,4.494875,0.420361,0.274065,1.246309
31829,6.579644,-6.538908,5.578277,0.423190,0.333834,1.259409
31830,6.571760,-6.059836,6.755466,0.332521,0.373306,1.243658
31831,6.475657,-5.729154,7.305244,0.072308,0.406497,1.225614
31832,6.195278,-5.801135,7.067972,-0.292092,0.444622,1.208854
31833,5.871667,-6.240445,6.046722,-0.558772,0.443043,1.198270
31834,5.591411,-6.649110,4.574380,-0.565721,0.394634,1.176121
31835,5.332852,-6.749547,3.157975,-0.364385,0.307984,1.131793
31836,5.206151,-6.735075,2.249373,-0.086721,0.208419,1.049885
31837,5.243351,-6.882267,2.262708,0.240894,0.169929,0.991271
31838,5.203410,-7.043176,2.950214,0.548320,0.196796,0.936299
31839,4.921934,-6.905741,3.717951,0.716696,0.232957,0.891181
31840,4.686400,-6.558145,4.078677,0.699761,0.291538,0.879665
31841,4.564126,-6.196471,4.254418,0.582742,0.359576,0.902575
31842,4.751220,-5.863070,4.662030,0.387841,0.453428,0.942181
31843,5.123891,-5.589776,5.268556,0.036790,0.532047,0.984975
31844,5.442874,-5.456724,6.080438,-0.434574,0.601040,1.012726
31845,5.468016,-5.744508,7.011526,-0.910826,0.654372,1.027988
31846,5.244701,-6.361386,7.261690,-1.398247,0.603693,1.022798
31847,5.130741,-7.053304,6.438194,-1.714661,0.505814,1.013962
31848,4.917301,-7.720879,5.590335,-1.741482,0.493235,1.005239
31849,4.588594,-8.592851,5.301638,-1.634260,0.473748,1.002770
31850,4.168175,-9.443491,4.676328,-1.377250,0.385307,0.984168
31851,3.733698,-9.855620,3.464711,-0.758167,0.327625,0.932539
31852,3.398209,-9.698691,2.664395,-0.043505,0.257003,0.910869
31853,2.978342,-9.534874,1.949488,0.502205,0.138764,0.913498
31854,3.177920,-9.148445,1.932482,1.080833,0.024867,0.902195
31855,3.792318,-8.209018,2.694629,1.457066,-0.014614,0.881028
31856,3.998053,-7.346114,3.399794,1.542298,0.016551,0.863196
31857,4.145074,-6.667037,4.496655,1.461708,0.084999,0.849222
31858,4.066914,-6.309987,6.072457,1.188388,0.190932,0.862198
31859,3.809783,-6.343249,7.660029,0.749147,0.286052,0.898278
31860,3.553587,-6.400377,7.901307,0.159868,0.278396,0.940293
31861,3.457627,-6.630827,6.952312,-0.312584,0.245010,0.973917
31862,3.526855,-7.155193,5.945268,-0.529315,0.223615,0.996365
31863,3.497048,-7.783580,4.821087,-0.625869,0.140389,0.970894
31864,3.380894,-8.516190,3.705550,-0.618078,0.025426,0.916866
31865,3.293608,-9.219740,2.923887,-0.232235,-0.047870,0.865125
31866,3.117401,-9.522197,2.762880,0.404502,-0.031170,0.821268
31867,2.603402,-9.137190,2.928725,0.892958,-0.003344,0.794326
31868,2.259693,-8.415488,3.275508,1.179322,-0.037500,0.776947
31869,2.376055,-7.603467,3.933285,1.328964,-0.041495,0.780411
31870,2.654885,-6.816819,4.689434,1.343090,-0.016571,0.775852
31871,2.851378,-6.184122,5.493661,1.165770,0.038275,0.783486
31872,2.902666,-5.941230,6.422971,0.760468,0.088906,0.807145
31873,2.830744,-6.393537,7.245100,0.230034,0.101512,0.856734
31874,2.491257,-7.522872,7.617935,-0.192898,0.044739,0.929377
31875,2.027100,-9.206823,7.701209,-0.297122,-0.118226,1.014368
31876,1.565237,-11.255422,7.257496,-0.097027,-0.365337,1.089150
31877,1.328169,-13.050729,6.276619,0.510884,-0.636374,1.112181
31878,1.524675,-14.070108,5.089744,1.597195,-0.856630,1.049291
31879,2.176180,-14.211719,3.957849,3.113458,-0.984752,0.918641
31880,3.328054,-12.552080,2.864526,4.807162,-0.992271,0.732957
31881,4.154889,-8.958093,2.978300,6.147079,-0.760741,0.532809
31882,3.578464,-5.722082,3.720919,6.767974,-0.548874,0.433487
31883,2.849027,-3.868802,3.821383,6.609676,-0.560447,0.374803
31884,2.871302,-2.721508,3.317456,6.056134,-0.597961,0.338906
31885,2.952664,-1.503524,3.449907,5.603005,-0.442431,0.354928
31886,2.951871,-0.149506,4.807847,5.398594,-0.179415,0.404639
31887,2.810022,1.499077,6.832880,5.257863,0.094818,0.390810
31888,2.149599,3.487839,9.421987,4.436109,0.383490,0.332533
31889,0.991974,5.153018,11.337397,1.379791,0.379505,0.297625
31890,-0.053330,2.963578,10.916388,-2.568518,0.031312,0.588021
31891,0.859991,-0.791069,10.473086,-5.648324,-0.450293,0.707076
31892,2.554801,-6.158539,8.830789,-7.224642,-0.552509,0.775054
31893,2.586845,-16.250276,-0.865257,-2.400195,-0.444043,0.680350
31894,3.939276,-11.306358,5.479114,3.032046,0.130035,0.388141
31895,2.487822,-5.958954,8.965141,2.975085,0.180969,0.379187
31896,1.831989,-4.333946,8.912545,1.920298,-0.101534,0.279693
31897,1.773096,-4.752867,8.960306,1.551054,-0.172699,0.292157
31898,1.720250,-4.941159,8.186769,1.776298,-0.213258,0.336224
31899,1.776145,-3.983479,8.161591,2.076834,-0.175410,0.350327
31900,1.769542,-2.916896,8.209753,2.121546,-0.164316,0.330506
31901,1.723121,-1.959124,8.326028,2.049962,-0.120922,0.294422
31902,1.582054,-1.312269,8.421567,1.763135,-0.117996,0.248798
31903,1.809711,-1.236961,8.668906,1.148597,-0.173283,0.205942
31904,1.654623,-2.051737,9.294815,0.401132,-0.154303,0.199031
31905,1.513471,-3.736139,9.006614,-0.208447,-0.234916,0.229153
31906,1.913692,-5.566208,7.859265,-0.128900,-0.283452,0.249084
31907,2.130991,-6.277416,7.058009,1.168145,-0.232325,0.236240
31908,2.394669,-4.402518,8.070439,2.318971,-0.162037,0.189138
31909,2.059359,-2.650263,8.753751,2.483363,-0.172277,0.140033
31910,2.061745,-1.461838,8.748454,2.157471,-0.209877,0.069260
31911,1.831023,-0.840945,9.346406,1.842730,-0.161365,0.035736
31912,1.686153,-0.691458,9.454465,1.381516,-0.226813,0.033387
31913,2.295385,-0.393823,8.525413,0.985768,-0.238152,0.002071
31914,2.646696,0.245861,7.979445,1.010763,-0.089299,-0.111104
31915,2.667195,1.269182,8.415777,1.273990,0.063325,-0.236662
31916,2.297311,1.814306,9.429598,1.002289,0.116819,-0.256828
31917,1.913915,1.615944,10.175362,-0.628700,0.051763,-0.240258
31918,2.050856,-0.263227,10.521788,-3.231279,-0.112974,-0.105803
31919,2.524494,-3.612679,10.162494,-5.611106,-0.216924,0.051086
31920,2.715076,-10.013664,3.490179,-4.605028,-0.255483,0.144178
31921,2.826880,-10.813145,4.522397,0.740658,0.066983,0.041687
31922,2.081069,-5.077960,10.133739,2.445526,0.174769,0.055198
31923,0.727616,-2.939496,11.809778,1.406602,-0.089416,0.067390
31924,0.835653,-2.833170,11.148350,-0.183338,-0.303944,0.062506
31925,1.036893,-4.252552,9.325110,-0.649887,-0.375015,0.052696
31926,1.651426,-4.630209,6.928371,0.617048,-0.411239,-0.000033
31927,2.322316,-2.767803,7.522527,2.189803,-0.305881,-0.090493
31928,2.482371,-0.620373,8.691879,2.673755,-0.199520,-0.157723
31929,2.512157,0.796239,9.895901,2.200878,-0.094640,-0.197742
31930,2.112201,1.238446,11.322444,0.812063,-0.005163,-0.164100
31931,1.570687,0.124589,11.651432,-1.182816,-0.099428,-0.100202
31932,1.902051,-1.891518,10.728765,-2.771642,-0.168603,-0.044044
31933,2.331953,-4.705581,8.810410,-3.000081,-0.123278,0.014514
31934,2.715228,-7.138134,5.998300,-1.123000,-0.076739,0.012030
31935,3.176832,-5.420249,7.607126,1.235600,0.092966,-0.060626
31936,2.695421,-2.579660,9.286210,1.894253,0.161800,-0.123018
31937,2.529566,-0.825069,9.974450,1.475817,0.100505,-0.183524
31938,2.563470,-0.038655,10.071797,0.440360,0.094363,-0.208941
31939,2.466147,-0.408449,9.389748,-0.904442,0.075745,-0.202856
31940,2.574518,-1.349335,8.109938,-1.961089,0.077492,-0.204877
31941,2.783255,-2.131937,6.753623,-2.259766,0.161618,-0.222545
31942,2.872246,-2.362959,6.183179,-1.806255,0.309926,-0.268279
31943,2.679269,-1.686408,7.799304,-1.252669,0.444812,-0.286949
31944,2.189571,-1.292518,9.889255,-1.459689,0.440189,-0.255298
31945,1.830031,-1.672536,10.278673,-2.739064,0.299436,-0.210132
31946,1.696401,-3.333729,9.640574,-4.049277,0.273966,-0.151604
31947,1.567492,-5.895826,8.099556,-4.366893,0.308281,-0.074375
31948,1.631677,-8.477684,5.887828,-3.229089,0.257770,-0.020313
31949,2.301502,-8.520928,6.216200,-1.609350,0.257758,-0.003887
31950,2.487743,-7.073349,7.499489,-1.002115,0.267056,-0.031157
31951,2.268395,-6.058954,8.295148,-0.760742,0.225029,-0.111725
31952,1.847297,-5.331082,9.148871,-0.405577,0.184552,-0.176730
31953,1.471614,-4.583385,9.017128,-0.336723,0.085640,-0.225021
31954,1.528093,-4.001018,8.620425,-0.427667,0.075459,-0.270824
31955,1.751197,-3.647988,8.374211,-0.413666,0.127808,-0.318377
31956,2.269271,-3.196509,8.246212,-0.333051,0.199997,-0.359550
31957,2.763401,-2.645469,8.323184,-0.388810,0.305610,-0.398141
31958,2.911634,-2.338785,8.471801,-0.808428,0.384855,-0.443589
31959,2.726172,-2.842358,8.818627,-1.593256,0.352720,-0.470169
31960,2.384862,-4.618624,8.881377,-2.577140,0.194612,-0.398225
31961,2.097820,-7.725750,6.937560,-3.297788,-0.062305,-0.267957
31962,2.097622,-11.065144,4.281555,-2.493528,-0.120932,-0.211069
31963,2.441967,-11.157860,4.955068,-0.678570,0.116685,-0.234873
31964,2.148108,-8.557909,6.927394,0.146153,0.275207,-0.244632
31965,1.746147,-6.542030,8.001082,0.134497,0.252882,-0.270503
31966,1.847180,-5.587995,8.524443,-0.231472,0.207297,-0.264859
31967,1.870303,-5.356376,8.325363,-0.685622,0.254597,-0.244298
31968,1.760020,-5.265757,8.279122,-0.789492,0.337002,-0.229720
31969,1.544846,-4.940622,7.846641,-0.784233,0.332590,-0.228996
31970,1.526610,-4.612319,6.676331,-0.955051,0.187122,-0.273337
31971,2.057442,-4.807171,6.062993,-1.169911,0.029377,-0.311996
31972,2.721266,-5.919046,6.587839,-1.270541,-0.011190,-0.305157
31973,2.822532,-7.454529,7.338277,-1.113458,0.075800,-0.287878
31974,2.404258,-8.211418,7.683119,-0.739454,0.157827,-0.284391
31975,2.020808,-8.083640,8.004532,-0.418834,0.217009,-0.256699
31976,1.807391,-7.844564,7.907871,-0.371605,0.216491,-0.200258
31977,2.073108,-7.674504,7.132093,-0.386534,0.155784,-0.183691
31978,2.562021,-7.181431,6.349700,-0.248105,0.111791,-0.210457
31979,2.890097,-6.455814,5.826338,-0.060585,0.098820,-0.273612
31980,2.887728,-5.567031,5.916063,0.081884,0.155592,-0.356411
31981,2.538797,-4.846297,6.231870,0.073334,0.209824,-0.444436
31982,1.952558,-4.572521,6.564933,-0.190762,0.163636,-0.499096
31983,1.635961,-5.223803,6.307023,-0.663505,0.038632,-0.476135
31984,1.809813,-6.433304,5.659762,-1.015477,-0.032000,-0.410991
31985,2.266189,-7.208380,5.336924,-0.918299,0.024232,-0.365541
31986,2.629225,-6.800990,6.165318,-0.615382,0.134839,-0.356459
31987,2.704633,-6.094265,7.520882,-0.632447,0.189336,-0.370873
31988,2.432743,-6.289643,8.496371,-0.913603,0.152324,-0.376916
31989,2.261468,-7.346503,8.408522,-1.151207,0.067689,-0.363869
31990,2.280456,-8.421696,7.941202,-1.039936,0.035152,-0.357996
31991,2.403444,-8.676160,6.935116,-0.600373,0.062827,-0.370944
31992,2.508188,-7.725290,5.801973,-0.114247,0.059621,-0.425231
31993,2.706820,-6.608288,4.919695,0.201776,0.022154,-0.488398
31994,2.966366,-5.656853,4.353135,0.333577,0.025813,-0.589735
31995,3.160322,-4.848250,4.393119,0.375841,0.110440,-0.692161
31996,2.863019,-4.321754,4.475736,0.264365,0.164713,-0.766548
31997,2.526082,-4.371799,4.625211,-0.182070,0.126969,-0.790296
31998,2.575346,-5.348802,5.634477,-0.880570,0.054784,-0.717028
31999,2.672663,-7.266731,6.742463,-1.398199,0.038904,-0.557266
32000,2.805289,-8.631328,7.873720,-1.345710,0.069585,-0.430874
32001,2.921044,-8.219353,9.247379,-1.036278,0.109049,-0.410382
32002,2.996602,-7.140497,9.479210,-1.132736,0.092614,-0.441032
32003,2.891574,-6.915517,7.719164,-1.383353,0.017353,-0.520732
32004,2.823944,-7.615574,5.285918,-1.295221,-0.059668,-0.619393
32005,2.825542,-8.451472,3.513298,-0.730162,-0.116059,-0.736700
32006,3.048867,-8.512894,2.593418,0.115933,-0.113164,-0.837725
32007,3.030475,-7.444821,2.513268,0.839208,-0.087722,-0.900938
32008,3.117014,-6.347587,3.405819,1.113333,-0.078589,-0.922558
32009,3.452533,-6.001900,4.512103,0.885659,-0.073710,-0.883463
32010,3.757483,-6.168990,5.544449,0.535311,-0.040053,-0.798210
32011,3.827833,-6.094088,6.802068,0.256721,-0.002964,-0.724015
32012,3.875477,-5.485212,8.193983,-0.060120,-0.016645,-0.690363
32013,3.916177,-5.007750,8.814526,-0.602060,-0.066879,-0.711587
32014,3.878055,-5.145230,8.200078,-1.316862,-0.106814,-0.747907
32015,3.651409,-6.178742,6.610326,-1.747889,-0.112550,-0.781698
32016,3.419070,-7.452607,4.939656,-1.656503,-0.121682,-0.819970
32017,3.398020,-8.456883,3.578620,-1.192968,-0.133301,-0.849019
32018,3.431620,-8.749385,2.608991,-0.563082,-0.148270,-0.881319
32019,3.759118,-8.105756,2.498408,0.045216,-0.133360,-0.924920
32020,4.006757,-7.187644,3.298704,0.392493,-0.147918,-0.957896
32021,4.409796,-6.759848,4.576154,0.432873,-0.180543,-0.966148
32022,4.772201,-7.028408,5.774582,0.199380,-0.172633,-0.916944
32023,4.814269,-7.631795,6.543623,-0.058825,-0.165850,-0.820034
32024,4.585645,-7.687641,6.944992,-0.179396,-0.173928,-0.749235
32025,4.437953,-7.017974,7.219764,-0.210942,-0.213918,-0.733853
32026,4.468184,-6.334800,7.129834,-0.401738,-0.256609,-0.748424
32027,4.554072,-6.342680,6.391162,-0.681884,-0.272778,-0.793578
32028,4.561402,-7.074381,5.164787,-0.722298,-0.261165,-0.841146
32029,4.460050,-7.720263,3.992842,-0.355715,-0.252325,-0.913466
32030,4.388947,-7.539444,3.517445,0.186594,-0.236139,-0.977732
32031,4.323491,-6.740567,3.300036,0.514084,-0.285543,-1.003635
32032,4.548407,-6.032865,3.169245,0.604086,-0.349908,-1.021433
32033,5.006343,-5.471811,3.752765,0.606316,-0.339861,-1.027059
32034,5.206845,-5.431300,5.256760,0.507677,-0.305626,-1.008128
32035,5.289465,-5.877955,6.662867,0.160805,-0.300368,-0.947120
32036,5.572808,-6.434746,6.833576,-0.350086,-0.327225,-0.848890
32037,5.845848,-7.074291,6.974279,-0.531438,-0.307600,-0.772151
32038,5.868756,-7.451149,7.106091,-0.440570,-0.267374,-0.773044
32039,5.681354,-7.069114,6.613386,-0.361913,-0.281960,-0.830348
32040,5.366208,-6.582577,5.513252,-0.354567,-0.299884,-0.897338
32041,5.184120,-6.617750,4.038228,-0.394881,-0.314258,-0.944946
32042,5.120514,-6.953766,2.678431,-0.173129,-0.325143,-0.996883
32043,5.291227,-6.572700,2.194261,0.306575,-0.326138,-1.062150
32044,5.700119,-5.518512,2.680654,0.670253,-0.333208,-1.124610
32045,6.054247,-4.662035,3.647701,0.750831,-0.333586,-1.128750
32046,6.325110,-4.482038,4.682149,0.408056,-0.316351,-1.111191
32047,6.495778,-5.172188,5.520653,-0.224817,-0.297213,-1.035965
32048,6.503053,-6.465941,5.858929,-0.693704,-0.277407,-0.912651
32049,6.657377,-7.460238,6.111907,-0.711158,-0.287945,-0.798961
32050,6.870040,-7.222558,6.944380,-0.472449,-0.291938,-0.751972
32051,6.825791,-6.764687,7.549968,-0.529731,-0.274594,-0.745419
32052,6.437165,-7.282810,7.153174,-0.793955,-0.281240,-0.757059
32053,6.094635,-8.478947,5.775423,-0.814925,-0.336383,-0.798118
32054,6.012349,-9.112855,3.641618,-0.345548,-0.356216,-0.829150
32055,5.739127,-8.536322,2.354260,0.515860,-0.351124,-0.839684
32056,5.506097,-7.020494,2.000872,1.174453,-0.424952,-0.851846
32057,5.766716,-5.335951,1.630648,1.397660,-0.532687,-0.875088
32058,6.234214,-4.064918,1.898662,1.462812,-0.562200,-0.878838
32059,6.596591,-3.272974,2.844747,1.363387,-0.500254,-0.854344
32060,6.894788,-3.007195,4.575471,0.974238,-0.418958,-0.828639
32061,7.281302,-2.966229,5.762142,0.255434,-0.408853,-0.730653
32062,7.694307,-3.410285,6.562278,-0.475329,-0.376960,-0.623215
32063,7.943060,-4.179833,7.497037,-0.820621,-0.353958,-0.580391
32064,7.894238,-4.727058,8.096988,-0.929173,-0.329839,-0.636219
32065,7.573053,-5.016049,7.587647,-1.096382,-0.284752,-0.710948
32066,7.148721,-5.588582,5.841750,-1.275004,-0.267101,-0.752634
32067,6.826591,-6.566201,3.567634,-1.086973,-0.299013,-0.791986
32068,6.722250,-7.313704,2.009759,-0.224587,-0.326964,-0.867200
32069,6.813625,-6.536956,1.795451,0.708973,-0.379053,-0.915364
32070,6.852329,-5.184443,1.728497,1.104047,-0.458669,-0.942089
32071,7.172844,-4.002289,1.859795,1.189376,-0.499495,-0.965932
32072,7.690788,-3.194481,2.941456,1.170394,-0.455208,-0.932152
32073,7.601714,-2.863828,4.840039,0.926712,-0.374338,-0.887766
32074,7.706482,-2.791631,6.082770,0.296709,-0.375752,-0.846329
32075,8.216692,-3.021182,6.720367,-0.468481,-0.361391,-0.754797
32076,8.532384,-3.876035,6.699228,-0.992607,-0.286920,-0.659220
32077,8.684999,-4.604649,6.346882,-1.133546,-0.252947,-0.641522
32078,8.712368,-5.068662,6.151472,-0.969168,-0.211665,-0.693426
32079,8.426676,-5.497246,5.732709,-0.827651,-0.187823,-0.761073
32080,8.083699,-6.063231,4.752015,-0.670327,-0.228876,-0.800069
32081,7.895093,-6.670358,3.596305,-0.154358,-0.281827,-0.828751
32082,7.916865,-6.496979,3.247693,0.689485,-0.318189,-0.857496
32083,8.009001,-5.502257,3.927952,1.359037,-0.360700,-0.859413
32084,8.172042,-4.586619,4.443636,1.665970,-0.443982,-0.836639
32085,8.377274,-3.493017,4.276506,1.801151,-0.498936,-0.858708
32086,8.561989,-2.414338,4.118926,1.960012,-0.472678,-0.920659
32087,8.402078,-1.333464,4.040373,2.008929,-0.412381,-1.006193
32088,8.475073,-0.670606,4.507775,1.849919,-0.386206,-1.057905
32089,8.691258,-0.587282,5.384076,1.217830,-0.381930,-1.032429
32090,8.813253,-1.180234,5.784083,0.181188,-0.350842,-0.993167
32091,8.856344,-2.522482,5.531482,-0.732336,-0.310498,-0.909964
32092,8.710927,-4.213589,4.168400,-1.050597,-0.277261,-0.860106
32093,8.433161,-5.380022,2.597160,-0.436483,-0.267797,-0.861214
32094,8.150639,-4.907355,2.606173,0.412771,-0.262267,-0.901643
32095,8.000597,-3.797121,3.001599,0.548712,-0.325160,-0.913735
32096,8.021297,-3.362664,3.343640,0.390325,-0.382752,-0.889718
32097,8.032288,-3.400480,3.514243,0.415847,-0.390272,-0.864841
32098,8.182461,-3.193960,3.888009,0.642982,-0.363611,-0.840521
32099,8.325620,-2.714351,4.002691,0.758102,-0.307778,-0.805395
32100,8.128140,-2.128236,3.589756,0.712611,-0.308550,-0.778594
32101,8.124672,-1.610079,3.059358,0.559902,-0.374430,-0.782339
32102,8.310530,-1.226469,2.461780,0.331941,-0.416689,-0.802639
32103,8.462003,-1.092598,2.184476,0.096025,-0.429990,-0.790981
32104,8.535120,-1.123214,2.316900,-0.142657,-0.448277,-0.763769
32105,8.656832,-1.635593,2.945501,-0.359007,-0.458043,-0.717189
32106,9.145691,-2.415426,3.889937,-0.535015,-0.423028,-0.638843
32107,9.732686,-3.113804,4.226971,-0.617741,-0.331955,-0.535363
32108,9.827045,-3.514245,4.302815,-0.543609,-0.210465,-0.440071
32109,9.522209,-3.399372,4.516330,-0.302667,-0.203318,-0.440594
32110,9.506448,-2.620954,4.913508,-0.051164,-0.247237,-0.483156
32111,9.576181,-1.741410,5.184027,0.056871,-0.218263,-0.531077
32112,9.485798,-1.196561,4.947168,-0.029367,-0.166756,-0.563186
32113,9.417704,-0.893154,4.010206,-0.084260,-0.168659,-0.612977
32114,9.363318,-0.865895,3.541299,0.040752,-0.171749,-0.667781
32115,9.132437,-1.100396,3.357341,0.119545,-0.202966,-0.690692
32116,9.057775,-1.141377,2.594136,0.080481,-0.300991,-0.695605
32117,9.386540,-1.094441,2.019873,0.026793,-0.324536,-0.676947
32118,9.501887,-1.068860,1.700822,-0.132452,-0.275533,-0.626277
32119,8.931643,-1.241738,2.300563,-0.293856,-0.235572,-0.554794
32120,8.635788,-1.962777,3.949328,-0.554920,-0.318204,-0.468622
32121,9.116481,-2.897466,4.338273,-0.848943,-0.362152,-0.386741
32122,9.198643,-3.650752,4.026201,-0.908458,-0.230526,-0.286404
32123,8.563761,-4.361307,4.027485,-0.791286,-0.179669,-0.225804
32124,8.183292,-4.491908,3.404752,-0.400055,-0.247310,-0.185088
32125,8.508130,-3.581801,2.477126,0.225828,-0.254903,-0.180132
32126,8.726653,-2.257331,2.101065,0.791499,-0.171647,-0.202099
32127,8.764966,-0.979771,2.581968,1.323880,-0.093012,-0.280045
32128,8.905817,0.214557,3.533881,1.759652,-0.043119,-0.356718
32129,9.178998,1.052451,4.012211,1.800798,-0.077588,-0.412651
32130,9.512359,1.479818,4.013115,1.217345,-0.201384,-0.471607
32131,9.760545,1.524241,3.693144,0.113991,-0.272497,-0.451150
32132,9.664340,0.840213,3.419133,-0.895064,-0.301936,-0.346767
32133,9.555363,-0.212964,3.441077,-1.534663,-0.362298,-0.290062
32134,9.602919,-1.432960,3.024670,-1.649857,-0.433398,-0.288608
32135,9.522418,-2.446727,2.035766,-0.991764,-0.367662,-0.281218
32136,9.361697,-2.357193,2.378378,-0.004068,-0.261305,-0.277989
32137,9.229602,-1.554465,3.441050,0.363865,-0.244802,-0.242286
32138,9.161889,-1.100042,3.548591,0.059477,-0.312153,-0.212195
32139,9.198809,-1.107921,3.021553,-0.253601,-0.361522,-0.189396
32140,9.468689,-1.270034,2.647339,-0.112567,-0.362980,-0.180973
32141,9.621522,-0.893036,2.618041,0.258464,-0.307447,-0.191997
32142,9.579299,-0.258029,3.001028,0.418404,-0.276918,-0.207716
32143,9.683233,0.153948,3.340796,0.336828,-0.268865,-0.207930
32144,9.639833,0.208892,3.312434,-0.031123,-0.244965,-0.200916
32145,9.382152,-0.258354,2.713702,-0.591379,-0.243157,-0.185510
32146,9.260585,-0.934784,2.132334,-0.949119,-0.256307,-0.135462
32147,9.201372,-1.524459,1.718292,-0.845527,-0.268618,-0.114287
32148,9.161350,-1.726009,1.667907,-0.380701,-0.250479,-0.105636
32149,9.105912,-1.463808,2.387401,-0.077986,-0.242367,-0.086974
32150,9.134977,-1.588999,3.062954,-0.313810,-0.291072,-0.037960
32151,9.354253,-2.326860,3.347636,-0.636088,-0.341467,0.035574
32152,9.496872,-3.295654,3.572518,-0.619588,-0.327309,0.115540
32153,9.519107,-4.218279,3.435894,-0.310201,-0.290398,0.206553
32154,9.503589,-4.462386,2.408480,0.063326,-0.237261,0.310631
32155,9.363481,-3.832996,1.488344,0.551717,-0.196465,0.410538
32156,9.270466,-2.463069,1.656536,1.189110,-0.217911,0.437966
32157,9.626037,-0.986209,2.625116,1.744279,-0.227995,0.404748
32158,10.019064,0.242919,3.620676,1.906994,-0.129913,0.367793
32159,9.665861,0.873784,3.602426,1.637877,-0.080679,0.344317
32160,9.483206,1.164933,3.432226,1.104314,-0.159956,0.289048
32161,9.960886,1.197640,3.265050,0.581326,-0.212273,0.229823
32162,9.973974,0.929850,2.695016,0.341374,-0.188662,0.157446
32163,9.765966,0.539359,2.171321,0.329007,-0.205283,0.099889
32164,9.879213,0.547152,2.176017,0.432709,-0.200595,0.049975
32165,10.105054,0.796052,3.055387,0.536200,-0.102729,0.018150
32166,10.055638,0.934681,3.496508,0.433532,-0.043470,0.001087
32167,9.996729,0.987175,3.545645,0.165868,-0.031038,-0.032821
32168,9.926672,0.715013,3.206394,-0.197988,-0.044518,-0.071990
32169,9.899543,0.396454,2.655863,-0.365034,-0.055299,-0.116416
32170,9.827648,0.097647,2.491574,-0.319555,-0.056566,-0.152939
32171,9.839016,-0.025274,2.253650,-0.152175,-0.036558,-0.198931
32172,9.937062,0.225405,2.143561,0.073145,0.030048,-0.240951
32173,10.051952,0.513731,2.018035,0.094023,0.097462,-0.279611
32174,10.033195,0.567462,1.697089,-0.204111,0.125717,-0.282771
32175,9.765101,0.321055,1.483505,-0.667810,0.141787,-0.250071
32176,9.403324,-0.414595,1.741167,-1.123027,0.113184,-0.190000
32177,9.127417,-1.186045,1.624487,-1.537775,0.039818,-0.170387
32178,9.068438,-1.716540,0.970628,-1.466174,-0.016072,-0.197158
32179,9.213917,-2.060235,0.881809,-0.763380,-0.039229,-0.199464
32180,9.414108,-1.680672,1.255666,-0.128203,-0.025342,-0.213882
32181,9.269192,-1.423031,2.038138,-0.063145,-0.029799,-0.184492
32182,9.074726,-1.801637,2.743829,-0.525929,-0.145021,-0.107978
32183,9.400307,-3.032652,3.083085,-1.021007,-0.252400,0.023168
32184,9.588737,-4.358634,1.858181,-1.068729,-0.332633,0.087972
32185,9.345082,-4.550694,-0.007505,0.152670,-0.306414,0.061598
32186,9.226754,-2.319341,0.308407,1.875397,-0.265651,-0.069323
32187,9.507045,0.233053,1.202362,2.837636,-0.243169,-0.247458
32188,9.955058,1.951596,2.239830,3.047636,-0.151398,-0.390159
32189,10.217121,3.562674,3.303625,2.256704,0.058988,-0.457387
32190,9.634440,4.345028,4.512719,0.620638,0.107092,-0.294447
32191,8.899905,3.016000,4.088377,-1.220597,-0.285885,-0.079983
32192,9.634356,1.189523,2.570040,-2.555555,-0.576900,0.110023
32193,10.243710,-0.776647,1.347160,-3.195552,-0.348699,0.225126
32194,9.695084,-2.921178,1.554470,-2.695215,-0.076692,0.042881
32195,9.111420,-3.977833,0.486608,-0.429219,-0.164656,-0.102242
32196,9.666472,-1.810050,1.552203,1.486131,-0.041636,-0.187438
32197,9.687891,-0.008467,2.908020,1.865663,0.036936,-0.240494
32198,9.879072,0.954428,3.584413,1.273298,0.030282,-0.252953
32199,9.942382,1.328119,3.674651,0.112410,0.003352,-0.227515
32200,9.838299,0.733349,3.250237,-0.993437,-0.057486,-0.139071
32201,9.893630,-0.280602,2.511219,-1.586460,-0.059517,-0.101924
32202,9.770871,-1.265059,2.003175,-1.500095,0.000472,-0.064659
32203,9.558075,-2.062525,1.464989,-0.821130,0.012287,-0.068312
32204,9.610031,-1.861152,1.415485,0.103659,0.050853,-0.096235
32205,9.666525,-1.067843,2.112744,0.523999,0.082786,-0.097389
32206,9.656774,-0.493072,2.379600,0.309412,0.080325,-0.080591
32207,9.611992,-0.455829,2.247694,-0.184216,0.058550,-0.049767
32208,9.551144,-0.747438,1.988009,-0.475080,0.026491,-0.037734
32209,9.576457,-1.140824,1.902436,-0.368638,0.020708,-0.030069
32210,9.532983,-1.256293,1.731422,-0.088458,0.030056,-0.034330
32211,9.366876,-1.018658,1.830327,0.135384,0.045694,-0.038364
32212,9.323390,-0.785875,1.996421,0.125990,0.006117,-0.028910
32213,9.433248,-0.637403,1.882472,0.042366,-0.013814,-0.023545
32214,9.508477,-0.684370,1.864203,0.014064,-0.016455,-0.020897
32215,9.591679,-0.589324,1.818549,0.082109,-0.016057,-0.024307
32216,9.695743,-0.338230,2.049443,0.203814,-0.008196,-0.034156
32217,9.762056,-0.084861,2.154515,0.257363,0.001226,-0.051177
32218,9.811519,0.124062,2.109209,0.204692,0.017490,-0.055766
32219,9.717748,0.124981,2.138397,0.010255,0.012353,-0.042725
32220,9.597114,-0.136271,2.017962,-0.275776,-0.010614,-0.031331
32221,9.545934,-0.437474,1.774985,-0.389054,-0.023143,-0.024748
32222,9.569766,-0.735454,1.781908,-0.292802,-0.012453,-0.016226
32223,9.592377,-0.740989,1.853291,-0.078752,-0.009746,-0.019313
32224,9.618714,-0.524266,1.904085,0.061962,-0.015049,-0.026392
32225,9.572003,-0.362778,2.037648,0.016171,-0.034475,-0.012922
32226,9.559656,-0.439254,2.226949,-0.126775,-0.055834,0.000612
32227,9.557065,-0.813405,2.289997,-0.216002,-0.067889,0.021004
32228,9.658879,-1.135525,2.200584,-0.197214,-0.074860,0.036507
32229,9.661276,-1.280085,2.079197,-0.045549,-0.057188,0.026946
32230,9.711922,-1.075190,1.951505,0.242311,-0.030355,0.023257
32231,9.682774,-0.582664,2.053218,0.430481,-0.011923,0.008453
32232,9.712266,-0.145620,2.164213,0.459363,-0.008247,-0.004354
32233,9.637004,0.039334,2.121822,0.244078,-0.022232,-0.003603
32234,9.520667,-0.014789,1.804454,-0.009552,-0.041633,0.005799
32235,9.495765,-0.346996,1.978079,-0.154400,-0.063755,0.016638
32236,9.604172,-0.689147,1.744194,-0.227644,-0.066925,0.017438
32237,9.578242,-0.897001,1.857930,-0.096321,-0.028013,0.032475
32238,9.714549,-0.788043,2.159146,0.172066,-0.021106,0.024201
32239,9.846635,-0.316902,2.360348,0.382701,0.012812,0.002128
32240,9.864920,0.208613,2.453557,0.432327,0.050254,-0.029817
32241,9.870096,0.504013,2.539794,0.308663,0.058854,-0.050503
32242,9.891480,0.363389,2.588452,-0.055143,0.048989,-0.038585
32243,9.825246,-0.209361,2.169263,-0.523376,0.006000,-0.021355
32244,9.766759,-0.977634,1.551849,-0.735584,-0.023268,0.014519
32245,9.646852,-1.551372,1.187144,-0.475918,-0.020737,0.016923
32246,9.569815,-1.549877,1.182985,0.181627,-0.010406,-0.001209
32247,9.504791,-0.807512,1.731491,0.706211,0.010736,-0.014174
32248,9.468272,-0.100691,2.191204,0.739838,0.016379,-0.027880
32249,9.531768,0.278226,2.396986,0.411791,0.014494,-0.017094
32250,9.584386,0.288648,2.655745,-0.028301,-0.001820,0.004843
32251,9.598536,-0.230649,2.421808,-0.367806,-0.028759,0.004126
32252,9.583849,-0.751455,1.836681,-0.444087,-0.021412,0.011275
32253,9.605828,-1.124097,1.485741,-0.188356,-0.031927,0.012530
32254,9.723896,-0.929602,1.577620,0.281759,-0.011848,-0.010346
32255,9.755860,-0.263250,1.913755,0.609161,0.034729,-0.033540
32256,9.667133,0.169865,2.136856,0.523759,0.026700,-0.045213
32257,9.660100,0.357553,2.153106,0.126737,0.003533,-0.033178
32258,9.625058,-0.026306,2.208735,-0.328383,-0.009875,-0.004520
32259,9.602530,-0.680707,1.908255,-0.578582,-0.030387,0.013400
32260,9.511656,-1.312412,1.548730,-0.493549,-0.034904,0.024083
32261,9.584122,-1.594382,1.297478,-0.051365,-0.033823,0.007107
32262,9.686369,-1.226041,1.630750,0.489969,0.003078,-0.001976
32263,9.648004,-0.712259,2.039983,0.628370,0.015467,-0.012362
32264,9.559294,-0.315611,2.002625,0.439799,0.001477,-0.016010
32265,9.500665,-0.398122,2.042701,0.161934,-0.017731,-0.009739
32266,9.484117,-0.609184,1.773662,0.028000,-0.033315,-0.013661
32267,9.616250,-0.777532,1.580898,0.144175,-0.028904,-0.015683
32268,9.653427,-0.643372,1.725633,0.370103,-0.020951,-0.031688
32269,9.715033,-0.313529,1.987550,0.475007,-0.031950,-0.040309
32270,9.828426,-0.029926,2.237063,0.481069,-0.042205,-0.062063
32271,9.939445,0.192866,2.297678,0.448171,-0.041407,-0.083894
32272,9.984310,0.335369,2.376863,0.395313,-0.034117,-0.086317
32273,10.018246,0.394252,2.240689,0.255554,-0.034744,-0.082421
32274,10.088655,0.239747,2.182768,0.045356,-0.034143,-0.068768
32275,10.009938,0.012405,1.961796,-0.097509,-0.034042,-0.052822
32276,9.977125,-0.217625,1.888751,-0.092054,-0.019495,-0.037100
32277,9.929012,-0.264750,1.885702,-0.017960,-0.018357,-0.023452
32278,9.777706,-0.188332,1.988567,-0.001694,-0.001639,-0.014707
32279,9.600976,-0.161363,2.083804,-0.074592,-0.004334,-0.000578
32280,9.462926,-0.319451,2.101300,-0.173747,-0.014785,0.009082
32281,9.448018,-0.499681,1.933990,-0.185970,-0.005919,0.016406
32282,9.388723,-0.616734,1.967546,-0.108342,0.010633,0.022637
32283,9.354392,-0.685376,2.010933,-0.048440,0.017678,0.027235
32284,9.430177,-0.713398,1.923966,-0.005387,0.022681,0.034142
32285,9.555334,-0.669229,1.847618,0.041748,0.038950,0.043235
32286,9.612435,-0.582937,1.810963,0.121453,0.059184,0.049282
32287,9.604365,-0.386282,1.917585,0.177163,0.062400,0.047758
32288,9.741296,-0.234558,1.986547,0.162488,0.054852,0.049658
32289,9.774786,-0.150443,2.038346,0.120403,0.058369,0.048597
32290,9.896737,-0.155425,2.110985,0.084920,0.052730,0.047849
32291,10.003210,-0.168292,2.131533,0.072506,0.049960,0.042048
32292,9.999210,-0.218314,2.202600,0.079158,0.058810,0.040214
32293,9.907606,-0.326028,2.227896,0.077894,0.048234,0.039886
32294,9.730017,-0.489170,2.044701,0.053469,0.042114,0.031336
32295,9.577081,-0.627944,1.861085,0.065473,0.027536,0.036186
32296,9.609005,-0.780781,1.693077,0.115088,0.021453,0.039448
32297,9.576379,-0.820985,1.585661,0.202683,0.030811,0.040094
32298,9.458092,-0.702318,1.561556,0.319276,0.039931,0.034384
32299,9.416755,-0.416112,1.649727,0.401531,0.038930,0.030978
32300,9.417173,-0.196091,1.861061,0.381160,0.032992,0.029767
32301,9.393710,-0.047141,1.812425,0.265834,0.027853,0.027026
