// Start Time: Unknown
// Update Rate: 100.0Hz
// Filter Profile: human (46.1)
// Firmware Version: 4.3.5
PacketCounter,Acc_X,Acc_Y,Acc_Z,Gyr_X,Gyr_Y,Gyr_Z
26019,9.818839,0.211072,0.637485,0.009739,0.011371,-0.012117
26020,9.818514,0.180980,0.623530,0.013503,0.007375,-0.008318
26021,9.787439,0.165989,0.658350,0.019637,0.007041,-0.010588
26022,9.760943,0.207918,0.654122,0.019639,0.007043,-0.010587
26023,9.800988,0.210442,0.691755,0.021607,0.006654,-0.013446
26024,9.841248,0.244111,0.744295,0.012461,0.008393,-0.009928
26025,9.801072,0.243821,0.707856,0.010282,0.003836,-0.007528
26026,9.860989,0.279248,0.674395,-0.005430,0.005963,-0.004382
26027,9.876224,0.256247,0.643253,-0.023534,0.008539,-0.001017
26028,9.847009,0.206017,0.629049,-0.026225,0.007412,0.002642
26029,9.859980,0.154099,0.617338,-0.012480,0.005675,0.002356
26030,9.884341,0.115909,0.656797,0.003440,-0.001463,0.001391
26031,9.926518,0.114604,0.659361,0.032680,-0.000321,-0.004219
26032,9.897563,0.096590,0.659086,0.056843,0.000149,-0.005951
26033,9.842581,0.182128,0.683470,0.069133,-0.000501,-0.010483
26034,9.831423,0.201039,0.646338,0.069475,-0.003016,-0.008069
26035,9.789469,0.234520,0.658028,0.058067,-0.002453,0.001745
26036,9.803137,0.276534,0.689728,0.039226,-0.001402,0.005906
26037,9.830019,0.297583,0.724411,0.006827,0.006316,0.010799
26038,9.774174,0.256234,0.690354,-0.010294,0.006119,0.005793
26039,9.800821,0.245847,0.710621,-0.013718,0.003474,0.010255
26040,9.825196,0.207162,0.750120,-0.014788,-0.001367,0.004524
26041,9.831439,0.198188,0.646962,0.003445,-0.001458,0.001393
26042,9.818008,0.187437,0.629558,0.015108,-0.001162,-0.002111
26043,9.835809,0.224116,0.592849,0.023136,0.001493,-0.003341
26044,9.836204,0.287265,0.622663,0.022498,0.006554,-0.008168
26045,9.833838,0.259839,0.643029,0.017813,0.009924,-0.007506
26046,9.833549,0.229615,0.629145,0.006534,0.007822,-0.011338
26047,9.830987,0.170818,0.634809,0.005419,0.008108,-0.003201
26048,9.830952,0.171197,0.635257,-0.001475,0.001063,-0.004252
26049,9.873113,0.169919,0.638056,0.003126,0.001074,-0.001020
26050,9.872695,0.107716,0.608794,0.011776,0.002776,-0.003276
26051,9.870586,0.110965,0.643399,0.028477,0.003036,-0.000905
26052,9.830487,0.109703,0.606605,0.039657,0.002672,0.002703
26053,9.799850,0.156378,0.670177,0.049152,-0.001578,0.001612
26054,9.786425,0.145513,0.652902,0.062960,0.002577,0.005453
26055,9.746737,0.206547,0.645355,0.068507,0.003222,0.004218
26056,9.789309,0.267592,0.677399,0.061838,0.001137,0.003622
26057,9.749641,0.328659,0.669542,0.045558,0.000819,0.003889
26058,9.789721,0.330077,0.706596,0.025817,0.001943,0.002757
26059,9.803162,0.340886,0.723684,0.005123,-0.003410,0.001988
26060,9.804862,0.275150,0.659942,-0.011495,-0.001217,-0.000166
26061,9.815604,0.195124,0.667370,-0.026227,-0.005985,0.000468
26062,9.870820,0.141609,0.657720,-0.020777,-0.001966,0.003118
26063,9.897475,0.131890,0.677548,-0.013785,0.001705,0.000271
26064,9.855260,0.133242,0.675520,-0.004991,0.011750,0.002343
26065,9.857910,0.224050,0.685981,-0.001882,0.006964,-0.002786
26066,9.873171,0.200977,0.654990,0.005429,0.008110,-0.003213
26067,9.889045,0.271687,0.667883,0.004078,0.007548,-0.001382
26068,9.920029,0.287942,0.634485,0.003953,0.009164,-0.007467
26069,9.904213,0.249414,0.638117,-0.003763,0.013930,-0.005573
26070,9.859262,0.160980,0.626985,-0.006611,0.008561,-0.012105
26071,9.814909,0.166249,0.659452,0.000629,0.008999,-0.002780
26072,9.788223,0.176045,0.640208,-0.003146,0.003018,-0.004843
26073,9.785893,0.148243,0.660216,-0.003146,0.003018,-0.004843
26074,9.786052,0.180059,0.675068,-0.004302,0.001548,-0.006679
26075,9.843552,0.155465,0.646285,0.000108,0.002477,0.000221
26076,9.843725,0.186534,0.661075,0.003984,0.000978,0.004261
26077,9.859459,0.225030,0.658511,-0.002583,-0.002743,0.009743
26078,9.874665,0.169067,0.611843,-0.000680,-0.003846,0.016638
26079,9.914785,0.168902,0.648308,-0.003297,-0.008355,0.016410
26080,9.974474,0.139133,0.584306,-0.000980,-0.005412,0.020082
26081,10.115955,0.045857,0.530945,0.007740,-0.006028,0.033662
26082,10.179407,-0.119847,0.549634,0.008278,0.017384,0.052736
26083,10.057823,-0.351827,0.547737,0.018790,0.042372,0.077479
26084,9.964162,-0.376940,0.668987,0.038701,0.036649,0.110300
26085,9.949668,-0.209590,0.776958,0.067659,0.026053,0.149167
26086,9.855584,-0.048004,0.809663,0.075758,0.019280,0.179197
26087,9.803087,0.016348,0.800348,0.076020,0.007866,0.187071
26088,9.795666,0.107304,0.773127,0.065830,0.003079,0.174893
26089,9.761102,0.146496,0.696208,0.041730,-0.005866,0.158861
26090,9.777548,0.171418,0.693033,0.016317,-0.004783,0.133125
26091,9.777188,0.128252,0.678041,0.006879,-0.005024,0.110585
26092,9.811416,0.161724,0.623455,0.017017,-0.005574,0.092866
26093,9.802091,0.232890,0.615157,0.039921,0.001745,0.091016
26094,9.792885,0.303767,0.607271,0.051612,0.004779,0.101176
26095,9.836716,0.354312,0.639641,0.057156,0.012254,0.107715
26096,9.786231,0.262414,0.698502,0.043759,0.033053,0.100736
26097,9.699560,0.065102,0.784074,0.034484,0.039913,0.102017
26098,9.800852,-0.140918,0.796102,0.037202,0.047886,0.106123
26099,9.849141,-0.230670,0.847634,0.057563,0.074363,0.117801
26100,9.877491,-0.224310,0.856237,0.072609,0.095322,0.132933
26101,9.851760,-0.164749,0.875032,0.078741,0.106313,0.146010
26102,9.849203,-0.144343,0.934678,0.061802,0.115110,0.158688
26103,9.865627,-0.089907,0.957715,0.023408,0.116300,0.167664
26104,9.920001,-0.098570,0.989656,-0.023542,0.118991,0.169289
26105,9.918611,-0.217035,1.099919,-0.054611,0.148741,0.169575
26106,9.909589,-0.290744,1.155243,-0.079931,0.166657,0.172879
26107,9.885455,-0.406647,1.179473,-0.106059,0.165267,0.167341
26108,9.951935,-0.405968,1.233656,-0.097789,0.169563,0.160101
26109,9.982104,-0.310844,1.294814,-0.056745,0.184920,0.154496
26110,9.965297,-0.134456,1.312247,-0.011089,0.209265,0.144122
26111,9.911730,0.105526,1.322884,0.018961,0.227033,0.144867
26112,9.889887,0.329643,1.287031,0.014042,0.246355,0.126454
26113,9.768520,0.449668,1.324677,-0.016398,0.268662,0.115168
26114,9.628995,0.598430,1.428394,-0.063345,0.268025,0.096407
26115,9.594055,0.605736,1.502436,-0.156894,0.263479,0.073567
26116,9.542985,0.541044,1.530572,-0.217034,0.280113,0.050797
26117,9.543356,0.488493,1.616169,-0.256092,0.295467,0.011559
26118,9.542649,0.513781,1.627220,-0.259707,0.318488,-0.039508
26119,9.596355,0.550940,1.662933,-0.249077,0.341139,-0.093972
26120,9.631956,0.629184,1.626813,-0.234196,0.363344,-0.137911
26121,9.626708,0.777632,1.619148,-0.240979,0.396453,-0.181429
26122,9.632686,0.864760,1.708667,-0.259891,0.421666,-0.212640
26123,9.587477,1.006950,1.773768,-0.283662,0.439639,-0.247935
26124,9.534875,1.016812,1.919364,-0.316660,0.442777,-0.286190
26125,9.426227,0.990608,2.025506,-0.349203,0.434987,-0.323886
26126,9.492791,0.919413,2.069665,-0.372342,0.445259,-0.363580
26127,9.548155,0.856438,1.991445,-0.387943,0.462942,-0.401819
26128,9.544126,0.915939,1.987581,-0.374808,0.488613,-0.441889
26129,9.560115,1.047192,1.968039,-0.374870,0.503746,-0.475508
26130,9.554544,1.221697,1.911101,-0.379164,0.517583,-0.506423
26131,9.519995,1.393591,1.939498,-0.400045,0.517083,-0.530519
26132,9.473209,1.526627,1.933665,-0.431665,0.509720,-0.556985
26133,9.439955,1.622620,2.001671,-0.477066,0.494424,-0.585061
26134,9.453367,1.518534,2.082579,-0.538631,0.469146,-0.615039
26135,9.449399,1.336318,2.089951,-0.563389,0.468181,-0.653485
26136,9.481807,1.167949,2.224122,-0.543854,0.470222,-0.687957
26137,9.515591,1.082154,2.286386,-0.516014,0.483799,-0.718301
26138,9.480056,1.000637,2.265090,-0.474440,0.498423,-0.736155
26139,9.391204,1.061821,2.233484,-0.414079,0.514508,-0.753977
26140,9.284612,1.193422,2.357465,-0.369764,0.517042,-0.777879
26141,9.243193,1.427169,2.426099,-0.348366,0.513341,-0.803274
26142,9.203342,1.573174,2.476843,-0.351435,0.508488,-0.824156
26143,9.214886,1.761762,2.541126,-0.353940,0.514817,-0.848757
26144,9.177100,1.844292,2.504593,-0.354800,0.511783,-0.885486
26145,9.155033,1.919095,2.524084,-0.363088,0.500461,-0.917237
26146,9.218602,1.962136,2.490950,-0.380941,0.493818,-0.930468
26147,9.206514,1.959346,2.544569,-0.411420,0.488081,-0.936496
26148,9.138877,1.972364,2.585108,-0.431620,0.481680,-0.938235
26149,8.983101,1.998417,2.567585,-0.461189,0.462817,-0.934062
26150,8.794798,1.997083,2.572598,-0.466281,0.440411,-0.932245
26151,8.631262,1.945471,2.557429,-0.474103,0.399522,-0.930930
26152,8.610079,1.991532,2.636323,-0.494501,0.377590,-0.922194
26153,8.685977,1.950808,2.660509,-0.506916,0.376144,-0.921608
26154,8.676405,1.948758,2.557739,-0.500195,0.378958,-0.923713
26155,8.724908,1.904213,2.482519,-0.482969,0.370147,-0.926874
26156,8.744492,1.892049,2.346815,-0.454635,0.362647,-0.918959
26157,8.655058,1.869184,2.394079,-0.431268,0.356855,-0.902753
26158,8.507460,1.923779,2.449751,-0.416503,0.315682,-0.886001
26159,8.504260,1.870679,2.473156,-0.417154,0.280640,-0.866634
26160,8.589717,1.929692,2.443445,-0.374733,0.267831,-0.858638
26161,8.684624,2.046620,2.497065,-0.336349,0.277557,-0.855411
26162,8.746012,2.195440,2.492483,-0.299472,0.275705,-0.852608
26163,8.913407,2.317972,2.496512,-0.267093,0.278370,-0.854393
26164,8.972493,2.499544,2.425358,-0.257996,0.277432,-0.856400
26165,8.960414,2.567567,2.315106,-0.283844,0.264726,-0.859590
26166,8.791513,2.601870,2.152159,-0.326477,0.235424,-0.849353
26167,8.652879,2.533249,2.103623,-0.369493,0.175584,-0.818291
26168,8.671116,2.277982,2.169910,-0.414714,0.113227,-0.765370
26169,8.735448,1.953669,2.247450,-0.432837,0.071363,-0.716832
26170,8.863614,1.776460,2.403991,-0.449266,0.053906,-0.656963
26171,8.977928,1.669619,2.422501,-0.442445,0.064391,-0.608842
26172,9.105688,1.753199,2.357901,-0.409788,0.094852,-0.573999
26173,9.148629,1.893043,2.320372,-0.361421,0.119671,-0.559832
26174,9.179914,2.045940,2.173215,-0.317917,0.117119,-0.554291
26175,9.271992,2.101531,2.186296,-0.282872,0.099463,-0.529556
26176,9.293757,2.123871,2.334060,-0.270869,0.056219,-0.490941
26177,9.249620,2.097670,2.484553,-0.280819,0.016238,-0.443005
26178,9.019716,1.949297,2.641538,-0.280358,0.000996,-0.388497
26179,8.777662,1.880863,2.683983,-0.268674,-0.013498,-0.353533
26180,8.712947,1.816073,2.574816,-0.253550,-0.011533,-0.320247
26181,8.734159,1.924351,2.350400,-0.218295,0.014759,-0.291052
26182,8.999866,2.165590,2.288878,-0.202580,0.036971,-0.273076
26183,9.394544,2.344448,2.305952,-0.199280,0.038584,-0.266349
26184,9.592353,2.459138,2.231543,-0.222985,0.027597,-0.239377
26185,9.539023,2.455833,2.256240,-0.248282,-0.011304,-0.214325
26186,9.253758,2.439848,2.412311,-0.258102,-0.046798,-0.183694
26187,8.999862,2.380828,2.600392,-0.255192,-0.082549,-0.154746
26188,8.844251,2.235679,2.716400,-0.273424,-0.107581,-0.135513
26189,8.916849,2.123376,2.608725,-0.281197,-0.094756,-0.122657
26190,9.073687,2.172960,2.608694,-0.249350,-0.070754,-0.117394
26191,9.296609,2.228830,2.593789,-0.209433,-0.037474,-0.105197
26192,9.504471,2.259997,2.512868,-0.139308,-0.018966,-0.084187
26193,9.613879,2.249494,2.521294,-0.048968,-0.019825,-0.061129
26194,9.716523,2.244020,2.713208,-0.005629,-0.032354,-0.037059
26195,9.753565,2.230896,2.919711,0.026013,-0.046058,-0.005256
26196,9.626886,2.227251,2.969631,0.025721,-0.067508,0.021460
26197,9.353242,2.244716,2.722036,0.037210,-0.093983,0.037110
26198,9.137591,2.347398,2.586624,0.057868,-0.132456,0.036322
26199,9.133006,2.531901,2.531209,0.034597,-0.148669,0.054870
26200,9.289774,2.694228,2.607104,-0.009754,-0.149705,0.059505
26201,9.553037,2.812379,2.943327,-0.042393,-0.119539,0.062716
26202,9.813316,2.914611,3.129410,-0.043800,-0.075173,0.057897
26203,9.735392,2.926802,3.163341,0.008570,-0.031110,0.035411
26204,9.505846,2.782812,3.184784,0.045561,-0.047109,0.021943
26205,9.360157,2.615928,3.032831,0.002201,-0.111440,0.012331
26206,9.422613,2.596564,2.827398,-0.033752,-0.152391,0.014826
26207,9.401557,2.708320,2.616561,-0.046481,-0.169622,0.016906
26208,9.396175,2.859103,2.680624,-0.021200,-0.157521,0.020041
26209,9.508713,2.949702,3.167754,-0.015853,-0.134264,0.014766
26210,9.824805,2.936286,3.515540,-0.036406,-0.081084,0.010165
26211,9.942104,2.893063,3.659476,-0.033303,-0.026203,0.001613
26212,9.882616,2.848745,3.555931,0.004157,0.000761,-0.014364
26213,9.774542,2.944311,3.386308,0.072020,0.003009,-0.045234
26214,9.675356,3.182386,3.293820,0.113357,-0.010058,-0.060870
26215,9.529840,3.319656,3.195003,0.081094,-0.028333,-0.069153
26216,9.385393,3.374636,3.072267,0.029636,-0.055206,-0.076882
26217,9.224895,3.368931,3.002383,-0.036130,-0.073530,-0.079883
26218,9.089114,3.355706,2.957093,-0.096885,-0.075067,-0.096095
26219,9.113726,3.273840,2.954361,-0.155358,-0.076809,-0.112329
26220,9.190081,3.221525,2.956110,-0.182781,-0.075576,-0.133149
26221,9.430557,3.267465,2.936218,-0.187847,-0.074377,-0.149320
26222,9.557426,3.288201,2.953151,-0.185371,-0.078946,-0.162319
26223,9.611539,3.177382,3.115868,-0.189344,-0.077924,-0.157556
26224,9.654027,3.130145,3.257971,-0.192192,-0.066968,-0.150334
26225,9.382684,3.017643,3.153346,-0.172794,-0.052945,-0.157795
26226,9.133532,2.898433,3.125451,-0.137122,-0.062626,-0.169289
26227,9.171974,2.795562,2.968277,-0.126537,-0.075406,-0.175230
26228,9.339095,2.746975,2.840487,-0.107646,-0.057077,-0.174300
26229,9.397221,2.925807,2.737896,-0.048882,-0.026408,-0.174803
26230,9.416832,2.979938,2.903216,0.027005,-0.005927,-0.161417
26231,9.670575,2.904812,3.271846,0.008973,-0.015793,-0.137407
26232,9.745572,2.787559,3.567273,0.056972,0.050611,-0.121656
26233,9.480450,2.945437,3.607833,0.087753,0.086949,-0.134492
26234,9.255017,2.940105,3.273547,0.132675,0.093916,-0.159269
26235,9.150072,3.198810,3.159215,0.180504,0.084306,-0.181793
26236,9.293209,3.388011,3.063926,0.156525,0.068315,-0.188563
26237,9.519185,3.438958,2.946837,0.095816,0.051784,-0.186326
26238,9.779141,3.284681,2.924973,0.043285,0.035725,-0.163847
26239,10.087619,3.067624,2.915217,0.020686,0.026142,-0.139740
26240,10.230525,2.867902,2.963624,0.034569,0.041670,-0.102099
26241,10.174462,2.728854,3.168415,0.069126,0.058546,-0.075083
26242,10.027288,2.490674,3.190341,0.108883,0.048802,-0.051884
26243,9.895388,2.263784,3.068492,0.176637,0.024206,-0.022264
26244,9.828261,1.994343,2.890875,0.243552,-0.008318,0.017291
26245,9.760985,1.886071,2.647876,0.282712,-0.037921,0.061197
26246,9.808452,1.941995,2.499829,0.309792,-0.035674,0.100029
26247,9.802519,2.141494,2.547472,0.309371,-0.028819,0.138108
26248,9.860417,2.426385,2.599323,0.278073,-0.017478,0.179062
26249,9.828840,2.573040,2.590595,0.227125,-0.019652,0.215875
26250,9.812856,2.568718,2.636439,0.157500,-0.036712,0.254638
26251,9.826547,2.471829,2.682865,0.078154,-0.069529,0.295161
26252,9.910293,2.294645,2.687956,0.022151,-0.091145,0.335573
26253,10.026094,2.156282,2.694488,0.010659,-0.090391,0.375741
26254,10.009564,1.999776,2.737933,0.012434,-0.095386,0.415441
26255,9.995010,1.880316,2.736535,0.037482,-0.112731,0.464947
26256,10.039611,1.877527,2.725564,0.072738,-0.117907,0.497250
26257,10.072629,1.977014,2.703229,0.095681,-0.097540,0.529145
26258,9.995995,2.171248,2.698975,0.109449,-0.078949,0.551506
26259,9.968570,2.302393,2.654028,0.091965,-0.075768,0.567535
26260,10.047699,2.365589,2.580792,0.072438,-0.087931,0.579076
26261,10.089708,2.342311,2.602829,0.049017,-0.116208,0.600491
26262,10.196107,2.155391,2.559696,0.014259,-0.158052,0.630545
26263,10.252258,1.976703,2.466666,0.013721,-0.200795,0.669453
26264,10.307899,1.802810,2.555267,0.032086,-0.231230,0.713900
26265,10.389989,1.699240,2.740094,0.032986,-0.244270,0.753272
26266,10.286337,1.737831,2.679617,-0.019283,-0.195361,0.784324
26267,9.988825,1.810633,2.640605,-0.084591,-0.161658,0.808246
26268,9.777330,1.869911,2.586510,-0.148357,-0.158280,0.813360
26269,9.789355,1.923767,2.550485,-0.193139,-0.180056,0.820767
26270,9.878812,1.836809,2.405294,-0.237539,-0.225961,0.831572
26271,10.050102,1.656265,2.290297,-0.279789,-0.273119,0.847466
26272,10.167479,1.415495,2.179150,-0.296162,-0.320295,0.861474
26273,10.248786,1.278964,2.061693,-0.285388,-0.364206,0.872549
26274,10.262877,1.249075,2.004510,-0.258675,-0.399926,0.879156
26275,10.268962,1.350651,1.956711,-0.220687,-0.413238,0.871134
26276,10.196751,1.442622,1.885559,-0.187987,-0.423844,0.859227
26277,10.048525,1.461574,1.813570,-0.156494,-0.422400,0.845703
26278,9.853104,1.441049,1.612057,-0.183717,-0.413646,0.838832
26279,9.739440,1.430997,1.652156,-0.197358,-0.426074,0.818567
26280,9.782365,1.370126,1.678844,-0.216370,-0.432305,0.792633
26281,9.923416,1.204109,1.646167,-0.165128,-0.430193,0.780858
26282,9.931120,1.020512,1.558490,-0.057235,-0.435652,0.774746
26283,9.845366,0.859149,1.416036,0.076155,-0.460180,0.767113
26284,9.868705,0.692619,1.474920,0.202994,-0.490516,0.755247
26285,10.016150,0.536032,1.615301,0.300008,-0.488062,0.745427
26286,10.180703,0.471421,1.527939,0.363474,-0.451407,0.731716
26287,10.266301,0.432612,1.524112,0.410629,-0.393195,0.730672
26288,10.307818,0.482538,1.571895,0.461528,-0.337403,0.727012
26289,10.327204,0.611032,1.581926,0.503377,-0.282466,0.729517
26290,10.192246,0.832199,1.636098,0.508593,-0.239592,0.728831
26291,9.898286,0.894917,1.732622,0.494282,-0.246112,0.729545
26292,9.740598,0.908461,1.951457,0.471903,-0.289994,0.713651
26293,9.656625,0.894767,2.032424,0.454312,-0.316176,0.690086
26294,9.584736,0.865500,2.057499,0.434454,-0.318700,0.649407
26295,9.540257,0.925245,2.014105,0.411939,-0.314037,0.593245
26296,9.457216,1.086503,1.874362,0.397236,-0.275133,0.526453
26297,9.234325,1.210243,1.792070,0.394859,-0.246762,0.477770
26298,8.988359,1.321909,1.758052,0.358539,-0.234015,0.431854
26299,8.876114,1.353283,1.773797,0.311176,-0.211243,0.388369
26300,8.732381,1.307738,1.721349,0.260005,-0.184366,0.356679
26301,8.678378,1.205566,1.875185,0.228859,-0.169663,0.332692
26302,8.761302,1.022767,2.132217,0.229981,-0.167615,0.290722
26303,8.757302,0.814599,2.388056,0.236869,-0.155234,0.243555
26304,8.786249,0.608307,2.455914,0.245212,-0.159197,0.195607
26305,8.841548,0.516222,2.385899,0.254465,-0.140153,0.149732
26306,8.851360,0.634443,2.356299,0.276389,-0.096440,0.102277
26307,8.830875,0.917596,2.028770,0.300506,-0.020483,0.057732
26308,8.692569,1.211776,1.879807,0.344706,0.036337,0.010424
26309,8.532864,1.466391,1.758978,0.386587,0.080403,-0.034049
26310,8.445340,1.597914,1.935319,0.406237,0.072860,-0.080191
26311,8.426313,1.632511,2.110354,0.360212,0.052791,-0.097298
26312,8.476498,1.447866,2.272342,0.309095,0.041693,-0.078277
26313,8.629610,1.098343,2.646859,0.315872,0.023703,-0.055821
26314,8.873498,0.778285,2.760702,0.304192,0.039193,-0.053387
26315,9.088562,0.612282,2.572413,0.332310,0.078786,-0.074364
26316,9.172363,0.922286,2.361171,0.410548,0.149464,-0.100616
26317,9.072686,1.199280,2.204000,0.483430,0.201572,-0.123975
26318,8.888646,1.395168,2.181743,0.520137,0.211537,-0.148028
26319,8.829285,1.388226,2.320609,0.452841,0.178257,-0.160593
26320,8.881196,1.339086,2.476470,0.342714,0.169849,-0.134563
26321,9.018844,1.130377,2.479711,0.339387,0.194961,-0.108420
26322,9.102594,0.950361,2.619307,0.358924,0.203889,-0.104471
26323,9.360914,1.005241,2.601964,0.321872,0.232419,-0.124727
26324,9.595832,0.998572,2.774907,0.286041,0.283958,-0.141088
26325,9.544587,0.984795,2.720620,0.234963,0.332731,-0.156004
26326,9.386432,0.945556,2.557464,0.202701,0.337012,-0.159231
26327,9.446354,0.902259,2.667536,0.189301,0.322108,-0.165126
26328,9.644260,0.919019,3.006938,0.146243,0.359036,-0.178933
26329,9.820963,0.823911,3.236774,0.074628,0.432594,-0.199804
26330,10.072182,0.809066,3.375982,0.064650,0.541391,-0.235023
26331,10.110321,0.966204,3.669771,0.142427,0.656030,-0.266108
26332,9.969282,1.199076,4.079696,0.180609,0.738654,-0.311207
26333,9.941963,1.315688,4.232070,0.160237,0.801836,-0.361324
26334,10.060201,1.401733,4.195661,0.120468,0.883541,-0.402285
26335,10.096657,1.533940,4.242659,0.068430,0.977355,-0.444196
26336,10.168609,1.571926,4.270044,-0.030106,1.060517,-0.498571
26337,10.121992,1.623675,4.349697,-0.121164,1.140778,-0.544768
26338,10.178952,1.694431,4.416566,-0.160783,1.211303,-0.586375
26339,10.137934,1.777115,4.411707,-0.158379,1.298126,-0.622346
26340,10.055925,1.795115,4.543231,-0.134997,1.379281,-0.665585
26341,10.013727,1.897000,4.575148,-0.167487,1.452922,-0.733724
26342,9.855496,1.845885,4.581206,-0.181606,1.533777,-0.799915
26343,9.668888,1.850813,4.492080,-0.186506,1.583105,-0.847845
26344,9.622679,1.876160,4.550970,-0.172450,1.634324,-0.893434
26345,9.722106,1.928668,4.732510,-0.121519,1.688674,-0.929564
26346,9.906742,1.933004,4.902665,-0.033902,1.796541,-0.958620
26347,9.845887,1.905805,5.074284,0.024478,1.891889,-0.998115
26348,9.702109,1.971176,5.093728,0.038298,1.967583,-1.049591
26349,9.509373,2.005292,5.030607,0.052705,2.025851,-1.089224
26350,9.326080,2.245013,4.956114,0.063835,2.052830,-1.133835
26351,9.316237,2.434783,4.964900,0.078251,2.076486,-1.167017
26352,9.322784,2.415382,5.098676,0.099374,2.126803,-1.178371
26353,9.048447,2.368856,5.290688,0.161421,2.149684,-1.158002
26354,8.925498,2.290352,5.563557,0.176432,2.128146,-1.145695
26355,9.012904,2.274556,5.753517,0.210786,2.125410,-1.147856
26356,8.855321,2.234756,5.927721,0.247032,2.121947,-1.149338
26357,8.549475,2.257365,5.791973,0.249100,2.115285,-1.161181
26358,8.258551,2.320160,5.787506,0.293025,2.113060,-1.163641
26359,8.163258,2.424870,5.774140,0.313084,2.103316,-1.174864
26360,8.127538,2.570571,5.855636,0.340833,2.088286,-1.157325
26361,7.764757,2.610908,6.121911,0.331760,2.087039,-1.117297
26362,7.392218,2.496667,6.225255,0.327645,2.090595,-1.070474
26363,6.942041,2.329401,6.208898,0.350183,2.057564,-1.046044
26364,7.006995,2.410257,6.011684,0.350033,1.998514,-1.048536
26365,6.949647,2.435486,6.086451,0.367330,1.969746,-1.029113
26366,6.737353,2.547497,6.124378,0.349702,1.915519,-0.999257
26367,6.654085,2.564994,6.181549,0.355956,1.862946,-0.967379
26368,6.484781,2.574431,6.292948,0.374497,1.848418,-0.924747
26369,6.337987,2.652825,6.312577,0.383311,1.805582,-0.876698
26370,5.891619,2.687514,6.367816,0.406586,1.761578,-0.819006
26371,5.616831,2.662148,6.475016,0.423458,1.680012,-0.780684
26372,5.558630,2.751270,6.368854,0.388296,1.601176,-0.761120
26373,5.404211,2.807164,6.343891,0.375439,1.542115,-0.730408
26374,5.314043,2.871263,6.305605,0.369194,1.485131,-0.699865
26375,5.211252,2.984328,6.286725,0.371496,1.427774,-0.670764
26376,5.043757,3.128513,6.360520,0.355692,1.369227,-0.640644
26377,4.824874,3.248010,6.345569,0.296714,1.289850,-0.608174
26378,4.704125,3.313868,6.434049,0.239429,1.192214,-0.562675
26379,4.591439,3.305325,6.462193,0.179380,1.102972,-0.511906
26380,4.261054,3.226972,6.412253,0.141235,1.025257,-0.466873
26381,3.993907,3.095166,6.383262,0.113222,0.937033,-0.430919
26382,4.043497,3.016156,6.421255,0.081849,0.826488,-0.388985
26383,4.248181,3.003021,6.454130,0.104474,0.746270,-0.343742
26384,4.197515,3.049989,6.568412,0.148808,0.703736,-0.280688
26385,4.034311,3.067333,6.680874,0.202076,0.656828,-0.229577
26386,3.808958,3.174002,6.724242,0.252474,0.607329,-0.186533
26387,3.724023,3.232181,6.722694,0.275427,0.557423,-0.165224
26388,3.747638,3.362524,6.719227,0.287368,0.503064,-0.145241
26389,3.636241,3.513045,6.697619,0.274910,0.426521,-0.118595
26390,3.655637,3.618508,6.791026,0.272239,0.352453,-0.083500
26391,3.663267,3.673950,6.863137,0.245082,0.270279,-0.041264
26392,3.590474,3.702515,6.915753,0.196919,0.205531,-0.005064
26393,3.517101,3.640701,6.844212,0.157402,0.144855,0.031572
26394,3.506659,3.587693,6.910248,0.134852,0.073891,0.062903
26395,3.533137,3.569225,7.010144,0.113983,-0.005481,0.088650
26396,3.596969,3.589805,6.971147,0.104029,-0.063377,0.109834
26397,3.524554,3.628204,7.016580,0.113069,-0.097521,0.126982
26398,3.284885,3.650805,7.007999,0.104035,-0.147841,0.131530
26399,3.278837,3.705445,6.947790,0.072130,-0.228905,0.137246
26400,3.497130,3.670902,6.832647,0.040911,-0.287616,0.155168
26401,3.785679,3.735334,6.871782,0.041671,-0.348767,0.192876
26402,3.983314,3.814108,6.994177,0.047867,-0.398460,0.233801
26403,4.116352,3.887083,7.096435,0.048916,-0.451137,0.281909
26404,4.163192,3.876557,7.213004,0.071568,-0.474739,0.318543
26405,4.035098,3.794173,7.209456,0.079743,-0.507633,0.345881
26406,3.955603,3.768710,7.101998,0.062554,-0.563361,0.363007
26407,4.021630,3.747508,6.989688,0.042002,-0.615414,0.385977
26408,4.077031,3.735475,6.858949,0.026283,-0.666899,0.403638
26409,4.055522,3.629963,6.763051,0.028428,-0.709525,0.422181
26410,3.936422,3.545776,6.619840,0.020077,-0.767073,0.434363
26411,3.875291,3.475212,6.439207,-0.004427,-0.837057,0.437860
26412,3.873406,3.386095,6.306132,-0.032742,-0.895486,0.443491
26413,4.011704,3.306785,6.282748,-0.074117,-0.964959,0.446644
26414,4.216835,3.366212,6.269976,-0.104644,-1.033222,0.468968
26415,4.513182,3.419276,6.399756,-0.110176,-1.071041,0.495629
26416,4.746673,3.498697,6.495850,-0.097653,-1.117182,0.525435
26417,4.825532,3.640365,6.363325,-0.088543,-1.151787,0.557239
26418,4.642791,3.559400,6.223196,-0.078347,-1.204313,0.591612
26419,4.509173,3.481747,5.922364,-0.130414,-1.274554,0.609081
26420,4.591260,3.316193,5.814802,-0.169858,-1.318840,0.623153
26421,4.775326,3.120823,5.738319,-0.164311,-1.361494,0.640731
26422,5.171110,2.998923,5.704784,-0.098539,-1.412768,0.634676
26423,5.348432,2.979017,5.775050,-0.009927,-1.459443,0.635686
26424,5.372411,3.133145,5.701527,0.036347,-1.496626,0.644305
26425,5.352229,3.298335,5.601430,0.049907,-1.551398,0.649712
26426,5.453515,3.370056,5.627423,0.042071,-1.614532,0.668545
26427,6.020539,3.390556,5.506575,0.029772,-1.672694,0.699370
26428,6.798043,3.320486,5.625796,0.058350,-1.714569,0.740430
26429,7.563225,3.399342,5.820725,0.092738,-1.741355,0.784858
26430,7.947268,3.580117,6.048378,0.108399,-1.752253,0.845824
26431,8.145211,3.738833,6.221724,0.114959,-1.767229,0.894937
26432,8.241860,3.827731,6.372033,0.096191,-1.794906,0.939427
26433,8.406948,3.881026,6.405704,0.048041,-1.801562,0.971144
26434,8.842854,3.849810,6.326923,0.022436,-1.801389,1.010045
26435,9.283528,3.771151,6.345349,0.069677,-1.754152,1.066005
26436,9.371621,3.727897,6.568795,0.121540,-1.725474,1.118268
26437,9.447436,3.777203,6.848261,0.092181,-1.720664,1.127219
26438,9.516968,3.950238,6.940218,-0.011860,-1.674808,1.118769
26439,9.544494,4.105493,6.677627,-0.098435,-1.596541,1.076591
26440,9.546152,4.399118,6.489052,-0.164674,-1.486973,1.016313
26441,9.373692,4.451530,6.459597,-0.172377,-1.405554,0.959646
26442,9.263103,4.477164,6.522048,-0.159583,-1.347815,0.884151
26443,9.125818,4.406033,6.716054,-0.141185,-1.271454,0.803094
26444,8.801868,4.171145,6.948115,-0.140290,-1.191090,0.710574
26445,8.614794,4.050548,7.042571,-0.194599,-1.127049,0.583204
26446,8.605792,3.847005,6.739140,-0.250204,-1.006252,0.441420
26447,8.387245,3.752714,6.294310,-0.301427,-0.874020,0.323136
26448,8.231028,3.884668,5.761444,-0.327856,-0.768706,0.221527
26449,8.096302,3.954265,5.702741,-0.249631,-0.652815,0.169680
26450,7.949818,3.846515,5.813478,-0.202947,-0.603289,0.131545
26451,7.968195,3.960309,5.558363,-0.277721,-0.614522,0.081748
26452,8.063617,3.866922,5.470417,-0.344326,-0.601873,0.033319
26453,8.140335,3.725736,5.470786,-0.361793,-0.564884,-0.020176
26454,8.227319,3.580738,5.251015,-0.413864,-0.518347,-0.083127
26455,8.310274,3.426614,4.903415,-0.456175,-0.438244,-0.165916
26456,8.255880,3.405220,4.567663,-0.486890,-0.368280,-0.235187
26457,8.088618,3.491325,4.309100,-0.528151,-0.373312,-0.301752
26458,8.035510,3.601012,4.164728,-0.554783,-0.403894,-0.347986
26459,8.071555,3.390783,4.260658,-0.530685,-0.404731,-0.361318
26460,7.975165,3.048527,4.470211,-0.514587,-0.406982,-0.374637
26461,7.921431,2.692580,4.428520,-0.546949,-0.389706,-0.391326
26462,7.872111,2.368171,4.259071,-0.587725,-0.351956,-0.399083
26463,7.884808,2.254802,4.085326,-0.652299,-0.319938,-0.420221
26464,7.936525,2.359254,3.883037,-0.737661,-0.303712,-0.451733
26465,8.163946,2.554739,3.697249,-0.774880,-0.283087,-0.497112
26466,8.342010,2.765567,3.573977,-0.748428,-0.239279,-0.540712
26467,8.399639,2.946740,3.379748,-0.682111,-0.248577,-0.574782
26468,8.406080,2.985097,3.233351,-0.622117,-0.286530,-0.591238
26469,8.390656,2.949703,3.419441,-0.593347,-0.321030,-0.588992
26470,8.392945,2.766864,3.828028,-0.585758,-0.325278,-0.587441
26471,8.415168,2.374243,4.108227,-0.576749,-0.286738,-0.578420
26472,8.264122,1.933148,4.137598,-0.583875,-0.240082,-0.554905
26473,8.109693,1.818271,3.702208,-0.605500,-0.209143,-0.538459
26474,8.181704,1.982872,3.303170,-0.590623,-0.190826,-0.524726
26475,8.231878,2.343784,3.150550,-0.555778,-0.163445,-0.524875
26476,8.332685,2.836281,3.261211,-0.555780,-0.168757,-0.556687
26477,8.519662,3.143382,3.253492,-0.590690,-0.179434,-0.603721
26478,8.545315,3.174389,3.383786,-0.604145,-0.208515,-0.632326
26479,8.616991,3.001245,3.399439,-0.610624,-0.266831,-0.636901
26480,8.664675,2.776312,3.326843,-0.603510,-0.307794,-0.624248
26481,8.617828,2.553352,3.288820,-0.596111,-0.319186,-0.600494
26482,8.539796,2.366641,3.263748,-0.588041,-0.338673,-0.574035
26483,8.495911,2.261700,3.252969,-0.586702,-0.324337,-0.554663
26484,8.393058,2.239946,3.247798,-0.563473,-0.270187,-0.540229
26485,8.247940,2.301671,3.353281,-0.531119,-0.215775,-0.526036
26486,8.222409,2.356643,3.446190,-0.480766,-0.175829,-0.511624
26487,8.372252,2.417410,3.355891,-0.417864,-0.142094,-0.509055
26488,8.674040,2.572150,3.290233,-0.340883,-0.120976,-0.504379
26489,9.081617,2.746635,3.152449,-0.317593,-0.093225,-0.514081
26490,9.386184,2.790723,3.052428,-0.325201,-0.072048,-0.509299
26491,9.395969,2.677036,2.972946,-0.347013,-0.073788,-0.490702
26492,9.170165,2.568673,2.948805,-0.378393,-0.120837,-0.447362
26493,8.951565,2.412903,2.906661,-0.417391,-0.192883,-0.392452
26494,8.810888,2.275346,2.892290,-0.412058,-0.231027,-0.339023
26495,8.827182,2.187219,2.886373,-0.377135,-0.240258,-0.300832
26496,9.018540,2.127483,2.791806,-0.312856,-0.220630,-0.277862
26497,9.281761,2.215890,2.640178,-0.243161,-0.170509,-0.277847
26498,9.569835,2.357087,2.574408,-0.159912,-0.134714,-0.284893
26499,9.823464,2.507530,2.615975,-0.101164,-0.118475,-0.292513
26500,9.917690,2.563473,2.763157,-0.090083,-0.127584,-0.291024
26501,9.876725,2.494410,2.838962,-0.071671,-0.145370,-0.258472
26502,9.633854,2.427744,2.967232,-0.048086,-0.172618,-0.225584
26503,9.378218,2.421428,3.075766,-0.046168,-0.185636,-0.182072
26504,9.232585,2.487891,3.169562,-0.027519,-0.178813,-0.163135
26505,9.277797,2.530071,3.216772,0.003575,-0.148268,-0.156779
26506,9.486990,2.559102,3.270366,0.049146,-0.117774,-0.161170
26507,9.780491,2.579515,3.211465,0.099211,-0.091414,-0.163855
26508,9.942181,2.575189,3.104084,0.144428,-0.081866,-0.161142
26509,9.935643,2.590728,3.145322,0.190604,-0.090697,-0.135766
26510,9.772695,2.724636,3.222889,0.230531,-0.094186,-0.105426
26511,9.458709,2.841872,3.250500,0.235648,-0.094922,-0.082502
26512,9.101196,2.927944,3.216226,0.210083,-0.113307,-0.071420
26513,8.988676,2.891628,3.130343,0.145348,-0.134607,-0.080291
26514,9.180890,2.881571,3.065315,0.087731,-0.130100,-0.103252
26515,9.605006,2.930772,3.127503,0.060070,-0.094674,-0.114594
26516,10.071542,2.966777,3.295158,0.061568,-0.046465,-0.115549
26517,10.257185,3.057908,3.389616,0.081297,-0.011117,-0.106728
26518,10.154569,3.143673,3.404159,0.100561,-0.001137,-0.095468
26519,9.941620,3.142390,3.412751,0.109515,-0.019646,-0.076282
26520,9.673986,3.177504,3.284449,0.107113,-0.053067,-0.063071
26521,9.555269,3.176659,3.219562,0.102533,-0.076847,-0.062999
26522,9.396079,3.066466,3.197517,0.104778,-0.085118,-0.061480
26523,9.356118,3.010078,3.189686,0.113833,-0.077885,-0.058537
26524,9.264061,3.063698,3.284459,0.130244,-0.053171,-0.054587
26525,9.150639,3.173860,3.338664,0.151094,-0.028884,-0.050713
26526,9.107228,3.301068,3.323802,0.174920,-0.016791,-0.058314
26527,9.160555,3.414837,3.481091,0.183890,-0.009367,-0.059975
26528,9.165564,3.490189,3.555386,0.163872,-0.008392,-0.052631
26529,9.061518,3.515552,3.507844,0.134936,-0.022872,-0.042026
26530,8.922433,3.519090,3.367815,0.108033,-0.042153,-0.031694
26531,8.790669,3.542371,3.350061,0.085826,-0.048116,-0.029819
26532,8.734533,3.497355,3.292109,0.049024,-0.048611,-0.033132
26533,8.678800,3.446280,3.158800,0.022206,-0.037895,-0.038960
26534,8.665667,3.474539,3.123034,0.017659,-0.016536,-0.051008
26535,8.790408,3.551037,3.179972,0.018406,0.002720,-0.057098
26536,8.866008,3.589207,3.155536,0.017927,0.018110,-0.066959
26537,9.056163,3.436363,3.076333,0.018055,0.011133,-0.072437
26538,9.254731,3.103863,2.954099,0.015038,-0.017125,-0.057635
26539,9.470198,2.801965,2.920754,0.010736,-0.031937,-0.023741
26540,9.547610,2.761050,3.131785,0.050044,0.014541,0.007000
26541,9.393217,3.103847,3.456590,0.126286,0.084901,0.014761
26542,9.092151,3.527192,3.621748,0.149290,0.119714,-0.006493
26543,8.808239,3.878333,3.653347,0.143214,0.132967,-0.031739
26544,8.792981,4.003766,3.564980,0.100247,0.104893,-0.056869
26545,8.835921,3.977323,3.364483,0.043808,0.080218,-0.067483
26546,8.856632,3.905708,3.104789,-0.001327,0.050901,-0.076378
26547,8.859841,3.860398,2.942552,-0.025981,0.028819,-0.080436
26548,8.850785,3.906815,2.958431,-0.046031,0.019030,-0.085929
26549,8.847525,3.827635,3.045814,-0.075860,0.007088,-0.093016
26550,8.844109,3.643009,3.040175,-0.106537,-0.007761,-0.101782
26551,8.907958,3.386513,3.101933,-0.112204,-0.019204,-0.108465
26552,9.097605,3.098618,3.127618,-0.079060,-0.022938,-0.110876
26553,9.147642,2.959360,3.147160,-0.005707,0.002125,-0.106370
26554,9.150853,2.924407,3.057578,0.070529,0.017367,-0.103426
26555,9.099768,3.001638,3.066856,0.133196,0.032806,-0.097848
26556,9.082719,3.143642,3.125954,0.181396,0.053674,-0.092926
26557,9.083650,3.322809,3.221997,0.214531,0.086120,-0.089882
26558,9.009670,3.414550,3.230377,0.237657,0.085186,-0.069644
26559,9.121664,3.285086,3.211633,0.215707,0.053319,-0.046661
26560,9.290661,3.140960,3.109547,0.209934,0.054505,-0.017025
26561,9.446745,3.022782,3.052127,0.218578,0.057465,0.023336
26562,9.498938,2.962711,2.987609,0.227019,0.056029,0.058910
26563,9.526330,2.887267,2.798381,0.229465,0.029263,0.091836
26564,9.667351,2.762896,2.659901,0.218191,-0.002086,0.131760
26565,9.784306,2.602439,2.614657,0.210437,-0.033104,0.172741
26566,9.897645,2.394044,2.664937,0.208900,-0.050225,0.215339
26567,10.074137,2.185631,2.676057,0.222799,-0.069289,0.255797
26568,10.128762,1.949692,2.608546,0.244290,-0.077482,0.291592
26569,10.151605,1.694718,2.470996,0.276927,-0.100951,0.352244
26570,10.348139,1.390878,2.345722,0.341571,-0.142420,0.429975
26571,10.615888,1.206115,2.312193,0.406275,-0.182294,0.531769
26572,10.742749,1.066857,2.328543,0.473902,-0.210252,0.646252
26573,10.747469,1.126002,2.276829,0.554749,-0.232664,0.748172
26574,10.579479,1.353907,2.205794,0.608905,-0.248107,0.834746
26575,10.272549,1.589396,2.206186,0.612905,-0.268738,0.905868
26576,10.070645,1.654989,2.147476,0.562340,-0.307711,0.962430
26577,10.113916,1.654882,2.225645,0.472872,-0.348922,1.024687
26578,10.263221,1.563206,2.179777,0.374874,-0.370809,1.102977
26579,10.397720,1.401013,2.188216,0.299181,-0.390248,1.194595
26580,10.472762,1.268173,2.189269,0.253123,-0.423686,1.290514
26581,10.601528,1.288290,2.292533,0.209985,-0.461383,1.371873
26582,10.739076,1.501364,2.383976,0.169052,-0.463211,1.430920
26583,10.604198,1.832770,2.578669,0.069865,-0.416610,1.461251
26584,10.379648,2.132007,2.547723,-0.079594,-0.394133,1.463140
26585,10.160677,2.151108,2.371997,-0.235665,-0.404269,1.441188
26586,10.094942,2.087465,2.164044,-0.361048,-0.441703,1.419002
26587,10.154281,1.841658,2.019953,-0.452414,-0.491423,1.414979
26588,10.251557,1.569472,1.893635,-0.512231,-0.545473,1.430728
26589,10.238329,1.286562,1.714486,-0.530547,-0.603070,1.462707
26590,10.234789,1.124738,1.557546,-0.499216,-0.658516,1.504829
26591,10.174936,1.048178,1.436224,-0.442158,-0.706574,1.517668
26592,10.205222,0.995441,1.518012,-0.380629,-0.732204,1.529140
26593,10.165101,0.940089,1.598689,-0.330612,-0.739040,1.526001
26594,10.174649,0.864737,1.614871,-0.305031,-0.705559,1.515274
26595,10.008127,0.769727,1.465247,-0.276254,-0.665635,1.496178
26596,9.905456,0.707872,1.339929,-0.207756,-0.645568,1.465630
26597,9.838089,0.754825,1.029209,-0.113358,-0.644376,1.418453
26598,9.789406,0.824075,0.760990,-0.009833,-0.661777,1.367551
26599,9.763909,0.849126,0.663479,0.095795,-0.702543,1.306448
26600,9.820561,0.783999,0.665680,0.182768,-0.743255,1.254686
26601,9.864250,0.644953,0.807084,0.267140,-0.758173,1.209846
26602,9.909731,0.451654,0.937467,0.370730,-0.731706,1.179473
26603,9.761299,0.273890,1.110004,0.473978,-0.681751,1.156133
26604,9.619387,0.175127,1.179128,0.566793,-0.635544,1.131084
26605,9.447113,0.097392,1.180653,0.649786,-0.593809,1.103297
26606,9.341708,0.165341,1.079230,0.728691,-0.559627,1.057457
26607,9.302988,0.336706,1.057664,0.789916,-0.540336,0.997926
26608,9.381745,0.499807,1.032616,0.819299,-0.531228,0.933615
26609,9.463860,0.667990,1.004551,0.831549,-0.514104,0.864327
26610,9.463837,0.760130,1.021855,0.825928,-0.496093,0.801249
26611,9.392396,0.785478,1.107830,0.820503,-0.479954,0.745848
26612,9.275503,0.679737,1.121957,0.811917,-0.468613,0.695888
26613,9.183033,0.398066,1.127214,0.811110,-0.446867,0.662940
26614,9.119736,0.223944,1.082784,0.828735,-0.412247,0.632449
26615,8.968185,0.006753,1.116918,0.848141,-0.383501,0.580757
26616,8.873669,-0.087121,1.137145,0.860592,-0.370533,0.527298
26617,8.825554,-0.151237,1.027857,0.864779,-0.364629,0.480137
26618,8.824120,-0.102019,0.999738,0.879653,-0.372749,0.435478
26619,8.945980,0.044917,1.004507,0.877885,-0.382286,0.385092
26620,9.097487,0.159002,1.094398,0.854315,-0.378979,0.320735
26621,9.240531,0.190739,1.162647,0.805732,-0.350609,0.257013
26622,9.212889,0.191748,1.179215,0.756645,-0.316412,0.201284
26623,9.244356,0.177844,1.291897,0.731146,-0.282067,0.163154
26624,9.346957,0.119676,1.345412,0.699461,-0.255185,0.117807
26625,9.370151,0.047420,1.308099,0.678549,-0.217392,0.058928
26626,9.330854,-0.021058,1.320787,0.655939,-0.192527,-0.001781
26627,9.355617,-0.052754,1.307124,0.625662,-0.172126,-0.066361
26628,9.283051,-0.076475,1.269424,0.601371,-0.151089,-0.123138
26629,9.193544,-0.103495,1.249655,0.563144,-0.145430,-0.173990
26630,9.190028,-0.107345,1.255152,0.511078,-0.140015,-0.225019
26631,9.210963,-0.040738,1.243528,0.458435,-0.119457,-0.271466
26632,9.235184,-0.051384,1.237961,0.405737,-0.095776,-0.313976
26633,9.239708,-0.064312,1.285272,0.359922,-0.074745,-0.347342
26634,9.245123,-0.107396,1.284502,0.323388,-0.056839,-0.371746
26635,9.278078,-0.129917,1.321536,0.306654,-0.041189,-0.392160
26636,9.381274,-0.169241,1.350469,0.280799,-0.016452,-0.403889
26637,9.327284,-0.242105,1.352525,0.240558,-0.011174,-0.406242
26638,9.344366,-0.334738,1.344393,0.160483,-0.024577,-0.392278
26639,9.369786,-0.467711,1.216580,0.079209,-0.042312,-0.377818
26640,9.448789,-0.530424,1.207893,0.013185,-0.062055,-0.362640
26641,9.514352,-0.528410,1.104185,-0.052464,-0.084800,-0.358513
26642,9.557258,-0.517920,0.943991,-0.101598,-0.092739,-0.358193
26643,9.495493,-0.429950,0.750630,-0.145471,-0.118745,-0.359195
26644,9.538652,-0.482919,0.520164,-0.191676,-0.155161,-0.362041
26645,9.518084,-0.535418,0.366926,-0.235514,-0.198637,-0.359502
26646,9.570051,-0.710719,0.257445,-0.269625,-0.228081,-0.357783
26647,9.653492,-0.817223,0.350463,-0.280970,-0.254717,-0.351814
26648,9.812645,-1.005292,0.328717,-0.280881,-0.270291,-0.333740
26649,9.839290,-1.180768,0.399810,-0.222240,-0.240694,-0.322570
26650,9.844610,-1.411212,0.353249,-0.122965,-0.217478,-0.309654
26651,9.855501,-1.522112,0.338801,0.024294,-0.205409,-0.283643
26652,10.009784,-1.313583,0.338831,0.176079,-0.195914,-0.238766
26653,9.977223,-1.043403,0.412754,0.276798,-0.167832,-0.231172
26654,9.864496,-0.709577,0.446970,0.324820,-0.122650,-0.265303
26655,9.732287,-0.408568,0.518290,0.315419,-0.106395,-0.326164
26656,9.740374,-0.131310,0.563972,0.246843,-0.115097,-0.354959
26657,9.888079,-0.002858,0.520470,0.126491,-0.135608,-0.366798
26658,9.933055,0.091720,0.506098,-0.008414,-0.135474,-0.360969
26659,9.950712,0.102665,0.425757,-0.121230,-0.138151,-0.357904
26660,9.903527,-0.040366,0.419887,-0.186659,-0.139100,-0.357319
26661,9.894821,-0.302747,0.456684,-0.208024,-0.142646,-0.348792
26662,9.874487,-0.546445,0.490792,-0.203876,-0.133751,-0.332906
26663,9.908095,-0.809411,0.598759,-0.181087,-0.104575,-0.311867
26664,9.983388,-0.920461,0.790528,-0.124840,-0.061681,-0.308126
26665,10.116696,-0.932433,0.986219,-0.049096,0.007233,-0.303152
26666,10.183516,-0.847387,1.112112,0.028724,0.074781,-0.288688
26667,10.201623,-0.810632,1.071710,0.084378,0.131665,-0.276260
26668,10.136192,-0.625973,1.007101,0.115369,0.168436,-0.266694
26669,10.120917,-0.420766,0.790019,0.097312,0.172700,-0.255819
26670,10.035042,-0.238053,0.569437,0.049853,0.171119,-0.236128
26671,10.003575,-0.135684,0.389912,-0.028526,0.166577,-0.217935
26672,9.925240,-0.121785,0.297189,-0.118552,0.150324,-0.184999
26673,9.846320,-0.140253,0.220983,-0.201184,0.129515,-0.156757
26674,9.848479,-0.127850,0.198577,-0.255334,0.120592,-0.138379
26675,9.790263,-0.153948,0.241594,-0.297098,0.100099,-0.135622
26676,9.809801,-0.223989,0.185976,-0.297379,0.092152,-0.129312
26677,9.850560,-0.180789,0.212759,-0.279080,0.081044,-0.127459
26678,9.878451,-0.148716,0.221735,-0.259575,0.086105,-0.122076
26679,9.817849,-0.086594,0.275772,-0.237929,0.082714,-0.124069
26680,9.774609,-0.015839,0.278464,-0.235045,0.074434,-0.128793
26681,9.757569,0.017051,0.317770,-0.242091,0.058095,-0.136411
26682,9.749006,-0.012232,0.254740,-0.232299,0.059202,-0.136983
26683,9.777094,-0.068272,0.281741,-0.210308,0.065462,-0.135169
26684,9.775080,-0.025380,0.304903,-0.187021,0.072361,-0.135151
26685,9.790715,-0.092230,0.315083,-0.165774,0.081927,-0.131970
26686,9.761508,-0.040648,0.320326,-0.142608,0.086309,-0.132235
26687,9.743534,-0.037568,0.379576,-0.118148,0.088886,-0.134596
26688,9.738483,0.005577,0.438867,-0.101607,0.079233,-0.130756
26689,9.738625,0.047505,0.428989,-0.086317,0.080750,-0.129889
26690,9.749377,0.160168,0.436021,-0.082232,0.070560,-0.136807
26691,9.802007,0.274647,0.445576,-0.087917,0.060212,-0.139471
26692,9.840740,0.289765,0.489091,-0.111060,0.051333,-0.142475
