// Start Time: Unknown
// Update Rate: 100.0Hz
// Filter Profile: human (46.1)
// Firmware Version: 4.3.5
PacketCounter,Acc_X,Acc_Y,Acc_Z,Gyr_X,Gyr_Y,Gyr_Z
42745,9.716718,-1.385464,-1.425284,0.003743,0.013514,0.002130
42746,9.682479,-1.320638,-1.354891,-0.008337,0.019040,-0.000926
42747,9.666489,-1.361064,-1.375236,-0.023975,0.017899,0.003847
42748,9.637311,-1.358858,-1.355822,-0.016545,0.017514,-0.001541
42749,9.669962,-1.277474,-1.310737,-0.021004,0.012730,-0.001328
42750,9.713971,-1.286701,-1.269879,-0.041230,0.021784,0.002904
42751,9.689921,-1.347006,-1.301283,-0.063360,0.024355,0.002319
42752,9.703812,-1.377214,-1.307216,-0.069906,0.025737,0.002391
42753,9.665488,-1.429493,-1.396335,-0.073239,0.025537,0.001390
42754,9.641533,-1.489348,-1.427950,-0.068661,0.026530,0.002778
42755,9.593996,-1.586822,-1.427758,-0.052361,0.022199,0.001533
42756,9.661223,-1.569895,-1.451537,-0.036593,0.013952,-0.002043
42757,9.705545,-1.567588,-1.378243,-0.008753,0.016932,-0.001206
42758,9.662790,-1.534540,-1.351011,0.002549,0.020672,-0.003247
42759,9.649240,-1.514897,-1.373658,0.015397,0.025521,-0.006625
42760,9.634134,-1.531894,-1.328173,0.025691,0.020883,-0.005871
42761,9.644798,-1.451609,-1.317800,0.036464,0.015120,-0.010694
42762,9.636777,-1.482768,-1.359447,0.042058,0.013302,-0.012966
42763,9.629393,-1.490712,-1.336020,0.050149,0.013040,-0.014389
42764,9.637513,-1.481633,-1.355461,0.063054,0.011755,-0.010741
42765,9.645565,-1.472817,-1.375152,0.067520,0.005364,-0.011829
42766,9.624391,-1.450471,-1.344725,0.077393,0.004209,-0.010940
42767,9.692460,-1.399007,-1.270662,0.077160,0.000631,-0.015057
42768,9.670967,-1.388033,-1.273137,0.063472,0.002720,-0.011384
42769,9.684555,-1.430241,-1.311681,0.059720,0.005982,-0.012236
42770,9.647275,-1.448264,-1.303268,0.063998,0.006652,-0.009080
42771,9.641580,-1.408828,-1.316085,0.068879,0.002387,-0.009880
42772,9.695335,-1.349804,-1.300198,0.067101,-0.002308,-0.012642
42773,9.665757,-1.359203,-1.313894,0.048830,0.004373,-0.009934
42774,9.642064,-1.407959,-1.313466,0.043962,-0.002542,-0.009992
42775,9.673515,-1.361718,-1.366768,0.039798,-0.001412,-0.011119
42776,9.739034,-1.381040,-1.322932,0.041879,-0.001973,-0.010564
42777,9.723396,-1.409382,-1.311609,0.037408,0.004424,-0.009509
42778,9.693888,-1.418681,-1.324981,0.038531,0.009002,-0.010727
42779,9.654553,-1.496161,-1.313000,0.043106,0.010006,-0.009337
42780,9.670278,-1.478959,-1.355006,0.055378,-0.002558,-0.010484
42781,9.718045,-1.380513,-1.353796,0.066784,0.003010,-0.010550
42782,9.686712,-1.437922,-1.330841,0.060228,0.009970,-0.010067
42783,9.637854,-1.365476,-1.318641,0.070820,0.005695,-0.011095
42784,9.654349,-1.312462,-1.263303,0.068212,0.002333,-0.013984
42785,9.686082,-1.254374,-1.284014,0.051508,-0.001092,-0.013419
42786,9.743676,-1.293549,-1.250402,0.032700,0.007230,-0.012605
42787,9.690243,-1.363642,-1.295976,0.015861,0.013184,-0.013268
42788,9.674572,-1.403282,-1.316314,0.018254,0.007352,-0.014877
42789,9.680596,-1.453605,-1.332999,0.025022,0.009610,-0.010894
42790,9.732146,-1.465345,-1.345586,0.029657,0.012930,-0.014961
42791,9.659456,-1.453166,-1.365491,0.029516,0.022319,-0.016214
42792,9.616905,-1.407147,-1.305906,0.032671,0.018437,-0.011832
42793,9.633224,-1.365508,-1.282562,0.028947,0.010487,-0.013471
42794,9.662953,-1.366756,-1.299613,0.019344,-0.001568,-0.011454
42795,9.734299,-1.436454,-1.273290,0.013919,0.004357,-0.012596
42796,9.706682,-1.397949,-1.322850,0.019296,0.015225,-0.010284
42797,9.693128,-1.378374,-1.346148,0.020824,0.021929,-0.011254
42798,9.650662,-1.320331,-1.254230,0.002138,0.026440,-0.008798
42799,9.621372,-1.329306,-1.266789,-0.013406,0.016369,-0.010222
42800,9.611629,-1.420405,-1.304600,-0.027094,0.018424,-0.006505
42801,9.617776,-1.470626,-1.321195,-0.017851,0.011565,-0.009965
42802,9.655493,-1.451316,-1.327514,-0.012316,0.007449,-0.006782
42803,9.683412,-1.500310,-1.308413,-0.015425,0.010833,-0.003683
42804,9.667742,-1.540633,-1.328990,-0.009308,0.012956,-0.003649
42805,9.683601,-1.523440,-1.370823,0.007280,0.014604,-0.006266
42806,9.699909,-1.470001,-1.315358,0.015370,0.014365,-0.007709
42807,9.737808,-1.439222,-1.288186,0.009042,0.019326,-0.003549
42808,9.688713,-1.378633,-1.308281,0.005889,0.023209,-0.007947
42809,9.637858,-1.365445,-1.291930,-0.000548,0.026364,-0.005827
42810,9.622612,-1.381481,-1.246560,-0.003855,0.020535,-0.007193
42811,9.682020,-1.384953,-1.280471,-0.011089,0.013833,-0.005995
42812,9.658658,-1.433297,-1.279186,-0.018169,0.016843,-0.007833
42813,9.656914,-1.516291,-1.338351,-0.013921,0.023139,-0.004285
42814,9.665259,-1.483209,-1.293265,0.004771,0.018637,-0.006712
42815,9.659656,-1.431298,-1.273876,0.003955,0.014381,-0.007248
42816,9.667806,-1.422328,-1.293764,-0.004158,0.020218,-0.005429
42817,9.630624,-1.452086,-1.317359,0.001445,0.018409,-0.007695
42818,9.637003,-1.478343,-1.268890,0.007372,0.011321,-0.012115
42819,9.690512,-1.430162,-1.285465,0.004581,0.009426,-0.011177
42820,9.712545,-1.439573,-1.280454,0.004151,0.012898,-0.011060
42821,9.665717,-1.524850,-1.246567,0.004431,0.018821,-0.012447
42822,9.652240,-1.505062,-1.270104,0.020847,0.016367,-0.011621
42823,9.623008,-1.502041,-1.250852,0.026474,0.008959,-0.014269
42824,9.668564,-1.474557,-1.278371,0.027671,0.001841,-0.008776
42825,9.682606,-1.516972,-1.316783,0.033251,0.005635,-0.010660
42826,9.661142,-1.505879,-1.319458,0.046516,0.007069,-0.014246
42827,9.694775,-1.375726,-1.311084,0.052095,0.010867,-0.016139
42828,9.667367,-1.300930,-1.263440,0.037050,0.010310,-0.014899
42829,9.689423,-1.310354,-1.258108,0.014321,0.012109,-0.011956
42830,9.681921,-1.329675,-1.267365,-0.003771,0.017232,-0.013084
42831,9.672608,-1.372075,-1.175435,-0.019144,0.021950,-0.009692
42832,9.619876,-1.454505,-1.253207,-0.028453,0.015790,-0.009053
42833,9.653950,-1.542148,-1.219101,-0.025810,0.007974,-0.006943
42834,9.652410,-1.625224,-1.279323,-0.004523,0.006882,-0.006486
42835,9.668327,-1.595866,-1.289231,0.018715,0.009029,-0.007121
42836,9.656382,-1.492823,-1.252950,0.039495,0.004000,-0.008965
42837,9.701816,-1.441234,-1.215851,0.039697,0.002513,-0.012777
42838,9.702014,-1.440688,-1.214917,0.040737,0.004795,-0.008562
42839,9.717895,-1.411315,-1.224968,0.038048,-0.000403,-0.013464
42840,9.696375,-1.399981,-1.228222,0.035836,0.003942,-0.015699
42841,9.748102,-1.423368,-1.273204,0.031139,0.006707,-0.018760
42842,9.732836,-1.463017,-1.293394,0.030401,0.009861,-0.016883
42843,9.674067,-1.469783,-1.288820,0.031511,0.014444,-0.018140
42844,9.660602,-1.449893,-1.312695,0.036108,0.009875,-0.017121
42845,9.631429,-1.458908,-1.325851,0.041815,0.009888,-0.017356
42846,9.714384,-1.388024,-1.295173,0.040876,0.009419,-0.019549
42847,9.663492,-1.386587,-1.312144,0.039296,0.013915,-0.017831
42848,9.708877,-1.309206,-1.209783,0.036481,0.012497,-0.024396
42849,9.701610,-1.327906,-1.218358,0.016601,0.023576,-0.020005
42850,9.663082,-1.404121,-1.204916,0.005927,0.020395,-0.021425
42851,9.655860,-1.422579,-1.213677,0.002202,0.018019,-0.022663
42852,9.653047,-1.527192,-1.171043,0.001971,0.019996,-0.026370
42853,9.632244,-1.551663,-1.270096,0.026845,0.011620,-0.021602
42854,9.632551,-1.537578,-1.236586,0.044748,0.002918,-0.024530
42855,9.656295,-1.486736,-1.235763,0.064582,0.002592,-0.020703
42856,9.665951,-1.404963,-1.228678,0.065036,-0.006003,-0.028687
42857,9.719135,-1.343507,-1.213717,0.059079,0.001087,-0.024310
42858,9.750709,-1.284189,-1.234684,0.043062,0.005607,-0.024889
42859,9.691842,-1.278048,-1.198081,0.022536,0.016499,-0.024468
42860,9.654949,-1.294478,-1.189485,0.000245,0.014750,-0.021600
42861,9.640148,-1.346060,-1.241619,-0.004926,0.013072,-0.019434
42862,9.670413,-1.358444,-1.290413,-0.015593,0.009867,-0.020842
42863,9.631750,-1.422217,-1.246128,-0.027522,0.011001,-0.014795
42864,9.622901,-1.500699,-1.251851,-0.024998,0.006988,-0.014328
42865,9.643661,-1.581446,-1.275534,-0.018615,0.001571,-0.010947
42866,9.701557,-1.631313,-1.274161,0.002786,-0.002750,-0.016345
42867,9.747013,-1.603262,-1.302624,0.025403,-0.001143,-0.013464
42868,9.756592,-1.534435,-1.327972,0.046010,0.003300,-0.016644
42869,9.759429,-1.389438,-1.270718,0.056488,0.015909,-0.016580
42870,9.688085,-1.306186,-1.263259,0.041472,0.023176,-0.020467
42871,9.652697,-1.263638,-1.258233,0.025193,0.021752,-0.019616
42872,9.623268,-1.247498,-1.206414,0.002811,0.018159,-0.018780
42873,9.600477,-1.294992,-1.204796,-0.021604,0.009498,-0.018856
42874,9.627723,-1.413982,-1.213236,-0.028988,-0.000887,-0.021662
42875,9.699693,-1.481226,-1.186333,-0.023587,-0.001169,-0.020119
42876,9.669661,-1.573977,-1.261451,-0.018185,-0.001453,-0.018575
42877,9.684138,-1.603007,-1.267867,0.006764,0.005562,-0.016555
42878,9.670337,-1.570345,-1.260797,0.021835,0.001069,-0.025689
42879,9.686758,-1.564338,-1.335704,0.035026,0.000283,-0.023809
42880,9.680545,-1.511336,-1.317822,0.051931,0.001893,-0.020704
42881,9.674091,-1.445943,-1.267329,0.055716,0.006578,-0.024983
42882,9.660035,-1.400993,-1.227339,0.048465,0.005431,-0.023390
42883,9.630436,-1.384746,-1.176735,0.034181,0.001626,-0.023996
42884,9.704361,-1.417576,-1.217960,0.025749,-0.005930,-0.023142
42885,9.681540,-1.465368,-1.217492,0.019072,-0.001309,-0.017230
42886,9.637196,-1.515635,-1.253161,0.029462,-0.003530,-0.021924
42887,9.690484,-1.479018,-1.303294,0.040176,-0.005894,-0.020871
42888,9.670014,-1.408144,-1.312230,0.048740,-0.010001,-0.014887
42889,9.708315,-1.316349,-1.291945,0.041648,-0.007055,-0.016757
42890,9.731227,-1.253108,-1.260267,0.031718,-0.000420,-0.017322
42891,9.710531,-1.169540,-1.236328,0.011703,0.008744,-0.014968
42892,9.665703,-1.194815,-1.206809,-0.019450,0.010702,-0.016275
42893,9.641797,-1.302238,-1.201200,-0.044364,0.003172,-0.010714
42894,9.677237,-1.413671,-1.231234,-0.050071,0.003130,-0.010483
42895,9.662620,-1.465792,-1.284887,-0.033974,0.000964,-0.015423
42896,9.675996,-1.554476,-1.286892,-0.018310,0.001807,-0.012735
42897,9.676198,-1.553022,-1.287126,0.005726,-0.004634,-0.015644
42898,9.722936,-1.477628,-1.352648,0.021154,-0.001823,-0.016677
42899,9.737409,-1.397224,-1.234523,0.033112,0.004510,-0.020384
42900,9.672222,-1.365469,-1.245800,0.016017,0.011794,-0.017308
42901,9.672915,-1.376457,-1.276748,0.012306,0.009392,-0.018533
42902,9.642453,-1.432466,-1.253953,0.011589,-0.000485,-0.019364
42903,9.693940,-1.430382,-1.234962,0.022392,-0.001015,-0.016278
42904,9.679151,-1.470261,-1.255688,0.024541,0.000734,-0.021222
42905,9.688328,-1.401034,-1.281600,0.032958,0.000425,-0.016924
42906,9.680401,-1.395355,-1.227247,0.032111,0.001761,-0.017090
42907,9.703844,-1.357013,-1.259764,0.027622,-0.004915,-0.018806
42908,9.719096,-1.314116,-1.238583,0.018615,0.002190,-0.017183
42909,9.727510,-1.317169,-1.292052,0.001194,0.001714,-0.014675
42910,9.698415,-1.326304,-1.306209,-0.007206,0.009446,-0.016617
42911,9.690246,-1.405041,-1.311207,-0.019225,0.008707,-0.012569
42912,9.653288,-1.422515,-1.303795,-0.017835,0.005726,-0.010464
42913,9.720454,-1.404231,-1.327928,-0.013061,0.005294,-0.012897
42914,9.720381,-1.390184,-1.295269,-0.015603,0.009296,-0.013382
42915,9.698846,-1.378650,-1.298525,-0.012439,0.013354,-0.014106
42916,9.706364,-1.343718,-1.254590,-0.013830,0.016338,-0.016215
42917,9.661673,-1.369333,-1.224679,-0.023987,0.016568,-0.007791
42918,9.654932,-1.401182,-1.266183,-0.024394,0.014895,-0.015584
42919,9.653969,-1.446612,-1.228463,-0.028167,0.010205,-0.011299
42920,9.654979,-1.470453,-1.292441,-0.008350,0.002589,-0.009824
42921,9.670502,-1.440375,-1.303373,0.003284,0.001200,-0.014110
42922,9.722466,-1.366157,-1.256755,0.006059,0.003123,-0.015078
42923,9.708777,-1.346151,-1.281943,-0.003057,0.008865,-0.023036
42924,9.664141,-1.371043,-1.252615,-0.003361,0.008548,-0.021253
42925,9.709076,-1.414201,-1.307974,-0.002274,0.005248,-0.017363
42926,9.687562,-1.402391,-1.311370,-0.004128,0.011703,-0.019387
42927,9.672683,-1.429504,-1.299152,0.002508,0.012250,-0.017429
42928,9.621866,-1.428678,-1.316907,0.005440,0.010388,-0.016697
42929,9.665563,-1.434514,-1.275517,0.009139,0.005372,-0.017835
42930,9.650952,-1.389616,-1.236663,0.012453,-0.001780,-0.019220
42931,9.747400,-1.360177,-1.246244,0.008607,-0.000869,-0.014599
42932,9.733574,-1.340757,-1.271785,-0.004037,0.005628,-0.012178
42933,9.719834,-1.321126,-1.296871,-0.008059,0.010792,-0.016808
42934,9.667776,-1.367369,-1.277820,-0.017771,0.015426,-0.013655
42935,9.668124,-1.365781,-1.276884,-0.023398,0.009755,-0.013756
42936,9.668893,-1.376781,-1.308341,-0.023319,0.011575,-0.011727
42937,9.683723,-1.405837,-1.313990,-0.023094,0.010076,-0.015547
42938,9.660463,-1.428919,-1.248416,-0.020002,0.011853,-0.010749
42939,9.660478,-1.499680,-1.275301,-0.009437,0.005890,-0.013739
42940,9.667647,-1.465112,-1.232156,0.005758,0.002826,-0.013301
42941,9.697879,-1.393467,-1.221797,0.014319,-0.000787,-0.014829
42942,9.705466,-1.371458,-1.211045,0.013469,0.000546,-0.014993
42943,9.721922,-1.366108,-1.286044,0.009990,0.004059,-0.017679
42944,9.730571,-1.369041,-1.339011,0.015003,0.009098,-0.014007
42945,9.657372,-1.346026,-1.328692,0.017840,0.013316,-0.020496
42946,9.656801,-1.319185,-1.263038,0.012601,0.009778,-0.020352
42947,9.686923,-1.319185,-1.279556,0.004668,0.006129,-0.017208
42948,9.723749,-1.357979,-1.280829,-0.004135,0.011709,-0.019419
42949,9.686517,-1.362632,-1.240702,-0.009764,0.013458,-0.017158
42950,9.650347,-1.392306,-1.264788,-0.012394,0.015637,-0.019684
42951,9.715975,-1.407691,-1.218809,-0.007135,0.011282,-0.014638
42952,9.709534,-1.439373,-1.260536,-0.006830,0.011601,-0.016426
42953,9.702655,-1.386418,-1.242459,0.007899,0.012026,-0.015898
42954,9.710389,-1.364069,-1.230465,0.004418,0.015537,-0.018589
42955,9.681628,-1.301147,-1.216114,0.000020,0.018089,-0.015920
42956,9.637592,-1.339494,-1.218415,-0.006755,0.013420,-0.014400
42957,9.638483,-1.350531,-1.249657,-0.002191,0.007080,-0.015367
42958,9.690463,-1.360568,-1.262406,-0.004491,0.001677,-0.014484
42959,9.697973,-1.410562,-1.279351,-0.005177,-0.000781,-0.012944
42960,9.743230,-1.453838,-1.334955,-0.001886,0.007401,-0.017156
42961,9.728966,-1.421743,-1.327536,0.012445,0.013123,-0.014506
42962,9.708012,-1.350865,-1.334700,0.017439,0.018643,-0.018392
42963,9.693281,-1.306173,-1.294049,0.013344,0.021513,-0.017514
42964,9.678535,-1.261528,-1.253237,0.001152,0.024510,-0.015198
42965,9.663833,-1.288979,-1.240236,-0.011398,0.017938,-0.015490
42966,9.641232,-1.324388,-1.206066,-0.016492,0.018502,-0.018845
42967,9.633725,-1.331058,-1.183127,-0.011846,0.013509,-0.010210
42968,9.612229,-1.392038,-1.214085,-0.015991,0.007130,-0.013726
42969,9.664242,-1.402012,-1.226812,-0.003251,0.002486,-0.014085
42970,9.709438,-1.373242,-1.254894,0.009014,0.001314,-0.014362
42971,9.716917,-1.351264,-1.243847,0.007380,0.005796,-0.012661
42972,9.711070,-1.323647,-1.290305,0.007897,0.012048,-0.015913
42973,9.696054,-1.279198,-1.250668,0.000345,0.010518,-0.012527
42974,9.636906,-1.346767,-1.242735,-0.014454,0.008254,-0.015111
42975,9.651232,-1.363429,-1.216226,-0.012606,0.009228,-0.010711
42976,9.674317,-1.456746,-1.271100,-0.010046,0.005234,-0.010213
42977,9.667269,-1.476510,-1.281478,0.000305,0.000798,-0.009356
42978,9.667400,-1.475660,-1.281468,0.012194,-0.002507,-0.009876
42979,9.719050,-1.414111,-1.266847,0.026375,-0.000404,-0.011283
42980,9.748812,-1.342688,-1.256040,0.026583,0.005529,-0.012750
42981,9.734332,-1.311260,-1.248725,0.011141,0.010045,-0.009397
42982,9.677376,-1.285264,-1.313886,0.000312,0.017948,-0.010178
42983,9.624870,-1.320096,-1.262309,0.004480,0.016904,-0.009022
42984,9.617244,-1.327493,-1.239516,-0.005124,0.008462,-0.008572
42985,9.654084,-1.367053,-1.241218,-0.009329,-0.000217,-0.006552
42986,9.668189,-1.384395,-1.215671,-0.011243,-0.003487,-0.005420
42987,9.727958,-1.386779,-1.250460,-0.004477,0.001200,-0.006939
42988,9.698252,-1.384524,-1.232854,-0.000102,0.006087,-0.007247
42989,9.734789,-1.351929,-1.206818,-0.001025,0.005600,-0.009449
42990,9.706544,-1.374551,-1.253287,-0.004271,0.007132,-0.008406
42991,9.678380,-1.396981,-1.299440,-0.007073,0.013099,-0.012654
42992,9.642440,-1.427324,-1.323577,-0.000376,0.015969,-0.016208
42993,9.634191,-1.421677,-1.268566,0.004818,0.009802,-0.013171
42994,9.649218,-1.451144,-1.274148,0.011175,0.002626,-0.011755
42995,9.663424,-1.468279,-1.248102,0.021154,-0.003940,-0.011136
42996,9.716394,-1.431657,-1.297945,0.029253,-0.004050,-0.012567
42997,9.730935,-1.389187,-1.276317,0.035537,0.004113,-0.014015
42998,9.708470,-1.366204,-1.247480,0.043086,0.005183,-0.009836
42999,9.665754,-1.299172,-1.292129,0.026822,0.003584,-0.009012
43000,9.694791,-1.347002,-1.271780,0.026208,0.003416,-0.013008
43001,9.687400,-1.294595,-1.254228,0.021184,0.005787,-0.014338
43002,9.672563,-1.322636,-1.242473,0.004679,0.005683,-0.009682
43003,9.658475,-1.363230,-1.262928,0.000818,0.007043,-0.012633
43004,9.658466,-1.421754,-1.257457,0.002595,0.006203,-0.010262
43005,9.681411,-1.442901,-1.284858,0.010187,0.000316,-0.016005
43006,9.711439,-1.443288,-1.302165,0.016306,-0.005352,-0.010759
43007,9.718711,-1.421570,-1.291675,0.021838,-0.001467,-0.012700
43008,9.741908,-1.383283,-1.323533,0.030027,0.009973,-0.015300
43009,9.712659,-1.320973,-1.309359,0.032991,0.017849,-0.017754
43010,9.675301,-1.326446,-1.268632,0.023838,0.013352,-0.015013
43011,9.697654,-1.334798,-1.262789,0.022852,0.011040,-0.019251
43012,9.683004,-1.362321,-1.250406,0.021315,0.009909,-0.017872
43013,9.653479,-1.359332,-1.232033,0.025419,0.007055,-0.018748
43014,9.630863,-1.395056,-1.198594,0.025531,0.001444,-0.019061
43015,9.676032,-1.365718,-1.226805,0.027050,-0.006680,-0.024821
43016,9.743761,-1.418404,-1.278255,0.030296,-0.008667,-0.018288
43017,9.773232,-1.345956,-1.268188,0.033385,0.003319,-0.024272
43018,9.752485,-1.347067,-1.303331,0.024202,0.015969,-0.022395
43019,9.672070,-1.345244,-1.303303,0.019238,0.020153,-0.021697
43020,9.672636,-1.343285,-1.301121,0.013840,0.020370,-0.023269
43021,9.658194,-1.370193,-1.288209,0.015978,0.012421,-0.025028
43022,9.656989,-1.342720,-1.222711,0.016219,0.010457,-0.021271
43023,9.693452,-1.368495,-1.191099,0.006647,0.011239,-0.016416
43024,9.708712,-1.397493,-1.196268,0.015720,0.004210,-0.017988
43025,9.739780,-1.350621,-1.249966,0.027988,0.003097,-0.018271
43026,9.755093,-1.319965,-1.260066,0.027628,0.010676,-0.021736
43027,9.711571,-1.179666,-1.277399,0.021253,0.017828,-0.023181
43028,9.676039,-1.209638,-1.300655,-0.009170,0.023728,-0.024130
43029,9.624700,-1.255689,-1.281020,-0.026473,0.017469,-0.021961
43030,9.639242,-1.330726,-1.249073,-0.027706,0.006935,-0.019146
43031,9.675693,-1.355591,-1.218574,-0.034448,0.002681,-0.025194
43032,9.706934,-1.426598,-1.262926,-0.027825,0.003291,-0.023218
43033,9.708227,-1.436826,-1.294795,-0.018074,0.007994,-0.021979
43034,9.737730,-1.423078,-1.278911,-0.009423,0.015991,-0.024675
43035,9.709314,-1.431909,-1.292088,-0.012801,0.023126,-0.023336
43036,9.628995,-1.429834,-1.292286,-0.002984,0.020394,-0.024428
43037,9.628676,-1.414795,-1.258180,0.008427,0.020624,-0.024871
43038,9.628126,-1.340253,-1.229505,0.011992,0.009702,-0.024483
43039,9.678596,-1.323679,-1.177069,0.008922,0.007430,-0.021713
43040,9.693978,-1.352215,-1.182615,-0.005924,0.002781,-0.018739
43041,9.687310,-1.371325,-1.192781,-0.006728,0.005932,-0.016881
43042,9.666739,-1.432284,-1.223912,-0.000218,0.002899,-0.018961
43043,9.696947,-1.431970,-1.240875,0.008983,-0.000467,-0.016453
43044,9.706108,-1.434811,-1.294271,0.018066,0.002248,-0.021245
43045,9.727314,-1.370316,-1.261891,0.026090,0.009617,-0.020348
43046,9.691566,-1.341461,-1.291057,0.029400,0.009927,-0.019359
43047,9.646952,-1.308014,-1.266394,0.025902,0.013411,-0.022093
43048,9.697360,-1.291486,-1.213784,0.008556,0.005290,-0.021967
43049,9.698701,-1.302206,-1.245226,-0.000405,0.006683,-0.020709
43050,9.677584,-1.409891,-1.238872,-0.007281,0.007567,-0.018868
43051,9.657193,-1.470891,-1.269670,0.002595,0.006675,-0.017920
43052,9.657578,-1.468943,-1.268994,0.026788,0.002838,-0.026290
43053,9.709241,-1.358695,-1.291661,0.038766,-0.008282,-0.021521
43054,9.789079,-1.283953,-1.262407,0.030286,-0.000638,-0.023569
43055,9.752614,-1.301682,-1.254744,0.019326,0.014629,-0.022075
43056,9.702158,-1.301524,-1.272327,0.016134,0.018428,-0.026612
43057,9.672129,-1.344577,-1.216030,0.017305,0.017424,-0.028240
43058,9.614802,-1.365163,-1.244469,0.019722,0.007516,-0.026209
43059,9.659302,-1.381896,-1.234831,0.020415,0.000258,-0.024528
43060,9.666890,-1.418557,-1.218967,0.029621,-0.003084,-0.022018
43061,9.669294,-1.442360,-1.282766,0.044957,-0.001862,-0.025078
43062,9.674956,-1.347375,-1.244991,0.061451,-0.002098,-0.022160
43063,9.666827,-1.294538,-1.228364,0.055889,-0.007841,-0.022235
43064,9.695920,-1.281548,-1.213486,0.049011,-0.006965,-0.020396
43065,9.696686,-1.233320,-1.250864,0.040666,-0.004953,-0.022738
43066,9.704274,-1.270130,-1.234897,0.033594,-0.000294,-0.022640
43067,9.667773,-1.288040,-1.227748,0.022544,0.001579,-0.021956
43068,9.662286,-1.320191,-1.269808,0.021877,-0.000883,-0.020387
43069,9.699785,-1.358570,-1.271305,0.021961,-0.008773,-0.015087
43070,9.715732,-1.340784,-1.314893,0.029566,-0.004899,-0.024104
43071,9.743817,-1.314351,-1.268004,0.029615,-0.003068,-0.022078
43072,9.765021,-1.202974,-1.273953,0.020553,0.005741,-0.018497
43073,9.741692,-1.225744,-1.208086,0.002985,0.010614,-0.015720
43074,9.667408,-1.250941,-1.161349,-0.011275,0.015809,-0.011956
43075,9.638829,-1.261320,-1.175114,-0.020089,0.011557,-0.010961
43076,9.663300,-1.295205,-1.234289,-0.029975,0.000865,-0.010653
43077,9.679821,-1.337134,-1.272490,-0.024629,-0.001137,-0.011114
43078,9.733101,-1.359137,-1.317638,-0.030381,-0.003107,-0.012919
43079,9.736079,-1.443014,-1.376570,-0.018212,0.003301,-0.010891
43080,9.712632,-1.466273,-1.311498,-0.010373,0.004774,-0.008505
43081,9.690779,-1.455844,-1.315476,0.006491,0.007165,-0.012976
43082,9.689911,-1.441966,-1.282832,0.025532,0.001166,-0.011557
43083,9.702542,-1.386282,-1.229517,0.039026,0.000959,-0.011436
43084,9.723096,-1.322234,-1.197629,0.047186,0.003203,-0.018481
43085,9.734487,-1.146759,-1.154812,0.045763,0.006169,-0.020649
43086,9.748734,-1.056512,-1.170677,0.014849,0.005616,-0.018276
43087,9.708931,-1.134349,-1.269189,-0.019063,0.016596,-0.019945
43088,9.688706,-1.242006,-1.261177,-0.020748,0.021071,-0.018274
43089,9.654721,-1.285689,-1.316821,-0.024721,0.018280,-0.017691
43090,9.619149,-1.363115,-1.303446,-0.021257,0.012994,-0.016981
43091,9.641587,-1.370802,-1.298102,-0.007004,0.007368,-0.013116
43092,9.654883,-1.374155,-1.239401,0.002209,0.004059,-0.010598
43093,9.713895,-1.362361,-1.241454,0.009509,-0.003920,-0.016566
43094,9.720831,-1.339920,-1.230982,0.018363,0.002176,-0.015528
43095,9.725851,-1.245091,-1.193738,0.013525,0.000704,-0.015122
43096,9.731673,-1.209619,-1.150778,0.008635,0.008953,-0.018002
43097,9.725248,-1.228941,-1.160498,-0.013666,0.004876,-0.017137
43098,9.719987,-1.261026,-1.202524,-0.022324,0.006542,-0.017676
43099,9.692664,-1.283707,-1.248973,-0.037508,0.011205,-0.016136
43100,9.689519,-1.388048,-1.317160,-0.040109,0.015173,-0.016680
43101,9.641000,-1.460854,-1.362653,-0.024411,0.007046,-0.018274
43102,9.670141,-1.447287,-1.347271,0.007620,0.004356,-0.016650
43103,9.689340,-1.369743,-1.283352,0.017293,0.007308,-0.017459
43104,9.672180,-1.265559,-1.249958,0.016116,0.008311,-0.015835
43105,9.677986,-1.230102,-1.206516,0.003283,0.010963,-0.017551
43106,9.707125,-1.216606,-1.190533,-0.012608,0.011322,-0.016471
43107,9.686174,-1.265398,-1.188901,-0.027341,0.010225,-0.009390
43108,9.680628,-1.344727,-1.193359,-0.038749,0.009914,-0.008948
43109,9.705125,-1.424901,-1.215072,-0.033998,0.007741,-0.013424
43110,9.700264,-1.410683,-1.294607,-0.015770,0.004927,-0.010121
43111,9.715122,-1.379848,-1.305238,-0.000065,0.008821,-0.020580
43112,9.721243,-1.297352,-1.299279,0.000844,0.009326,-0.018367
43113,9.757384,-1.216022,-1.309981,-0.000191,0.016265,-0.018270
43114,9.727839,-1.213160,-1.291078,-0.015900,0.024382,-0.016696
43115,9.660405,-1.217504,-1.233179,-0.022432,0.027372,-0.014627
43116,9.668477,-1.254214,-1.215411,-0.031275,0.021267,-0.015692
43117,9.654285,-1.281862,-1.203198,-0.038753,0.009908,-0.008995
43118,9.679263,-1.315082,-1.262204,-0.036642,0.009880,-0.016045
43119,9.729172,-1.297929,-1.209898,-0.029991,0.012369,-0.012012
43120,9.744300,-1.220379,-1.257580,-0.032740,0.010395,-0.011032
43121,9.760121,-1.249014,-1.262702,-0.040741,0.014526,-0.013171
43122,9.733094,-1.271543,-1.308746,-0.043945,0.018317,-0.017743
43123,9.725681,-1.277484,-1.285677,-0.046205,0.024434,-0.018061
43124,9.693261,-1.380259,-1.336362,-0.047075,0.025760,-0.018252
43125,9.663481,-1.423841,-1.280344,-0.034797,0.024763,-0.018494
43126,9.619412,-1.450303,-1.250696,-0.019663,0.017825,-0.014396
43127,9.591083,-1.460355,-1.264903,-0.005545,0.004920,-0.018630
43128,9.634533,-1.417752,-1.260709,0.019121,-0.004996,-0.013774
43129,9.713163,-1.342668,-1.231141,0.027225,-0.005003,-0.015194
43130,9.742329,-1.282881,-1.253060,0.027050,0.000617,-0.014912
43131,9.703502,-1.229500,-1.218992,0.027187,0.006562,-0.016438
43132,9.681659,-1.218855,-1.222685,0.018488,0.006393,-0.019048
43133,9.689557,-1.255890,-1.206631,0.003015,-0.000863,-0.014506
43134,9.670042,-1.317751,-1.238256,-0.000913,-0.001848,-0.011899
43135,9.679197,-1.367896,-1.254963,0.000828,-0.004490,-0.011538
43136,9.680636,-1.379808,-1.287395,0.022676,-0.006627,-0.008984
43137,9.692437,-1.324221,-1.234605,0.033490,-0.006470,-0.013429
43138,9.712420,-1.213326,-1.240511,0.035018,-0.005314,-0.014829
43139,9.763594,-1.162792,-1.258239,0.014635,-0.004327,-0.013172
43140,9.779404,-1.191641,-1.263833,-0.005171,0.008870,-0.016373
43141,9.730046,-1.252343,-1.277363,-0.010494,0.012674,-0.013896
43142,9.679559,-1.253621,-1.295815,-0.008931,0.015651,-0.013254
43143,9.671991,-1.260634,-1.272875,-0.016130,0.016152,-0.009614
43144,9.665594,-1.327016,-1.245023,-0.027295,0.012496,-0.015088
43145,9.691993,-1.419905,-1.298809,-0.009506,0.003441,-0.008396
43146,9.697299,-1.385043,-1.255987,0.016860,0.001136,-0.014100
43147,9.731508,-1.291454,-1.234976,0.025342,0.005112,-0.013252
43148,9.772245,-1.176804,-1.203145,0.025999,0.007588,-0.014833
43149,9.726811,-1.144464,-1.179190,0.000912,0.013015,-0.014322
43150,9.722063,-1.176684,-1.220533,-0.015577,0.013152,-0.017320
43151,9.688507,-1.267410,-1.239853,-0.026953,0.014633,-0.014872
43152,9.693003,-1.350738,-1.297590,-0.022121,0.016127,-0.015264
43153,9.629625,-1.393926,-1.337116,-0.006569,0.013667,-0.016523
43154,9.614154,-1.408955,-1.292876,0.007456,0.010053,-0.016385
43155,9.625949,-1.352595,-1.239301,0.023378,-0.003641,-0.018201
43156,9.704100,-1.323631,-1.172722,0.031012,-0.011724,-0.018323
43157,9.740901,-1.255378,-1.217059,0.026243,-0.009571,-0.013860
43158,9.755371,-1.271358,-1.190556,0.022755,0.009571,-0.021459
43159,9.682749,-1.263515,-1.213784,0.010754,0.010391,-0.015391
43160,9.633500,-1.324732,-1.227744,0.010505,-0.001498,-0.012325
43161,9.629928,-1.417160,-1.265341,0.013654,-0.008925,-0.011824
43162,9.667884,-1.455331,-1.267262,0.029488,-0.012868,-0.016939
