// Start Time: Unknown
// Update Rate: 100.0Hz
// Filter Profile: human (46.1)
// Firmware Version: 4.3.5
PacketCounter,Acc_X,Acc_Y,Acc_Z,Gyr_X,Gyr_Y,Gyr_Z
00963,9.848832,0.028150,0.522208,-0.020474,0.013650,-0.015649
00964,9.838836,0.031072,0.556411,-0.020339,0.009932,-0.016014
00965,9.840184,0.004520,0.576956,-0.018197,0.006795,-0.021884
00966,9.862209,0.032499,0.583240,-0.018908,0.009191,-0.021018
00967,9.840081,0.008662,0.578666,-0.018766,0.009525,-0.024662
00968,9.862083,0.037041,0.585091,-0.018983,0.009031,-0.026234
00969,9.817920,-0.012397,0.574921,-0.022791,0.008370,-0.027739
00970,9.873330,0.012498,0.573608,-0.023143,0.011594,-0.028941
00971,9.817804,-0.007059,0.576999,-0.025225,0.010849,-0.028656
00972,9.851174,-0.007920,0.570133,-0.031551,0.008455,-0.033027
00973,9.847976,-0.075440,0.591305,-0.025357,0.014567,-0.028277
00974,9.837334,-0.128245,0.573607,-0.021699,0.010862,-0.033932
00975,9.847883,-0.069350,0.593591,-0.007688,0.010708,-0.032130
00976,9.840363,-0.051361,0.555750,-0.001867,0.011963,-0.036120
00977,9.802912,-0.029240,0.616867,0.005316,0.008249,-0.032980
00978,9.858276,-0.003671,0.615504,0.000434,0.009147,-0.031550
00979,9.842244,-0.013068,0.630149,0.002376,0.009558,-0.028185
00980,9.824237,-0.051107,0.573216,0.004390,0.010150,-0.033680
00981,9.808675,-0.003478,0.640007,0.015884,0.012305,-0.023938
00982,9.879515,-0.023350,0.573275,0.015310,0.010981,-0.023442
00983,9.886950,-0.035705,0.613073,0.030612,0.005721,-0.019724
00984,9.856403,0.040308,0.601424,0.041821,0.007231,-0.016769
00985,9.866754,0.097646,0.621023,0.038516,0.007710,-0.009911
00986,9.821724,0.132060,0.642801,0.033057,0.007281,-0.007990
00987,9.850672,0.087276,0.636291,0.032554,0.010170,-0.005550
00988,9.817144,0.091609,0.645143,0.035430,0.012738,-0.004747
00989,9.832656,0.047535,0.580930,0.031266,0.015290,-0.007460
00990,9.877888,0.072248,0.613494,0.040824,0.021099,-0.004347
00991,9.895227,0.057048,0.621749,0.038960,0.024895,-0.005765
00992,9.901016,0.071550,0.643245,0.033643,0.020749,-0.004214
00993,9.894949,0.058143,0.626057,0.032202,0.021490,0.000787
00994,9.880321,0.017679,0.661907,0.030551,0.025782,0.000939
00995,9.871232,0.059942,0.605805,0.026944,0.029661,0.011797
00996,9.839070,0.034710,0.636298,0.027823,0.031642,0.004022
00997,9.803913,0.066177,0.627488,0.024513,0.036181,0.007595
00998,9.803702,0.065272,0.630869,0.024935,0.033130,0.014024
00999,9.775689,0.024153,0.609413,0.025516,0.034453,0.013533
01000,9.832299,0.017292,0.630649,0.028761,0.037848,0.012273
01001,9.816041,0.004007,0.648085,0.037467,0.037621,0.012389
01002,9.763430,0.050849,0.633622,0.039418,0.042088,0.012485
01003,9.818566,0.072297,0.635593,0.037337,0.041340,0.012766
01004,9.802267,0.058855,0.653391,0.034170,0.042165,0.015972
01005,9.794751,0.071755,0.618378,0.032300,0.041917,0.017826
01006,9.822134,0.052631,0.595675,0.025110,0.041572,0.017932
01007,9.833609,0.078791,0.638109,0.024325,0.039750,0.016858
01008,9.861018,0.059592,0.615182,0.021872,0.038181,0.019204
01009,9.837529,0.060034,0.593579,0.024334,0.039750,0.016869
01010,9.825745,0.088495,0.610242,0.020456,0.034859,0.013410
01011,9.837131,0.057620,0.600377,0.014487,0.029221,0.010219
01012,9.804754,0.032244,0.630767,0.017371,0.031789,0.011032
01013,9.804564,0.031316,0.633761,0.018091,0.029392,0.010180
01014,9.798561,0.016800,0.617378,0.019553,0.028635,0.005190
01015,9.797105,0.044659,0.600243,0.021435,0.028880,0.003350
01016,9.775010,0.018237,0.597401,0.021993,0.026163,0.006142
01017,9.781941,0.003614,0.638928,0.021921,0.021942,0.004209
01018,9.792127,0.001597,0.608097,0.017741,0.020451,0.004746
01019,9.792009,0.001195,0.609998,0.015069,0.018384,0.005509
01020,9.847343,-0.035569,0.558303,0.008906,0.012663,0.025250
01021,9.914322,0.012077,0.596101,0.001708,0.012324,0.025331
01022,9.888983,-0.028677,0.664088,-0.001696,0.016510,0.018444
01023,9.866966,0.001367,0.711375,0.000484,0.013350,0.012599
01024,9.868087,-0.027650,0.732675,0.002321,0.013409,0.005539
01025,9.869204,-0.056019,0.753942,0.016093,0.012577,0.000660
01026,9.869094,-0.055564,0.755417,0.032199,0.017028,-0.006192
01027,9.887513,-0.098121,0.783874,0.050225,0.025757,-0.018164
01028,9.883930,-0.108012,0.858781,0.073170,0.029726,-0.023006
01029,9.894087,-0.106546,0.828943,0.096259,0.029977,-0.028191
01030,9.917061,-0.162242,0.806819,0.119263,0.037981,-0.036289
01031,9.927205,-0.159342,0.778171,0.151384,0.042731,-0.037760
01032,9.876156,-0.192237,0.733085,0.179415,0.054051,-0.045251
01033,9.845809,-0.170393,0.673947,0.198064,0.056029,-0.051019
01034,9.722909,-0.083322,0.562587,0.219824,0.045094,-0.050035
01035,9.472132,0.010896,0.262340,0.207991,0.017993,-0.046766
01036,9.268676,0.166523,-0.104133,0.168084,-0.040426,-0.028305
01037,9.031237,0.323163,-0.469226,0.062173,-0.104335,-0.012081
01038,9.080526,0.515216,-0.515339,-0.079128,-0.180198,0.015464
01039,9.588057,0.482601,-0.225005,-0.244872,-0.202730,0.066616
01040,9.965917,0.123936,0.279239,-0.366448,-0.165646,0.102739
01041,10.002035,0.080601,0.839612,-0.415560,-0.121330,0.107003
01042,9.940014,0.306617,1.140142,-0.432847,-0.097212,0.108756
01043,10.072453,0.251322,1.337209,-0.428139,-0.091311,0.115812
01044,10.350062,-0.145081,1.795033,-0.361978,-0.057649,0.123094
01045,10.876691,-0.463508,2.927662,-0.209404,0.052782,0.083946
01046,11.463571,-0.129736,4.123859,-0.038957,0.248104,-0.013279
01047,11.405844,0.265818,4.334417,0.050928,0.479769,-0.093711
01048,10.356821,0.216327,3.147565,0.160476,0.610790,-0.151682
01049,9.845382,-0.105266,1.810395,0.311160,0.579567,-0.137860
01050,10.620421,-1.075047,1.303771,0.420673,0.584543,-0.056274
01051,11.012260,-1.605266,1.377977,0.519056,0.702938,-0.000407
01052,10.546295,-1.512915,1.158981,0.604608,0.785278,0.009596
01053,9.425207,-1.177019,0.059648,0.738529,0.735613,-0.006558
01054,8.269092,-0.436188,-1.341684,0.828020,0.536856,0.008279
01055,8.450060,-0.160645,-2.352718,0.717523,0.279711,0.109511
01056,9.185563,-0.675322,-2.463647,0.458907,0.114573,0.258105
01057,9.775624,-0.880482,-1.626203,0.202910,0.066716,0.394903
01058,10.103268,-1.067805,-0.557978,0.014099,0.050825,0.539985
01059,10.110672,-1.142460,0.303583,-0.111926,0.042217,0.671094
01060,9.838797,-1.143533,1.014351,-0.202606,0.031484,0.746199
01061,9.865528,-1.185675,1.856433,-0.243132,0.022200,0.792721
01062,10.221994,-1.598863,2.694248,-0.179139,0.077167,0.818151
01063,10.512724,-2.125676,3.200947,0.019647,0.210144,0.832121
01064,10.468948,-2.215062,3.024794,0.282725,0.357402,0.830266
01065,9.874955,-1.952006,2.359695,0.620489,0.419810,0.803576
01066,9.666199,-1.641102,1.775665,0.919903,0.370729,0.770234
01067,10.072112,-1.363290,1.345911,1.063225,0.332131,0.730093
01068,9.868807,-1.080794,0.801977,1.127475,0.349163,0.663049
01069,9.323035,-0.564001,0.165714,1.165399,0.322232,0.612927
01070,8.988197,-0.172342,-0.390998,1.125036,0.229330,0.603093
01071,9.127313,0.118060,-0.480772,0.958573,0.125385,0.620640
01072,9.470446,0.257650,0.037689,0.680454,0.068937,0.636767
01073,9.863590,0.365096,0.730666,0.364988,0.070938,0.650320
01074,9.845717,0.243041,1.160956,0.090382,0.102378,0.660094
01075,9.654215,0.033185,1.393237,-0.115736,0.110155,0.672916
01076,9.734338,-0.398397,2.183113,-0.241260,0.130948,0.669693
01077,10.385001,-0.971460,3.483548,-0.315412,0.227561,0.664125
01078,10.618336,-1.567309,4.318078,-0.328287,0.413891,0.628353
01079,10.382519,-1.730126,4.379748,-0.149530,0.567518,0.570176
01080,10.017291,-2.268382,3.673203,0.090920,0.643485,0.557048
01081,9.556403,-2.800219,2.914802,0.414498,0.629465,0.543293
01082,9.743440,-3.086931,2.662146,0.679914,0.591949,0.539913
01083,10.044503,-3.187073,2.654778,0.863753,0.621006,0.547699
01084,9.774874,-3.090311,2.460513,1.014209,0.695576,0.512073
01085,9.515271,-2.651226,2.040182,1.127525,0.708378,0.506703
01086,9.381634,-2.342325,1.441645,1.157899,0.698593,0.544639
01087,8.998508,-2.257094,1.072509,1.123470,0.670540,0.603400
01088,8.867188,-2.024413,0.970795,1.008740,0.578936,0.680569
01089,9.504037,-1.826931,1.021996,0.800172,0.495960,0.738237
01090,9.979239,-1.448881,1.323093,0.551626,0.516432,0.770686
01091,9.953946,-1.000794,1.795971,0.244844,0.565939,0.791945
01092,9.640410,-0.785370,2.168351,-0.022682,0.566289,0.800906
01093,9.632647,-0.496135,2.838559,-0.236471,0.533432,0.777979
01094,9.978439,-0.620796,3.755850,-0.437769,0.574260,0.754596
01095,10.294221,-1.069196,4.731003,-0.520079,0.702645,0.700465
01096,10.314209,-1.484127,5.201535,-0.540899,0.868358,0.667944
01097,9.455388,-2.271890,4.564394,-0.389930,0.962286,0.644782
01098,8.946051,-2.975142,3.847387,-0.089057,0.899336,0.617541
01099,9.308633,-3.389432,3.334990,0.217278,0.817911,0.605327
01100,9.631148,-3.634125,2.972755,0.452805,0.784745,0.585532
01101,9.370587,-3.425552,2.558624,0.671051,0.754653,0.535501
01102,8.877766,-2.775617,1.971468,0.826680,0.691269,0.484548
01103,8.278270,-2.132108,1.444195,0.851189,0.617350,0.440484
01104,7.990336,-1.708710,0.922642,0.758652,0.517335,0.428993
01105,8.048745,-1.476334,0.744146,0.563619,0.409830,0.446138
01106,8.339714,-1.264999,1.036568,0.302883,0.325417,0.457545
01107,8.901213,-0.971932,1.696197,-0.049979,0.278711,0.481303
01108,8.960978,-0.770024,2.181355,-0.445220,0.265825,0.499096
01109,8.759895,-0.793406,2.500415,-0.794211,0.220763,0.501810
01110,9.203255,-1.073197,3.752142,-1.065390,0.208079,0.510917
01111,10.272535,-1.905930,5.860223,-1.337123,0.394351,0.524062
01112,10.316565,-2.938980,6.730279,-1.507359,0.710314,0.537359
01113,8.455459,-4.033820,5.640652,-1.337926,0.849179,0.528012
01114,7.404355,-4.913120,4.049561,-0.911729,0.684051,0.503980
01115,8.142364,-5.438682,3.097624,-0.488334,0.509879,0.488219
01116,8.563887,-5.665722,2.896308,-0.152484,0.497205,0.460336
01117,8.181755,-5.178909,2.772231,0.176622,0.485805,0.430721
01118,7.823253,-4.548591,2.332540,0.440282,0.461069,0.434322
01119,7.353355,-3.984699,1.758916,0.599160,0.400844,0.461483
01120,6.914318,-3.465941,1.419407,0.613073,0.255345,0.475846
01121,7.195682,-3.005861,1.332270,0.499195,0.082710,0.498843
01122,7.908192,-2.762334,1.608650,0.251622,-0.002632,0.541064
01123,8.185795,-2.603088,1.807550,-0.068760,-0.024524,0.582219
01124,8.130848,-2.396272,2.023202,-0.373863,-0.076179,0.606265
01125,8.555080,-2.253754,3.197090,-0.677855,-0.124204,0.628805
01126,9.877542,-2.716701,5.794412,-1.084234,-0.007431,0.681523
01127,10.243299,-3.375901,7.421499,-1.562174,0.330181,0.713137
01128,8.660480,-3.968039,6.950674,-1.620610,0.573821,0.696317
01129,7.276198,-5.180096,5.475787,-1.287620,0.522514,0.737177
01130,7.813417,-6.538071,4.659164,-0.871973,0.388128,0.784220
01131,8.737129,-7.553903,4.439330,-0.549124,0.347067,0.816014
01132,8.856487,-7.582626,4.048316,-0.135278,0.367177,0.785645
01133,8.559354,-6.910795,3.455849,0.353053,0.370733,0.769168
01134,7.915399,-6.237208,2.803186,0.798855,0.340896,0.761721
01135,7.289719,-5.519910,2.311478,1.032526,0.267341,0.741478
01136,6.929584,-4.792315,1.776211,1.047110,0.138958,0.731432
01137,6.818204,-3.996329,1.452675,0.986998,0.004909,0.719306
01138,7.437585,-3.505285,1.948775,0.776609,-0.091506,0.745442
01139,8.007150,-3.255416,2.725008,0.391756,-0.077718,0.771435
01140,7.906069,-2.960230,3.314225,-0.012591,-0.035293,0.778830
01141,8.132995,-2.767496,4.642741,-0.363318,0.013917,0.786320
01142,8.793929,-3.095394,6.570093,-0.777592,0.198942,0.820851
01143,8.577926,-3.829701,7.385299,-1.147420,0.455669,0.826001
01144,7.653708,-4.908333,6.641967,-1.196974,0.592247,0.833717
01145,7.232561,-6.116010,5.915784,-0.943099,0.596884,0.856883
01146,7.711345,-7.535072,6.016533,-0.668929,0.621198,0.909057
01147,7.990763,-8.938789,5.680102,-0.335813,0.711754,1.005582
01148,7.688044,-9.402855,5.274985,0.214543,0.785783,1.062303
01149,7.496686,-9.256684,4.545576,0.815717,0.786893,1.123262
01150,7.185575,-8.488409,3.608169,1.327803,0.745220,1.097442
01151,6.815523,-7.361796,2.911007,1.683541,0.647697,1.026877
01152,6.963115,-6.236874,2.733479,1.803949,0.550210,0.996664
01153,7.090643,-5.218137,2.775493,1.713422,0.518565,0.970565
01154,6.822069,-4.303168,2.896111,1.485499,0.498419,0.950657
01155,6.493429,-3.715935,2.883277,1.131643,0.446248,0.949636
01156,5.970474,-3.304873,2.626673,0.744082,0.341984,0.931613
01157,5.924730,-2.962295,2.738741,0.297822,0.196261,0.926360
01158,6.395536,-2.724163,3.661836,-0.250717,0.113979,0.916227
01159,7.453385,-2.881207,6.109587,-0.800012,0.214660,0.916640
01160,8.767069,-3.365997,9.033588,-1.406791,0.597803,0.966726
01161,7.641542,-4.550788,9.028312,-1.775348,1.018370,0.981017
01162,5.046024,-6.494798,6.807007,-1.491920,1.032480,0.960192
01163,4.749790,-8.047964,5.180183,-0.903590,0.779022,0.954065
01164,6.431925,-9.455213,5.281594,-0.392830,0.639307,0.996512
01165,7.733056,-10.672470,5.742624,0.114022,0.699421,1.053948
01166,7.588996,-10.896102,5.622165,0.847770,0.810076,1.042147
01167,6.458115,-10.395605,4.784478,1.691606,0.829261,1.002155
01168,5.356886,-9.254429,3.658985,2.370745,0.754572,0.942079
01169,4.704882,-7.606216,3.034369,2.732161,0.623174,0.871413
01170,4.544777,-6.081772,2.783213,2.767870,0.504354,0.818571
01171,4.682870,-4.823846,2.732029,2.581214,0.421895,0.824195
01172,4.593969,-3.781219,2.835575,2.160952,0.368097,0.851847
01173,4.259817,-2.739300,2.803298,1.558948,0.288630,0.863932
01174,3.721559,-1.977769,2.489297,0.834326,0.126962,0.845361
01175,3.981125,-1.554610,2.792142,0.055814,-0.059477,0.829327
01176,4.892619,-1.751477,3.914197,-0.796867,-0.122926,0.842433
01177,5.863728,-2.267653,6.325819,-1.605976,0.015225,0.896322
01178,6.566533,-2.899429,9.294050,-2.362952,0.332770,0.948575
01179,6.211709,-4.137728,10.396730,-2.958927,0.687466,0.982396
01180,3.998483,-6.502707,8.450842,-3.031793,0.793839,0.971353
01181,2.884272,-8.662288,6.109155,-2.484355,0.572557,0.914271
01182,4.434640,-10.483278,5.545820,-1.754638,0.373349,0.915363
01183,5.918174,-12.065550,5.782961,-0.991933,0.391628,0.956062
01184,5.700100,-12.615612,5.543384,-0.092094,0.462259,0.958353
01185,4.814790,-11.648559,4.874084,0.920567,0.451357,0.917264
01186,4.158908,-9.981037,4.221191,1.707607,0.410778,0.870840
01187,3.542452,-8.335600,3.967939,2.136611,0.351068,0.817483
01188,3.142176,-6.615483,3.732704,2.207603,0.236819,0.755196
01189,3.036249,-5.073764,3.264893,2.006881,0.109114,0.710962
01190,3.328293,-3.826808,3.276619,1.592741,0.015627,0.721614
01191,3.723982,-3.144843,3.895690,0.925181,0.003506,0.740785
01192,3.509871,-2.937254,4.343747,0.143680,0.025273,0.745571
01193,3.126797,-2.706530,4.684880,-0.623633,-0.003012,0.727214
01194,3.307764,-2.584937,5.972267,-1.359046,-0.029153,0.705001
01195,4.530216,-2.898539,8.368269,-2.074390,0.110282,0.701471
01196,4.971040,-4.252272,9.605598,-2.699215,0.405632,0.708375
01197,3.985645,-6.812983,8.686145,-2.861926,0.604390,0.704746
01198,2.842383,-9.820860,6.763890,-2.362138,0.585135,0.716225
01199,3.189847,-11.855499,6.001510,-1.465617,0.486177,0.699725
01200,4.363581,-13.168436,6.346407,-0.597789,0.467576,0.747807
01201,4.349336,-13.807640,6.110174,0.372700,0.514563,0.802190
01202,3.719170,-12.813781,5.687665,1.404034,0.521411,0.781458
01203,3.148858,-11.126481,4.681270,2.177518,0.507347,0.740328
01204,2.309793,-8.882277,3.920709,2.644129,0.461073,0.658238
01205,2.030595,-6.789941,3.881868,2.697901,0.364233,0.608255
01206,2.375900,-5.297636,4.360640,2.383655,0.319226,0.589726
01207,2.598187,-4.186785,4.745016,1.760342,0.345746,0.616359
01208,2.227567,-3.583645,4.595781,0.962147,0.358967,0.635448
01209,1.844508,-3.638157,4.470883,0.194327,0.298605,0.663956
01210,1.900684,-3.854569,5.049076,-0.508918,0.245844,0.689663
01211,2.110747,-3.973680,6.077115,-1.213854,0.232614,0.704225
01212,2.697844,-4.254298,7.533039,-1.793790,0.308877,0.698022
01213,3.391124,-5.149956,8.886685,-2.211814,0.524681,0.664614
01214,2.940305,-7.423602,8.718585,-2.293275,0.700592,0.637225
01215,2.211150,-9.953032,7.617428,-1.794375,0.704736,0.616244
01216,2.178661,-11.567285,6.726764,-0.960313,0.615490,0.594033
01217,3.009005,-12.552814,6.765331,0.025245,0.602804,0.596633
01218,3.585030,-13.122423,7.350402,1.052273,0.714357,0.636397
01219,2.864166,-13.162160,7.290937,2.158916,0.788452,0.636430
01220,2.217497,-12.554332,6.634583,3.253871,0.734511,0.589828
01221,1.868752,-11.621250,5.271346,4.182074,0.612758,0.554625
01222,1.639554,-10.083269,4.659405,4.872503,0.456175,0.519485
01223,1.413686,-8.688559,4.138684,5.106832,0.215522,0.481469
01224,0.848251,-7.098962,2.447449,4.905833,0.001833,0.321958
01225,1.172210,-5.488485,1.217206,4.489526,-0.086555,0.175107
01226,1.269106,-2.872457,1.763912,3.687424,0.025616,0.216439
01227,0.180589,-0.456647,3.704476,2.462099,0.149319,0.377584
01228,-0.659678,0.661227,5.605454,1.025382,0.114283,0.513999
01229,-0.244585,0.700137,7.908434,-0.274661,0.136107,0.623680
01230,1.007148,-0.002564,10.621007,-1.386116,0.327608,0.710168
01231,1.278128,-1.839705,11.995173,-2.207450,0.573214,0.735608
01232,0.070616,-4.809004,10.812278,-2.330756,0.573599,0.646292
01233,-0.028917,-7.410658,8.582748,-1.622368,0.298679,0.454730
01234,1.789123,-8.833327,7.138207,-0.510808,0.129700,0.264259
01235,2.694081,-9.228508,6.976074,0.725868,0.219596,0.074670
01236,2.248411,-7.598352,8.128153,1.862412,0.346029,-0.117106
01237,1.421830,-5.619665,9.019765,2.472034,0.402909,-0.259231
01238,0.429753,-4.981636,8.242429,2.582799,0.345968,-0.322568
01239,-0.010995,-5.334261,6.753655,2.537769,0.181672,-0.309461
01240,0.009110,-5.473606,5.407888,2.370877,0.024177,-0.276795
01241,0.491073,-5.284662,4.437776,2.180267,-0.043930,-0.230758
01242,0.032125,-3.782738,4.792959,1.856396,-0.005276,-0.183432
01243,-0.300607,-2.663219,5.526407,1.256275,-0.015513,-0.046641
01244,-0.448724,-1.681789,6.106543,0.430231,-0.078511,0.124531
01245,-0.067583,-1.900174,6.962455,-0.536307,-0.121146,0.286816
01246,0.638842,-3.291584,7.406306,-1.323941,-0.130891,0.447961
01247,1.371426,-4.088163,8.781687,-1.861794,-0.102000,0.527478
01248,2.198713,-5.027000,10.654484,-2.109704,0.005848,0.562948
01249,2.160173,-6.586187,11.709963,-1.919898,0.174985,0.552524
01250,0.963410,-8.556771,11.135168,-1.144227,0.165547,0.443595
01251,1.000684,-9.332872,10.525078,0.100579,0.055634,0.277514
01252,1.631179,-8.809570,9.866199,1.442364,0.010457,0.089485
01253,1.522220,-7.175909,9.334783,2.687859,0.044429,-0.141267
01254,1.251682,-5.164470,8.957957,3.437411,0.052905,-0.294631
01255,0.574905,-4.341397,8.236251,3.653853,-0.003213,-0.352984
01256,0.178842,-4.305439,7.472826,3.446358,-0.141599,-0.361134
01257,0.357378,-4.363907,6.105692,3.131903,-0.186202,-0.345641
01258,-0.615409,-2.606420,5.882486,2.685949,-0.135812,-0.331626
01259,-0.885436,-1.286886,6.287297,2.015611,-0.104824,-0.254935
01260,-0.755746,0.422117,7.196183,1.226852,-0.062319,-0.104322
01261,-0.956331,1.418460,7.459246,0.147981,-0.076496,0.060696
01262,-0.135342,0.307306,7.423099,-0.909235,-0.120610,0.217355
01263,1.146433,-1.096514,7.742352,-1.696378,-0.094789,0.343227
01264,1.191038,-2.213832,7.744137,-2.364247,-0.104840,0.377498
01265,1.024502,-2.678558,7.732694,-2.809597,-0.174442,0.366053
01266,1.492399,-2.583851,8.707423,-3.187824,-0.161146,0.348483
01267,2.531700,-2.837608,11.794583,-3.405553,0.000220,0.366136
01268,2.428144,-4.391281,14.191518,-3.370013,0.267711,0.394933
01269,-0.189170,-9.184006,11.288310,-2.726852,0.206309,0.306342
01270,0.154190,-11.053496,8.739578,-1.088651,0.015042,0.080528
01271,2.632722,-9.295931,8.332514,0.403373,0.091014,-0.045002
01272,2.173344,-6.425366,9.480462,1.440040,0.230197,-0.165482
01273,0.765362,-4.429502,9.648152,1.814324,0.086545,-0.262502
01274,0.077733,-3.694745,7.287786,1.716439,-0.110733,-0.331160
01275,0.010269,-3.521887,5.140893,1.471316,-0.208390,-0.361018
01276,0.113642,-3.074652,4.227621,1.107922,-0.266281,-0.288713
01277,0.193634,-2.052704,4.385092,0.480576,-0.270445,-0.153458
01278,0.294829,-0.755367,6.291158,-0.364455,-0.185280,-0.012209
01279,-0.127977,-0.662039,7.095210,-1.533024,-0.151427,0.098791
01280,-0.595059,-1.854541,6.658700,-2.636950,-0.201470,0.155549
01281,-0.430431,-2.519596,6.400869,-3.651719,-0.269682,0.207539
01282,0.342849,-2.044583,6.867955,-4.805710,-0.356903,0.273990
01283,1.063644,-1.060222,7.188088,-6.135085,-0.506972,0.349430
01284,2.103056,-1.969305,6.481418,-7.366391,-0.648618,0.450213
01285,2.220985,-3.539609,7.241813,-7.996007,-0.613570,0.449168
01286,2.843787,-7.518441,7.948978,-7.857191,-0.495725,0.335138
01287,1.781534,-12.142142,6.816896,-6.841597,-0.363268,0.226600
01288,0.791898,-17.277515,4.825637,-4.719830,-0.253998,0.079017
01289,0.692445,-18.877356,4.941916,-2.342657,-0.198765,-0.049420
01290,1.728117,-16.289786,5.552458,-0.303110,-0.152493,-0.110448
01291,1.753115,-10.743050,6.252881,0.884138,-0.035505,-0.255157
01292,1.414804,-7.371771,6.067785,1.199653,-0.068945,-0.384674
01293,1.474498,-7.135419,4.323333,0.966910,-0.148832,-0.401715
01294,1.198909,-7.740663,2.842689,0.615417,-0.204560,-0.344910
01295,0.722034,-7.733429,2.165671,0.143095,-0.269787,-0.219539
01296,0.398589,-7.171854,2.155533,-0.465109,-0.316261,-0.076031
01297,0.310961,-6.564100,2.981612,-1.083261,-0.331261,0.042735
01298,0.471831,-5.738465,4.423348,-1.692254,-0.333827,0.130736
01299,0.979438,-5.882453,5.651979,-2.194430,-0.310864,0.182444
01300,1.025401,-6.959822,6.265164,-2.485425,-0.277027,0.152112
01301,0.959017,-8.756805,4.978514,-2.311464,-0.311938,0.082553
01302,1.381227,-10.071526,4.291975,-1.834712,-0.317122,0.036478
01303,2.026110,-11.464160,4.777737,-1.329496,-0.264425,0.003444
01304,2.314200,-11.690099,5.492156,-0.692502,-0.199077,-0.084765
01305,2.310229,-11.403009,6.098193,-0.073905,-0.112337,-0.181312
01306,1.922175,-10.997373,5.269606,0.335037,-0.085880,-0.236865
01307,1.383708,-10.575084,3.702161,0.599085,-0.128995,-0.221687
01308,1.219633,-10.172462,3.064632,0.625698,-0.154955,-0.141475
01309,1.280448,-9.383333,3.283239,0.408462,-0.138778,-0.037984
01310,1.094114,-8.483019,3.709418,0.048379,-0.101555,0.035055
01311,1.117222,-8.112231,4.039405,-0.322926,-0.072820,0.102696
01312,0.979334,-8.319665,3.906693,-0.606486,-0.062903,0.163265
01313,0.794941,-8.581247,3.481627,-0.801542,-0.128475,0.199121
01314,0.942938,-8.430093,3.350676,-1.029083,-0.226640,0.210662
01315,1.255846,-8.041402,3.332344,-1.230272,-0.309815,0.196626
01316,1.473018,-7.531378,3.598799,-1.434227,-0.345044,0.183662
01317,1.867328,-7.223787,3.760867,-1.611145,-0.346070,0.162976
01318,1.645628,-7.868039,4.406503,-1.648607,-0.251220,0.105168
01319,1.987387,-8.467300,5.401742,-1.426797,-0.113938,0.019006
01320,1.628388,-8.994152,4.810670,-0.975749,0.007354,-0.062166
01321,1.354104,-10.039131,3.514304,-0.522342,0.045632,-0.108556
01322,1.536354,-10.895938,2.884012,-0.248814,0.044650,-0.097572
01323,1.908164,-10.501631,3.224325,-0.208066,0.048277,-0.070873
01324,2.093487,-9.537624,3.971931,-0.319775,0.102482,-0.064213
01325,1.802376,-8.794329,4.059544,-0.446307,0.197611,-0.083012
01326,1.200562,-8.474622,3.508287,-0.583874,0.234731,-0.087710
01327,0.714908,-8.813288,2.567511,-0.737329,0.157677,-0.019031
01328,0.907774,-9.298088,1.694423,-0.834480,0.066764,0.026408
01329,1.390933,-9.491330,1.437322,-0.879171,0.019997,0.060677
01330,1.734686,-9.260193,1.855775,-0.881737,-0.010964,0.077783
01331,2.318940,-8.998452,2.789104,-0.796688,0.017130,0.047605
01332,2.340097,-9.287948,3.795484,-0.537411,0.160798,-0.041027
01333,1.695648,-9.206890,3.919583,-0.030161,0.252084,-0.168781
01334,1.218940,-8.939945,3.188882,0.462645,0.224804,-0.297835
01335,1.248073,-9.118310,2.510850,0.839146,0.123403,-0.393443
01336,2.066840,-10.239301,1.889678,0.952572,0.070732,-0.431259
01337,2.055403,-10.750100,1.213191,0.846370,0.128840,-0.352691
01338,1.239922,-10.094244,1.770140,0.617420,0.088607,-0.246127
01339,1.167831,-8.302408,2.572606,0.272935,0.040350,-0.172030
01340,0.974551,-7.927642,2.423024,-0.162528,0.096812,-0.093063
01341,0.396745,-8.891848,1.599286,-0.444224,0.074069,0.000261
01342,0.445790,-9.786249,1.221560,-0.556553,-0.042277,0.044487
01343,1.174952,-10.345056,1.448739,-0.538444,-0.116173,0.059061
01344,1.778772,-10.360516,2.233019,-0.356395,-0.091237,0.020700
01345,2.056026,-9.335315,3.601602,-0.115381,-0.028518,-0.068816
01346,1.882045,-7.770008,4.257387,0.107759,0.018167,-0.197045
01347,1.984900,-6.871961,4.719107,0.347933,0.098389,-0.339110
01348,1.751159,-6.968382,4.257243,0.530846,0.177237,-0.468038
01349,1.731787,-7.344096,3.856907,0.891196,0.198503,-0.596105
01350,2.510172,-7.943624,5.467413,1.275021,0.242880,-0.699456
01351,3.302773,-8.117507,6.370472,1.612721,0.383008,-0.866396
01352,3.334925,-9.174843,5.764865,2.048482,0.485915,-1.072422
01353,3.232693,-10.881538,4.314668,2.650327,0.493362,-1.264535
01354,2.777132,-12.359018,2.049524,3.282229,0.467813,-1.403410
01355,1.629713,-12.579415,-0.849365,3.840145,0.438761,-1.502273
01356,0.694731,-10.645947,-1.270354,4.067886,0.357286,-1.345899
01357,0.665477,-7.633360,1.134046,3.716369,0.235995,-0.990396
01358,0.768507,-4.913926,4.031446,2.724629,0.164441,-0.704001
01359,0.469730,-2.614176,5.168137,1.346007,0.100060,-0.605938
01360,0.304365,-2.507507,3.688366,-0.094674,-0.085694,-0.587675
01361,1.210380,-4.798948,2.148164,-1.155099,-0.369097,-0.477955
01362,2.613354,-7.212115,1.709002,-1.851470,-0.582989,-0.320369
01363,2.984915,-8.675359,1.688796,-2.187025,-0.642995,-0.293092
01364,3.060929,-8.661557,3.081693,-2.027938,-0.640928,-0.387629
01365,3.715397,-8.443113,5.999459,-1.801704,-0.526956,-0.443159
01366,3.349156,-8.640675,6.618024,-1.593537,-0.337290,-0.534593
01367,2.599194,-8.829196,6.329374,-1.158273,-0.239830,-0.633382
01368,2.749371,-9.063967,5.938167,-0.730143,-0.222925,-0.660799
01369,3.409152,-9.032344,5.748149,-0.360713,-0.173683,-0.685993
01370,3.750081,-8.765082,5.545924,-0.077369,-0.137440,-0.759787
01371,4.202323,-8.668305,5.084418,0.221617,-0.102633,-0.861790
01372,4.312001,-8.738731,4.515050,0.526099,-0.061521,-0.945142
01373,3.696596,-8.805010,3.660722,0.800373,-0.041306,-1.020127
01374,2.829762,-8.566804,3.045999,1.027708,-0.104209,-1.050651
01375,2.527906,-8.133093,2.804844,1.111309,-0.179466,-1.047955
01376,2.451161,-7.309131,2.899868,1.006685,-0.212990,-1.036576
01377,2.624902,-6.563866,2.941774,0.688177,-0.237317,-1.008794
01378,2.784181,-6.287213,2.758891,0.239280,-0.299630,-0.958407
01379,3.235278,-6.226910,2.614518,-0.247642,-0.428026,-0.896352
01380,3.927097,-6.469322,2.171090,-0.751275,-0.570562,-0.836248
01381,4.783254,-6.799380,2.571619,-1.097950,-0.643254,-0.825419
01382,6.204831,-7.497704,4.896911,-1.350941,-0.535090,-0.769661
01383,6.305137,-8.076208,6.496154,-1.503961,-0.274303,-0.762256
01384,5.348227,-8.143094,7.057031,-1.350431,-0.049901,-0.798175
01385,4.158460,-8.564395,6.308076,-1.089646,0.002264,-0.804835
01386,4.249393,-9.377762,5.717496,-0.614135,-0.034344,-0.846127
01387,5.492891,-10.067838,5.983152,-0.124132,-0.021187,-0.874995
01388,6.080454,-10.455831,5.578560,0.463719,0.083603,-0.978246
01389,5.260679,-10.361997,3.974837,1.248427,0.113681,-1.133255
01390,4.011099,-9.414327,2.494374,2.060574,0.026632,-1.338901
01391,3.608664,-8.527284,2.101891,2.527446,-0.089956,-1.418051
01392,3.786550,-7.915346,2.335841,2.721462,-0.123139,-1.370216
01393,3.756114,-6.402029,2.621946,2.605303,-0.113805,-1.307230
01394,3.268261,-4.640131,2.240463,2.190369,-0.170661,-1.257184
01395,3.455906,-3.745473,1.784369,1.569220,-0.349830,-1.210773
01396,4.986024,-3.890360,1.848715,0.827950,-0.517022,-1.095022
01397,6.519808,-4.274974,2.298260,-0.074109,-0.577183,-0.976264
01398,7.359786,-4.866119,3.542276,-0.839196,-0.590310,-0.902586
01399,8.047058,-5.402436,5.777224,-1.409849,-0.523102,-0.832509
01400,8.011703,-5.487262,7.177390,-1.871176,-0.304725,-0.819278
01401,7.131981,-5.511142,7.650516,-2.167160,-0.088482,-0.820142
01402,6.079831,-6.563259,6.832104,-2.267089,-0.014670,-0.784017
01403,5.736629,-8.104080,5.746584,-1.984671,-0.035587,-0.793652
01404,6.413090,-9.306532,5.177275,-1.490770,-0.067183,-0.836682
01405,7.125363,-9.796531,4.925931,-0.841442,-0.005711,-0.918203
01406,6.967177,-9.673534,4.407684,-0.068907,0.076269,-1.049704
01407,5.907962,-8.893599,3.494878,0.728293,0.087475,-1.187236
01408,5.281709,-7.661890,3.036987,1.352719,0.003118,-1.278458
01409,5.090328,-6.524813,2.529308,1.637478,-0.083927,-1.313416
01410,4.720516,-5.098797,2.200643,1.674826,-0.185366,-1.355905
01411,5.149720,-4.017053,2.469306,1.461939,-0.328353,-1.328585
01412,6.250033,-3.562075,2.932122,1.046461,-0.391464,-1.278181
01413,6.978484,-3.264651,2.992390,0.507480,-0.380803,-1.229775
01414,7.342447,-3.155904,2.895865,-0.002039,-0.425828,-1.224222
01415,7.997589,-3.208056,3.533541,-0.443593,-0.480967,-1.240957
01416,8.567464,-3.527769,4.588363,-0.910476,-0.439602,-1.260562
01417,8.935727,-4.186502,5.781507,-1.228489,-0.275776,-1.262093
01418,8.846293,-5.137984,6.377038,-1.426525,-0.062857,-1.206267
01419,7.763814,-5.800179,5.623648,-1.335400,0.053925,-1.183079
01420,7.146935,-6.847648,4.718624,-0.975598,-0.017374,-1.190585
01421,7.826332,-8.131712,4.258052,-0.469228,-0.121301,-1.211134
01422,8.166674,-9.092696,3.526082,0.095026,-0.142864,-1.272549
01423,7.223115,-8.747370,2.158898,0.773514,-0.174932,-1.358472
01424,6.625269,-7.979331,1.532354,1.391720,-0.286230,-1.378870
01425,6.446583,-6.915397,1.455979,1.623697,-0.403255,-1.380026
01426,6.168761,-5.578771,0.651948,1.634613,-0.515919,-1.375415
01427,6.067227,-4.164046,-0.121842,1.529747,-0.660857,-1.353802
01428,6.639249,-3.087178,-0.169237,1.232719,-0.812762,-1.276545
01429,7.327674,-2.280114,0.081942,0.701139,-0.928160,-1.174460
01430,7.894829,-1.306757,0.394129,0.056642,-1.049615,-1.120862
01431,8.829854,-0.457494,0.870656,-0.646125,-1.179923,-1.060977
01432,9.549645,0.453747,2.182977,-1.426503,-1.226224,-1.054517
01433,10.007268,0.728942,4.616332,-2.213301,-1.162717,-1.083646
01434,10.690273,-0.218142,7.388410,-2.881589,-0.928383,-1.086226
01435,11.013620,-1.924438,8.743378,-3.345700,-0.510295,-1.061144
01436,9.698657,-3.972485,6.893533,-3.424537,-0.182974,-1.022947
01437,8.038246,-6.396471,3.795017,-2.953096,-0.214809,-1.007598
01438,8.597618,-8.620228,1.860806,-2.130268,-0.430308,-1.050938
01439,10.293405,-9.749884,1.920202,-1.306902,-0.441641,-1.129786
01440,10.893083,-9.316057,2.706400,-0.511823,-0.263725,-1.169728
01441,10.125444,-8.075188,2.836663,0.278434,-0.120937,-1.209156
01442,9.046381,-6.558733,2.236339,0.918086,-0.105431,-1.256667
01443,8.138695,-5.305782,1.207050,1.196439,-0.242009,-1.293372
01444,7.839198,-4.027971,0.105370,1.216081,-0.431250,-1.323990
01445,8.089377,-3.003561,-0.397020,1.042327,-0.556810,-1.284851
01446,8.569666,-2.320879,-0.069891,0.731659,-0.640155,-1.168536
01447,8.961368,-1.863144,0.396379,0.289818,-0.675997,-1.055981
01448,9.061608,-1.672794,0.404719,-0.145984,-0.727733,-0.984859
01449,9.348279,-1.576082,1.024177,-0.451153,-0.782761,-0.956257
01450,10.314616,-1.859911,3.420000,-0.657066,-0.704371,-0.922779
01451,11.060496,-2.508251,5.910663,-0.876722,-0.415525,-0.875008
01452,10.351226,-2.584715,6.436785,-1.016393,-0.108342,-0.916071
01453,9.058734,-3.038808,4.394866,-0.906646,-0.039579,-0.942468
01454,8.864707,-4.370254,2.515798,-0.503464,-0.142656,-0.945604
01455,10.620824,-5.587633,2.904908,-0.012882,-0.135523,-0.939793
01456,11.660957,-5.865689,4.078416,0.358992,0.131821,-0.931912
01457,10.804064,-4.771671,4.351112,0.751876,0.358691,-0.948011
01458,10.025884,-3.654120,3.792122,1.142716,0.381876,-0.962225
01459,10.067776,-3.127304,3.102074,1.411411,0.346029,-0.967166
01460,9.713825,-2.989115,1.923890,1.510941,0.324223,-0.989522
01461,8.140599,-2.482901,-0.269722,1.524860,0.172014,-1.038933
01462,7.100599,-1.408402,-2.305822,1.551837,-0.126823,-1.066532
01463,7.954695,-0.894142,-2.405314,1.430801,-0.389155,-0.987408
01464,9.369782,-0.757661,-0.778145,1.046742,-0.466390,-0.842142
01465,10.011447,-0.488444,0.620653,0.515070,-0.428054,-0.715302
01466,9.713609,0.157847,1.377798,0.011951,-0.420899,-0.621697
01467,9.556872,0.299592,1.692029,-0.434630,-0.457531,-0.544880
01468,9.873968,0.086560,2.320230,-0.789738,-0.447776,-0.507963
01469,10.078507,-0.249877,3.127268,-0.999002,-0.372591,-0.531023
01470,10.527479,-0.524467,4.458791,-1.016645,-0.231112,-0.568512
01471,10.784064,-1.062466,5.117575,-0.933783,-0.010639,-0.586947
01472,9.603451,-1.673634,4.058742,-0.702803,0.094667,-0.628230
01473,9.032911,-2.060292,2.712237,-0.281745,-0.008830,-0.682576
01474,10.527959,-3.006870,2.205788,0.138695,-0.078116,-0.691140
01475,11.374159,-3.787041,2.286160,0.551597,0.018050,-0.694599
01476,10.668502,-3.672051,2.044970,0.892394,0.068287,-0.709668
01477,9.805027,-3.364119,0.948742,1.206009,-0.049619,-0.686193
01478,8.489241,-2.581084,-1.399409,1.335001,-0.279333,-0.674262
01479,8.105180,-1.295098,-3.429020,1.324216,-0.523942,-0.631939
01480,8.642949,-0.458786,-2.897929,1.151157,-0.632358,-0.437957
01481,9.158095,0.017744,-1.169426,0.712600,-0.686480,-0.237180
01482,9.355959,0.084277,0.510406,0.200765,-0.698724,-0.061399
01483,9.186105,-0.047643,1.329850,-0.243138,-0.703538,0.043041
01484,8.868267,-0.040351,1.493759,-0.517325,-0.711342,0.082798
01485,9.009072,-0.171518,1.665684,-0.607706,-0.759163,0.106510
01486,9.991126,-0.416375,2.286533,-0.529589,-0.729164,0.104573
01487,10.902562,-0.538811,3.312653,-0.360877,-0.570274,0.041675
01488,10.828941,-0.307087,3.864635,-0.178617,-0.396998,-0.067649
01489,10.235917,0.183852,3.353439,0.021705,-0.325221,-0.199457
01490,10.147562,0.354110,2.521384,0.232534,-0.310458,-0.303683
01491,10.344751,0.513107,1.945979,0.376673,-0.267312,-0.401585
01492,10.391851,0.957901,2.027538,0.377954,-0.199633,-0.458467
01493,10.546757,1.308786,2.128490,0.262057,-0.137070,-0.487663
01494,10.614158,1.625253,2.036656,0.070501,-0.057060,-0.509601
01495,10.180907,1.746167,1.406422,-0.186012,-0.005173,-0.547828
01496,9.759510,1.635766,0.669767,-0.418147,-0.017346,-0.584459
01497,9.741701,1.406821,0.422852,-0.599562,-0.042251,-0.606419
01498,9.891582,1.108213,0.674365,-0.767776,-0.039896,-0.598150
01499,9.811517,0.628457,0.849032,-0.941110,-0.044296,-0.599360
01500,9.460102,0.141117,0.768437,-1.064046,-0.081832,-0.586032
01501,9.347260,-0.439956,0.244109,-1.087018,-0.180410,-0.542105
01502,9.503220,-1.288830,-0.290572,-0.991918,-0.264919,-0.475854
01503,9.706907,-1.800673,-0.189037,-0.799219,-0.322882,-0.413886
01504,9.980595,-1.915034,0.688335,-0.561756,-0.309653,-0.352142
01505,10.379251,-1.593080,2.231358,-0.333016,-0.230655,-0.312844
01506,10.397207,-0.940004,3.243467,-0.209354,-0.099613,-0.313248
01507,10.065900,-0.247103,3.263458,-0.149452,-0.027116,-0.326782
01508,9.974791,0.116169,2.350369,-0.093098,-0.000040,-0.336487
01509,9.912753,0.296703,1.463027,-0.018777,0.041029,-0.355049
01510,10.135928,0.682201,1.390587,0.042771,0.090145,-0.359323
01511,10.598711,0.671970,1.846246,0.017106,0.175726,-0.343777
01512,10.612719,0.339810,2.062823,-0.070233,0.270557,-0.323155
01513,10.378498,0.117512,1.764970,-0.137247,0.309025,-0.308241
01514,10.201528,-0.063685,1.230670,-0.140133,0.310088,-0.303137
01515,9.957257,-0.208928,0.423559,-0.066657,0.282268,-0.314974
01516,9.405716,0.068889,-0.285117,0.027272,0.225492,-0.316989
01517,9.186281,0.749099,-0.635472,0.030372,0.118660,-0.299375
01518,9.484323,0.929296,-0.476010,-0.085852,0.024696,-0.248806
01519,9.598902,0.510921,-0.249762,-0.222838,-0.004280,-0.224231
01520,9.380895,0.066455,-0.055309,-0.313127,-0.040178,-0.195297
01521,9.176210,-0.199691,-0.036568,-0.315490,-0.104533,-0.168970
01522,9.041725,-0.299922,-0.020848,-0.232578,-0.177721,-0.146398
01523,9.262199,-0.164197,0.172461,-0.089091,-0.223173,-0.134688
01524,9.654846,0.139047,0.727143,0.063327,-0.212282,-0.139569
01525,9.735944,0.713729,1.307818,0.162245,-0.188992,-0.172666
01526,9.916550,1.090790,1.594257,0.165857,-0.181889,-0.189750
01527,9.996957,1.162754,1.648947,0.128101,-0.156354,-0.186982
01528,10.192869,1.275021,1.551101,0.058744,-0.124841,-0.187412
01529,10.320573,1.132678,1.448970,-0.034578,-0.062749,-0.189629
01530,10.249773,0.883810,1.415327,-0.073716,-0.012152,-0.172523
01531,10.124670,0.629797,1.251589,-0.060471,0.008779,-0.176507
01532,9.982996,0.343034,0.967532,-0.015384,0.015937,-0.174996
01533,9.644663,0.330895,0.572280,0.033651,0.002685,-0.168869
01534,9.548717,0.660818,0.335746,0.071904,-0.042679,-0.153539
01535,9.524383,0.947073,0.455162,0.029830,-0.075284,-0.128544
01536,9.547259,0.973914,0.606481,-0.054152,-0.096957,-0.096779
01537,9.553580,0.745907,0.710287,-0.121813,-0.102009,-0.062518
01538,9.478294,0.631033,0.753956,-0.148141,-0.115635,-0.039147
01539,9.531900,0.619964,0.744616,-0.140634,-0.117317,-0.029806
01540,9.557164,0.631768,0.781752,-0.111234,-0.118641,-0.014636
01541,9.680313,0.722519,0.900835,-0.086844,-0.116442,-0.010905
01542,9.781170,0.856775,0.997297,-0.069923,-0.102159,-0.004331
01543,9.883675,0.905883,1.087891,-0.087008,-0.088135,0.004394
01544,9.846099,0.974908,1.072719,-0.108786,-0.073485,0.009390
01545,9.864401,0.861614,1.044523,-0.140536,-0.067789,0.011638
01546,9.916725,0.748441,1.011239,-0.159668,-0.063498,0.024936
01547,9.960109,0.596860,0.915449,-0.156473,-0.057923,0.042043
01548,9.983451,0.546289,0.933816,-0.144653,-0.047452,0.058001
01549,9.966662,0.468888,0.916675,-0.127600,-0.037003,0.069067
01550,9.947827,0.516512,0.912289,-0.108188,-0.028633,0.087572
01551,9.962529,0.606448,0.907199,-0.083754,-0.021860,0.089808
01552,9.968767,0.662901,0.952143,-0.065334,-0.008156,0.096557
01553,9.964803,0.766859,0.943709,-0.055975,0.003180,0.095253
01554,9.924797,0.773254,0.912708,-0.061109,0.012770,0.104132
01555,9.916232,0.725610,0.851888,-0.060358,0.019930,0.112230
01556,9.829931,0.726651,0.860062,-0.059391,0.027210,0.115236
01557,9.838977,0.790188,0.818444,-0.056376,0.026204,0.115658
01558,9.790255,0.761883,0.838324,-0.059872,0.030774,0.121011
01559,9.765736,0.781837,0.798552,-0.057386,0.033320,0.127149
01560,9.778709,0.772371,0.770158,-0.058958,0.033413,0.125419
01561,9.782422,0.813648,0.799142,-0.054341,0.032308,0.127615
01562,9.845077,0.778120,0.749774,-0.059541,0.031629,0.124305
01563,9.895383,0.739179,0.732492,-0.069960,0.030977,0.125902
01564,9.961004,0.589363,0.691422,-0.078334,0.039654,0.121477
01565,9.923832,0.353873,0.658191,-0.077008,0.043240,0.123908
01566,9.778254,0.344895,0.625004,-0.046201,0.031779,0.136673
01567,9.809888,0.403576,0.609405,-0.027952,0.004729,0.143395
01568,9.797848,0.343545,0.637293,-0.021647,-0.000321,0.151861
01569,9.754985,0.333811,0.583162,-0.018492,-0.017450,0.167116
01570,9.804646,0.248254,0.555359,-0.009472,-0.032834,0.178666
01571,9.798712,0.205932,0.510287,0.004100,-0.026975,0.199474
01572,9.791313,0.278540,0.569445,0.025138,-0.033157,0.212128
01573,9.755497,0.488779,0.668132,0.042032,-0.033704,0.209465
01574,9.677567,0.708480,0.825182,0.026489,-0.035168,0.201055
01575,9.629277,0.830907,0.834517,-0.007611,-0.045069,0.191180
01576,9.620670,0.893697,0.870972,-0.043213,-0.054412,0.181113
01577,9.611920,0.801070,0.910022,-0.067954,-0.062227,0.167509
01578,9.642514,0.805430,0.973307,-0.083160,-0.063361,0.148822
01579,9.723604,0.751741,0.919965,-0.089039,-0.066700,0.129310
01580,9.780913,0.735698,0.935608,-0.096591,-0.057346,0.104368
01581,9.866067,0.625594,0.916157,-0.097418,-0.047917,0.082961
01582,9.879196,0.621032,0.879863,-0.085018,-0.048187,0.057862
01583,9.912710,0.573395,0.865387,-0.081964,-0.046210,0.033586
01584,9.930172,0.512976,0.862209,-0.073794,-0.039551,0.014867
01585,9.907422,0.473449,0.827490,-0.062284,-0.037230,-0.002532
01586,9.855391,0.489208,0.824862,-0.063672,-0.028216,-0.008547
01587,9.792357,0.470255,0.759525,-0.065404,-0.023999,-0.008088
01588,9.768077,0.390465,0.721708,-0.070737,-0.016248,-0.012118
01589,9.809449,0.340452,0.657045,-0.065010,-0.005970,-0.009841
01590,9.783916,0.333276,0.609237,-0.054961,-0.002189,-0.012407
01591,9.841047,0.371952,0.635202,-0.056018,0.003802,-0.010741
01592,9.876262,0.414116,0.635424,-0.066947,0.010658,-0.007826
01593,9.850644,0.406323,0.589484,-0.079652,0.017481,-0.001535
01594,9.854200,0.417202,0.612487,-0.095527,0.011988,0.004815
01595,9.951471,0.361392,0.570542,-0.111523,0.006092,0.009584
01596,9.942988,0.294071,0.523795,-0.120274,0.001831,0.024225
