// Start Time: Unknown
// Update Rate: 100.0Hz
// Filter Profile: human (46.1)
// Firmware Version: 4.3.5
PacketCounter,Acc_X,Acc_Y,Acc_Z,Gyr_X,Gyr_Y,Gyr_Z
00028,9.769533,-1.956253,2.448403,-0.000463,0.048909,-0.000755
00029,9.694676,-1.847172,2.464726,-0.060505,0.070888,0.033891
00030,9.562379,-1.826931,2.417975,-0.133150,0.083205,0.063402
00031,9.404437,-1.889326,2.402630,-0.187846,0.092983,0.099285
00032,9.291501,-1.975426,2.353903,-0.223610,0.097559,0.123227
00033,9.191383,-2.109261,2.315146,-0.228846,0.100895,0.142420
00034,9.086684,-2.147359,2.247023,-0.206121,0.094067,0.152359
00035,9.010500,-2.143077,2.210640,-0.172224,0.081391,0.151540
00036,9.074255,-2.174754,2.173817,-0.127757,0.068127,0.136772
00037,9.150189,-2.130360,2.216972,-0.090955,0.057060,0.106801
00038,9.156706,-2.089553,2.202370,-0.054772,0.048480,0.073656
00039,9.076956,-2.020112,2.177247,-0.042033,0.036056,0.035432
00040,9.086540,-2.030899,2.126229,-0.033880,0.021203,-0.010272
00041,9.042310,-2.097651,2.106922,-0.019439,0.003651,-0.052660
00042,9.041311,-2.194765,2.111578,0.005922,-0.016921,-0.089661
00043,9.093716,-2.301093,2.105157,0.040349,-0.034106,-0.129518
00044,9.089039,-2.367242,2.102548,0.087387,-0.063377,-0.155889
00045,9.137155,-2.413661,2.106283,0.131455,-0.083604,-0.177727
00046,9.170411,-2.484886,2.122240,0.177502,-0.101868,-0.196792
00047,9.290571,-2.487891,2.199923,0.230455,-0.122469,-0.209428
00048,9.395316,-2.435680,2.185867,0.272244,-0.134441,-0.216796
00049,9.457725,-2.398474,2.267480,0.296468,-0.140660,-0.216771
00050,9.537364,-2.392777,2.301373,0.312488,-0.144513,-0.205121
00051,9.661191,-2.347335,2.336707,0.304623,-0.136168,-0.196152
00052,9.731514,-2.260433,2.399229,0.284081,-0.128030,-0.171952
00053,9.742495,-2.171182,2.449603,0.233094,-0.109473,-0.144239
00054,9.803159,-2.171678,2.514569,0.186089,-0.094180,-0.106707
00055,9.813233,-2.254450,2.540366,0.133550,-0.072246,-0.075951
00056,9.807805,-2.296540,2.556305,0.105183,-0.051330,-0.031562
00057,9.724527,-2.275734,2.625731,0.080746,-0.028166,0.011605
00058,9.630843,-2.176335,2.724728,0.068600,-0.003423,0.054200
00059,9.642194,-1.946758,2.910263,0.036246,0.021732,0.076581
00060,9.726082,-1.711587,2.940776,-0.058238,0.077030,0.106328
00061,9.657836,-1.419024,2.889773,-0.208728,0.142075,0.115373
00062,9.626289,-1.353439,2.960355,-0.372653,0.199004,0.122626
00063,9.695242,-1.659612,3.020566,-0.540801,0.269540,0.137211
00064,9.614420,-2.027193,2.928052,-0.661735,0.337236,0.146637
00065,9.458117,-2.070434,2.988621,-0.768065,0.380791,0.159826
00066,9.453474,-2.200050,3.059647,-0.854896,0.409337,0.169430
00067,9.503644,-3.275225,2.895372,-0.779792,0.440329,0.161657
00068,9.475643,-4.538154,2.513329,-0.446394,0.454324,0.155277
00069,9.337363,-5.097562,2.364525,0.059500,0.447653,0.155453
00070,9.314790,-5.322958,2.251709,0.628201,0.423097,0.145131
00071,9.377773,-5.139189,2.214074,1.186557,0.394230,0.151863
00072,9.339646,-4.467716,2.360298,1.641050,0.358303,0.171057
00073,9.354972,-3.606321,2.531443,1.923586,0.313431,0.197438
00074,9.384226,-2.756846,2.783821,2.048617,0.272338,0.229858
00075,9.441536,-2.024447,3.094467,2.016797,0.254480,0.261949
00076,9.493293,-1.069223,3.559838,1.848675,0.273665,0.273231
00077,9.538507,-0.221675,3.905377,1.474357,0.328171,0.274408
00078,9.451418,0.265010,3.951662,0.946882,0.399923,0.284895
00079,9.387801,0.409896,3.912769,0.327280,0.492824,0.275131
00080,9.240503,0.166430,3.678652,-0.304514,0.570990,0.254687
00081,9.149669,-0.317423,3.530253,-0.844867,0.627261,0.233046
00082,9.088507,-0.853897,3.466222,-1.278191,0.663562,0.227472
00083,9.109243,-2.005572,3.260728,-1.538802,0.682209,0.242403
00084,9.038190,-3.676947,2.862794,-1.519756,0.699168,0.276683
00085,8.495325,-5.712247,1.644423,-1.187562,0.617810,0.358656
00086,7.691784,-7.565792,0.997592,-0.430581,0.439144,0.461181
00087,7.361940,-9.077153,0.939067,0.683324,0.156321,0.563461
00088,8.025206,-9.541257,2.010039,2.144816,-0.150466,0.639688
00089,9.048428,-8.643935,2.574341,3.505716,-0.341158,0.717913
00090,9.495396,-7.294249,2.621970,4.722099,-0.432079,0.807176
00091,9.703452,-5.169385,2.750829,5.549527,-0.513210,0.897948
00092,10.090739,-2.648689,3.012685,5.879076,-0.540531,0.989768
00093,10.461350,-0.055686,4.298897,5.637336,-0.442606,1.003645
00094,10.440667,2.271827,5.613504,4.824813,-0.212690,0.945230
00095,10.043270,4.079345,6.523196,3.573305,0.089741,0.839940
00096,9.230327,5.306183,6.439246,1.926651,0.378926,0.676722
00097,8.500124,4.842502,5.152995,0.241049,0.598328,0.482993
00098,8.128111,3.361888,4.048634,-1.129699,0.750851,0.247484
00099,7.929194,0.893831,3.376263,-2.042124,0.824052,0.092798
00100,8.041021,-1.092113,3.656276,-2.433599,0.853838,0.032901
00101,8.283295,-3.075987,3.888208,-2.523654,0.878170,0.043650
00102,8.657059,-5.034847,4.190252,-2.208581,0.885277,0.085906
00103,8.368173,-6.858397,3.128673,-1.689780,0.836898,0.211561
00104,7.823445,-7.934343,2.960008,-0.760715,0.692446,0.351235
00105,7.562923,-8.282846,3.082461,0.247641,0.470087,0.476864
00106,8.209511,-8.284126,3.778727,1.462698,0.229039,0.607561
00107,9.347180,-6.751637,5.332482,2.608980,0.113091,0.674845
00108,9.904423,-4.570635,5.549097,3.312623,0.094683,0.777281
00109,9.644873,-1.984789,5.786495,3.496203,0.127317,0.893271
00110,9.435831,0.058930,6.394120,3.127691,0.236307,0.920891
00111,9.012675,0.838896,6.434883,2.366249,0.387987,0.874170
00112,8.670620,0.883047,6.357585,1.545569,0.518042,0.751028
00113,8.650092,1.402419,6.410996,0.727988,0.684614,0.545053
00114,8.504279,1.695352,5.948154,-0.123016,0.862878,0.348526
00115,8.240061,1.481631,5.165767,-0.919960,1.001380,0.189495
00116,7.905000,0.464798,5.010239,-1.559105,1.097611,0.067976
00117,8.076100,-1.165452,5.401157,-1.941127,1.146105,0.024131
00118,8.520330,-2.468453,6.059046,-2.048897,1.200298,0.006866
00119,8.456070,-3.911246,5.051251,-2.135729,1.196893,0.099841
00120,7.509017,-6.138675,3.665834,-1.881463,1.111744,0.311472
00121,7.105682,-7.788656,4.254104,-1.077560,0.911870,0.451110
00122,7.624044,-8.729236,4.842282,0.121358,0.669182,0.563162
00123,8.713411,-7.942894,5.776551,1.461296,0.458549,0.659993
00124,9.642780,-5.703099,6.123862,2.445803,0.383015,0.770310
00125,9.592413,-3.067738,5.824118,2.846262,0.397467,0.880904
00126,9.010578,-1.112405,5.760448,2.696119,0.461838,0.939296
00127,8.166866,0.112938,6.044165,2.220079,0.565630,0.872728
00128,7.904345,1.118550,6.514702,1.608639,0.642014,0.702312
00129,7.748864,2.140413,7.051638,0.843869,0.790995,0.506498
00130,8.008678,2.684838,7.381677,-0.020317,0.967364,0.299995
00131,7.893145,2.337685,7.122895,-0.924562,1.188587,0.126949
00132,7.126412,0.989722,6.441544,-1.659390,1.320991,-0.012167
00133,6.992512,-0.392747,6.633580,-2.075723,1.366654,-0.146598
00134,7.392037,-2.122152,6.387750,-2.297041,1.408156,-0.246258
00135,7.136740,-4.184270,5.001836,-2.368533,1.371039,-0.178911
00136,6.212769,-6.310913,4.304535,-2.015939,1.231788,-0.030713
00137,5.906829,-8.120917,4.291940,-1.279829,0.971313,0.119162
00138,6.229043,-9.056019,5.022654,-0.079977,0.692127,0.230139
00139,7.152090,-8.432102,5.964789,1.210284,0.434524,0.334927
00140,7.980254,-6.376261,6.277134,2.241397,0.289903,0.446874
00141,8.049436,-3.394946,6.624468,2.713222,0.274982,0.542519
00142,7.374168,-1.152544,6.695482,2.529054,0.328931,0.591857
00143,6.884095,-0.265486,7.034810,2.013327,0.403892,0.551928
00144,6.571407,0.065674,7.437085,1.351529,0.509763,0.395591
00145,6.805762,0.550960,7.917506,0.715181,0.640424,0.198314
00146,7.021820,1.525220,8.532626,-0.007327,0.849123,-0.025529
00147,6.612967,1.528357,7.751205,-0.886404,1.063213,-0.172205
00148,5.983951,0.138332,7.235661,-1.588042,1.202259,-0.285228
00149,6.164120,-1.713555,7.576698,-1.927211,1.273638,-0.403367
00150,6.692718,-3.551568,7.597078,-2.025868,1.320087,-0.448664
00151,6.409858,-5.136830,6.144387,-2.079714,1.285344,-0.314095
00152,5.353053,-7.300524,5.278983,-1.792268,1.150753,-0.091138
00153,5.262998,-8.795153,6.224155,-0.972541,0.920207,0.038135
00154,5.950983,-9.355829,6.976453,0.150701,0.677844,0.156507
00155,6.854341,-8.168359,7.495314,1.250861,0.467515,0.313174
00156,7.395960,-5.743830,7.848847,2.004279,0.395191,0.469616
00157,7.025226,-3.336885,8.134340,2.209617,0.439582,0.582119
00158,6.119656,-2.065590,8.266648,2.017630,0.523584,0.629028
00159,5.314586,-1.425430,8.678914,1.673687,0.595742,0.566599
00160,5.458179,-0.845736,8.997422,1.217260,0.657352,0.457816
00161,5.726756,-0.166780,9.094607,0.674025,0.788374,0.322968
00162,5.980806,0.556736,8.983520,0.052131,0.946451,0.159529
00163,5.871342,0.501095,8.379910,-0.621998,1.108284,0.020248
00164,5.588102,-0.737863,7.901768,-1.173283,1.206011,-0.032204
00165,5.395439,-2.508954,7.962264,-1.482407,1.242236,-0.034613
00166,5.380771,-4.210476,7.593664,-1.481525,1.220047,0.035305
00167,5.091186,-6.032980,7.043361,-1.306189,1.157183,0.155506
00168,4.979952,-7.526788,6.928408,-0.781743,0.996375,0.330936
00169,5.154867,-8.077999,7.681943,0.046817,0.823616,0.472908
00170,5.733150,-7.641974,8.400806,0.932121,0.663109,0.565936
00171,6.255101,-6.125459,8.499425,1.678497,0.567349,0.681690
00172,5.842594,-3.967895,8.739220,2.021263,0.579553,0.782952
00173,5.228831,-2.301721,8.836894,1.946868,0.613016,0.820823
00174,4.702880,-1.217784,8.901338,1.586207,0.685961,0.752001
00175,4.152051,-0.595072,8.691930,1.068382,0.760882,0.636161
00176,3.988140,-0.162549,8.893867,0.555424,0.871255,0.445282
00177,4.027150,0.243944,9.179246,0.020900,1.012920,0.220904
00178,4.093056,0.190534,8.618651,-0.574744,1.147306,0.039869
00179,4.015365,-0.728035,7.952851,-1.110204,1.261625,-0.061351
00180,3.699179,-2.330552,7.681499,-1.442188,1.323385,-0.116123
00181,3.437455,-4.190127,7.390882,-1.521275,1.309481,-0.086665
00182,2.959908,-5.645879,7.082347,-1.323916,1.197997,0.023644
00183,2.418575,-7.220288,6.853094,-0.900385,1.038629,0.162084
00184,2.612752,-8.173512,7.218131,-0.120692,0.787290,0.282745
00185,3.527400,-7.623209,8.335959,0.758749,0.570320,0.344093
00186,4.625301,-6.074376,9.093355,1.461829,0.460151,0.399568
00187,4.680202,-4.176473,9.461113,1.794345,0.485197,0.466728
00188,3.766723,-2.644260,9.631681,1.822577,0.544633,0.495332
00189,2.821958,-1.511125,9.886649,1.614792,0.586029,0.478660
00190,2.296557,-1.035119,9.856186,1.238781,0.629412,0.412573
00191,2.267753,-0.902554,10.138983,0.874406,0.698683,0.265550
00192,2.743125,-0.934761,9.964288,0.496786,0.815496,0.092016
00193,3.019125,-0.753541,9.811205,0.125144,0.939323,-0.070311
00194,3.153016,-0.691995,9.790897,-0.335784,1.050540,-0.203114
00195,3.203475,-1.255095,9.681318,-0.848318,1.123075,-0.255415
00196,2.973642,-2.403301,9.288345,-1.311083,1.130207,-0.200638
00197,2.529575,-4.300258,8.628288,-1.614151,1.043868,-0.024372
00198,2.443669,-6.086854,8.878921,-1.492679,0.917352,0.136873
00199,2.921316,-7.327420,9.138148,-1.002729,0.753133,0.294249
00200,3.437033,-7.843791,9.102161,-0.231040,0.607704,0.440293
00201,3.515194,-7.601664,8.434667,0.613418,0.481232,0.582674
00202,3.017007,-6.839389,8.165920,1.369806,0.387369,0.722256
00203,2.525376,-5.628511,8.146065,1.892144,0.309472,0.815056
00204,2.220823,-4.174366,8.771433,2.208664,0.252761,0.854228
00205,2.043053,-2.746314,9.380298,2.293893,0.240253,0.845568
00206,2.006204,-1.335093,10.210494,2.214294,0.288495,0.783592
00207,1.746324,-0.439366,10.025188,1.893149,0.392732,0.669968
00208,1.560157,0.439826,9.684840,1.524538,0.498349,0.474783
00209,1.551053,1.358971,9.220787,0.935270,0.648675,0.221960
00210,1.599148,1.417728,9.045708,0.227319,0.806130,-0.028073
00211,1.703418,0.945855,9.114957,-0.508241,0.900866,-0.225625
00212,2.019004,-0.487336,9.086690,-1.187008,0.954427,-0.291176
00213,2.115024,-2.489447,8.633034,-1.736213,0.918469,-0.217235
00214,2.023986,-4.900091,8.717349,-1.854403,0.842968,-0.031461
00215,1.925213,-7.102988,9.225249,-1.431826,0.718618,0.125010
00216,1.851127,-8.638042,8.889127,-0.489839,0.549266,0.324342
00217,1.545555,-9.160766,8.483594,0.824437,0.371590,0.507631
00218,1.683122,-8.065467,8.580664,2.177600,0.209901,0.646771
00219,2.115667,-5.348667,9.031141,3.157067,0.153146,0.705384
00220,2.359098,-1.896864,10.028575,3.553276,0.218273,0.703103
00221,2.300332,0.974043,10.767436,3.117729,0.376941,0.650851
00222,2.008822,2.426709,9.983833,2.153562,0.573834,0.559785
00223,1.481439,3.733181,9.726700,1.042406,0.756950,0.360254
00224,1.336383,4.821652,10.325843,-0.134150,0.927642,0.087891
00225,1.932199,4.748818,10.674918,-1.376341,1.128576,-0.127691
00226,2.055861,3.862344,10.571810,-2.563457,1.320619,-0.229143
00227,2.192392,2.539312,10.672191,-3.554170,1.496698,-0.300788
00228,2.240509,0.601130,9.557814,-4.324333,1.636296,-0.320697
00229,1.119772,-1.941576,7.044451,-4.882582,1.672592,-0.200837
00230,-1.181843,-5.704769,4.929168,-4.962734,1.533676,0.085313
00231,-3.008814,-9.762310,5.816476,-3.970913,1.206368,0.292192
00232,-1.945268,-11.913222,8.651928,-2.153876,0.767964,0.303572
00233,0.502484,-11.926943,9.028718,-0.048882,0.408220,0.370820
00234,1.111343,-8.756237,8.715980,1.679157,0.259137,0.511178
00235,0.367239,-5.234333,8.716680,2.599815,0.203518,0.654341
00236,-0.255560,-2.499273,8.941075,2.848919,0.208474,0.622584
00237,-0.625524,-0.150730,9.514482,2.613230,0.222043,0.527916
00238,-0.537776,1.221544,9.909027,1.887901,0.257558,0.436842
00239,-0.079790,1.664261,10.017116,0.986293,0.368836,0.333080
00240,0.247171,2.218781,10.692928,0.067791,0.540674,0.181826
00241,0.340603,2.273905,10.859225,-0.851523,0.720140,0.030813
00242,0.170386,1.696443,10.336949,-1.738989,0.882181,-0.076924
00243,-0.252469,0.151527,9.789700,-2.434319,1.011717,-0.111768
00244,-0.442400,-1.661621,9.831866,-2.795274,1.074239,-0.160047
00245,-0.336106,-2.942484,9.337449,-2.906209,1.070659,-0.162254
00246,-0.734068,-4.167725,7.861571,-3.038484,1.030734,-0.088189
00247,-2.062453,-6.414157,6.382980,-2.854591,0.921544,0.075480
00248,-2.760422,-9.456215,6.580414,-2.066837,0.715324,0.152992
00249,-1.957921,-12.810614,6.822258,-0.390979,0.448647,0.194958
00250,-1.130153,-13.736812,7.041321,1.850284,0.174095,0.259579
00251,-1.528914,-11.674534,6.477327,3.938910,-0.064415,0.424887
00252,-2.121829,-8.564269,6.407097,5.502435,-0.313723,0.590172
00253,-1.207641,-5.229643,6.803895,6.402332,-0.545222,0.668626
00254,-0.096364,-1.989250,7.582220,6.613922,-0.614516,0.718185
00255,0.335110,0.806214,8.914849,6.268707,-0.532645,0.759827
00256,0.369340,3.622492,10.547169,5.515620,-0.354243,0.709821
00257,0.152966,6.715148,11.309043,4.224237,-0.107693,0.559347
00258,-0.277044,9.224941,11.631401,2.489079,0.168688,0.311617
00259,-0.434314,9.712475,10.545350,0.328848,0.469077,0.038946
00260,-0.821216,8.132870,11.030096,-1.446070,0.697063,-0.209314
00261,-0.149044,5.341538,10.995368,-2.802610,0.887336,-0.425628
00262,0.009316,2.100560,9.461600,-3.690698,1.070372,-0.488695
00263,-0.997689,-1.429316,8.131473,-3.990201,1.160659,-0.433864
00264,-2.040360,-5.265569,6.820483,-3.678406,1.089238,-0.332530
00265,-2.648088,-7.757673,7.243769,-2.571905,0.841881,-0.246366
00266,-2.240251,-7.820191,8.286076,-1.275229,0.524513,-0.183036
00267,-1.527642,-6.403238,8.344175,-0.139138,0.286599,-0.043086
00268,-1.369936,-4.733473,8.626959,0.706461,0.164941,0.078556
00269,-1.456269,-2.735109,9.109751,1.151094,0.074862,0.139142
00270,-1.300504,-0.752195,9.735302,1.117713,0.038445,0.150608
00271,-1.070957,1.250638,10.411425,0.636579,0.088447,0.109045
00272,-1.112848,2.836013,10.179361,-0.187214,0.196439,0.054467
00273,-1.186977,4.670804,9.740543,-1.275104,0.323564,-0.083034
00274,-1.134371,5.399176,8.807028,-2.624544,0.520390,-0.234219
00275,-1.147242,4.669026,8.542308,-3.923198,0.702083,-0.368383
00276,-0.505921,4.037373,9.280672,-5.163520,0.849277,-0.459975
00277,0.517014,3.497377,8.551448,-6.488528,1.103037,-0.499564
00278,0.543678,2.053867,6.167129,-7.750218,1.389354,-0.467272
00279,-0.060744,-0.216079,3.664665,-8.760892,1.578936,-0.348389
00280,-1.531332,-4.696368,-1.381512,-9.568446,1.606768,-0.063705
00281,-4.485609,-12.803539,-2.598108,-8.633339,1.501224,0.150158
00282,-5.139096,-18.819752,1.452424,-6.191320,0.936987,0.088498
00283,-2.919611,-19.330877,3.928063,-3.141471,0.166113,0.121223
00284,-1.084842,-13.952828,5.468358,-0.693911,-0.288688,0.309897
00285,-1.153783,-6.588668,7.265299,0.049333,-0.434551,0.522964
00286,-1.916337,-0.685504,7.579447,-0.723078,-0.394958,0.648680
00287,-2.566058,3.227739,7.332708,-2.185848,-0.256017,0.582889
00288,-2.623116,3.960072,6.422536,-4.097057,0.053000,0.399634
00289,-2.167862,2.088541,4.537414,-5.759134,0.329067,0.202372
00290,-1.626918,-0.696300,2.602610,-7.103780,0.673867,0.047549
00291,-1.523474,-3.821593,0.567495,-7.968868,1.055499,-0.026784
00292,-1.696442,-5.661436,-0.159973,-8.476318,1.350804,-0.026807
00293,-2.199228,-5.744944,-0.923577,-9.243716,1.559292,0.034289
00294,-2.915000,-5.764471,-2.325337,-10.347610,1.695687,0.242269
00295,-3.250642,-6.669627,-4.152012,-11.273088,1.739341,0.455886
00296,-4.193925,-10.781777,-7.609488,-11.340857,1.724202,0.495531
00297,-5.887478,-15.617789,-7.282809,-9.952935,1.373304,0.384969
00298,-5.539171,-18.593586,-5.638768,-7.817390,0.881216,0.229027
00299,-3.667720,-19.334535,-4.781976,-5.163425,0.480425,0.057714
00300,-2.550927,-16.639112,-3.629248,-2.915559,0.264119,-0.009547
00301,-2.793746,-12.560227,-2.770573,-1.477155,0.076820,-0.066893
00302,-2.957222,-9.211008,-1.939650,-1.049082,-0.042691,-0.059107
00303,-3.051363,-6.887032,-2.536806,-1.229053,-0.043369,-0.014427
00304,-3.065775,-5.364081,-3.420475,-1.513378,0.011606,-0.003149
00305,-2.739582,-5.923059,-4.645504,-1.926699,0.177423,0.028453
00306,-2.440977,-7.730326,-5.563621,-2.182078,0.384141,0.181226
00307,-2.529657,-8.712297,-5.789220,-2.381950,0.588716,0.380246
00308,-2.950111,-8.109728,-5.536121,-2.734022,0.731652,0.565930
00309,-3.280910,-6.293463,-4.793850,-3.270208,0.784443,0.678541
00310,-3.266697,-5.124833,-5.226968,-4.057996,0.776009,0.719848
00311,-3.297294,-5.142053,-6.275966,-4.722172,0.712280,0.726900
00312,-4.014320,-6.295639,-6.850719,-4.941341,0.612464,0.594779
00313,-4.399810,-9.090786,-7.223193,-4.465967,0.372542,0.393121
00314,-4.041235,-11.304890,-6.913998,-3.142055,0.168915,0.154907
00315,-3.502749,-11.745526,-5.773992,-1.566661,0.083144,-0.059277
00316,-2.574168,-9.611095,-4.591447,-0.314103,0.137561,-0.215389
00317,-2.870048,-7.171780,-5.787585,0.358740,0.418966,-0.379347
00318,-3.701063,-6.504485,-7.594818,0.807782,0.569307,-0.531018
00319,-3.375857,-6.827597,-7.672727,1.173065,0.689483,-0.645363
00320,-2.487222,-6.769773,-6.982571,1.365039,0.859355,-0.679273
00321,-1.993927,-5.486692,-6.082709,1.169095,1.007258,-0.652454
00322,-2.208406,-4.273491,-5.616888,0.564837,1.057662,-0.587052
00323,-2.253081,-3.828998,-5.717935,-0.376431,0.964322,-0.455162
00324,-2.183631,-4.701609,-6.394645,-1.406379,0.825877,-0.264825
00325,-2.425164,-6.465971,-7.161146,-1.961282,0.612847,-0.100006
00326,-2.462240,-7.573444,-6.661544,-1.871177,0.367891,-0.037418
00327,-2.270659,-8.346749,-6.506939,-1.387377,0.207929,-0.016800
00328,-2.129244,-8.357168,-6.280229,-0.610062,0.105214,-0.086284
00329,-2.032668,-8.156820,-6.475626,0.064759,0.129684,-0.144132
00330,-2.425114,-7.188568,-8.309592,0.534141,0.228504,-0.199322
00331,-2.886055,-7.154787,-9.905801,0.818916,0.262486,-0.249288
00332,-2.966876,-7.343696,-9.882138,1.078692,0.274701,-0.281303
00333,-2.652347,-6.601392,-8.826349,1.250280,0.299823,-0.292685
00334,-2.324685,-5.246554,-7.845785,1.048995,0.318257,-0.255341
00335,-2.283154,-4.311616,-6.997249,0.408896,0.275711,-0.171132
00336,-2.287934,-4.305845,-7.151299,-0.446880,0.155520,-0.043911
00337,-2.403185,-4.963006,-8.432482,-1.296032,-0.036145,0.152034
00338,-2.861864,-5.705268,-9.673456,-1.907139,-0.329240,0.344285
00339,-3.177178,-6.504063,-10.277491,-2.176984,-0.679476,0.491468
00340,-2.912251,-6.758721,-9.588263,-1.777863,-0.982048,0.415818
00341,-2.544343,-7.315131,-9.233667,-0.946503,-1.127370,0.200050
00342,-2.733736,-8.251485,-9.550987,0.303617,-1.196155,-0.085607
00343,-3.286867,-8.675914,-10.518965,1.812687,-1.215413,-0.476565
00344,-3.912361,-10.116992,-12.233808,3.296170,-1.272108,-0.847931
00345,-4.544137,-11.685059,-12.626959,5.022572,-1.471460,-1.260114
00346,-4.127328,-11.598340,-11.742881,6.844390,-1.688411,-1.616421
00347,-3.611071,-10.096496,-10.218125,8.191917,-1.854497,-1.848385
00348,-2.629024,-9.633779,-7.294166,8.791355,-2.010602,-1.844411
00349,-1.603154,-9.046869,-4.718135,8.793433,-1.918232,-1.574006
00350,-1.936734,-5.413627,-3.106235,8.070917,-1.734365,-1.191015
00351,-1.837741,-2.728888,-0.594262,6.499609,-1.575389,-0.739526
00352,-0.940960,-1.388554,0.247155,4.336044,-1.213719,-0.261397
00353,-0.781073,-2.282858,1.424326,1.960254,-0.756562,0.248053
00354,-1.135264,-3.589955,1.889475,-0.046595,-0.331775,0.652608
00355,-1.776289,-5.298411,0.904960,-1.702803,0.052573,0.883488
00356,-2.584761,-8.012302,-0.374450,-2.642705,0.317480,0.962697
00357,-2.845699,-12.117253,-2.906972,-2.373161,0.476289,0.838588
00358,-3.279407,-15.881796,-3.698343,-0.899102,0.500277,0.581025
00359,-3.089191,-16.345582,-3.398960,1.269914,0.380803,0.274867
00360,-3.335214,-13.632079,-4.559435,3.327941,0.372728,-0.072138
00361,-6.018114,-12.532233,-5.727737,5.476774,0.176678,-0.589077
00362,-5.893710,-14.147618,-4.470686,7.553846,-0.283593,-1.023181
00363,-2.975337,-14.346170,-3.547441,9.632506,-0.574239,-1.285427
00364,-0.781565,-11.455760,-1.140348,11.176979,-0.721920,-1.260016
00365,-0.239312,-6.850803,1.083338,11.650148,-0.787578,-1.027095
00366,-1.011072,-2.858199,2.038297,10.977336,-0.828658,-0.719138
00367,-1.291768,-0.710241,4.044489,9.427956,-0.750672,-0.317650
00368,-1.180393,-0.704523,4.992234,7.311720,-0.535197,0.017604
00369,-0.791183,-1.950321,5.568713,5.310238,-0.292291,0.174227
00370,-0.554158,-3.351942,5.828165,3.604073,-0.013110,0.259616
00371,-1.039415,-4.317924,5.533545,2.333550,0.186822,0.228720
00372,-2.162698,-5.185594,4.586371,1.350989,0.280368,0.197273
00373,-3.647754,-7.926048,3.176570,1.266533,0.291571,0.020170
00374,-4.137603,-10.886003,4.213710,2.137009,0.121320,-0.175573
00375,-3.365224,-12.669007,5.042148,3.543710,-0.234661,-0.279569
00376,-2.010887,-11.919248,5.325192,5.040728,-0.605536,-0.233986
00377,-1.224328,-9.190300,5.480287,6.020534,-0.827684,-0.059529
00378,-1.345285,-6.158114,5.601894,6.220052,-0.983217,0.186444
00379,-1.225410,-4.218129,5.662165,5.950835,-1.036920,0.394445
00380,-0.920179,-3.738248,6.611802,5.657491,-0.888462,0.531801
00381,-1.007971,-3.743026,7.541979,5.305948,-0.672229,0.634716
00382,-1.989941,-4.213257,7.008075,5.022859,-0.576201,0.757883
00383,-2.914317,-4.193561,6.359903,4.786736,-0.604411,0.815541
00384,-2.824378,-3.757248,7.130315,4.934741,-0.701164,0.719656
00385,-1.594814,-2.123980,8.465597,5.211892,-0.820516,0.603735
00386,-0.818780,-0.643972,8.972250,5.307802,-0.822084,0.542210
00387,-1.048099,-0.563220,8.137073,5.407935,-0.774134,0.485277
00388,-0.809995,-1.769204,6.762070,5.706637,-0.687518,0.371132
00389,-1.306245,-3.469394,6.678745,6.622579,-0.585036,0.211272
00390,-1.142219,-2.253301,7.434437,7.638271,-0.827032,0.122272
00391,-0.007056,0.458398,7.796732,8.187914,-0.787502,0.090686
00392,-0.389136,3.169158,7.588228,8.183794,-0.640204,0.124250
00393,-0.800242,5.420930,7.740637,7.721784,-0.474670,0.185928
00394,-1.073565,7.339401,7.666088,6.901446,-0.320921,0.189731
00395,-1.249712,9.674074,7.447852,5.774380,-0.258648,0.171782
00396,-1.096405,11.068789,8.402147,4.332174,-0.124086,0.050976
00397,-0.983654,11.500931,9.133960,2.822764,-0.024490,-0.104703
00398,-1.017683,12.516718,10.013952,1.162983,0.010037,-0.226397
00399,-0.770405,12.672582,10.365736,-0.834935,0.103190,-0.308273
00400,-0.908584,10.320216,9.701509,-2.752633,0.258535,-0.343292
00401,-1.189820,5.099734,8.161155,-3.968355,0.407116,-0.319337
00402,-1.855880,-1.680341,7.593392,-3.575890,0.470389,-0.243651
00403,-1.177302,-6.190352,8.045294,-1.811790,0.285990,-0.125015
00404,-0.070040,-7.609898,7.962833,0.678098,0.095363,0.095253
00405,0.187195,-5.167274,8.259139,3.039604,-0.070955,0.436910
00406,0.173878,-0.158200,8.964966,4.461331,-0.116184,0.802923
00407,0.040793,4.550496,9.631856,4.618090,0.020185,1.051494
00408,-0.685594,7.600561,7.987378,3.848899,0.164899,1.150611
00409,-1.947400,8.848332,7.318962,2.831334,0.253395,1.066212
00410,-1.893126,10.052082,7.965297,1.896942,0.238262,0.829576
00411,-1.685163,11.472335,9.039049,0.916143,0.247173,0.523524
00412,-1.913332,12.433282,9.904984,-0.176244,0.275459,0.214112
00413,-1.854929,12.308326,9.933758,-1.382086,0.310954,-0.078927
00414,-1.707581,11.021331,9.586801,-2.501186,0.345766,-0.331022
00415,-1.507369,8.914894,8.881475,-3.494824,0.367470,-0.548017
00416,-2.215301,4.353328,7.387355,-4.081922,0.372292,-0.543554
00417,-2.477072,-0.655276,7.466487,-3.597520,0.241989,-0.424861
00418,-1.044585,-3.701453,8.110913,-2.046508,0.074373,-0.300265
00419,0.135970,-4.037742,8.127079,-0.150906,-0.062421,-0.061887
00420,0.211041,-2.140432,7.807264,1.447179,-0.159070,0.263356
00421,0.009395,0.816047,7.493221,2.423106,-0.189128,0.543353
00422,-0.586532,4.106442,6.938213,2.664175,-0.196844,0.684821
00423,-1.252511,6.293952,6.584978,2.361097,-0.169892,0.702719
00424,-1.373580,7.770887,6.847233,1.834962,-0.153295,0.619742
00425,-1.265168,9.603834,7.978077,1.140265,-0.123784,0.425530
00426,-1.234010,10.977667,8.576862,0.131043,-0.062026,0.175308
00427,-1.465983,11.406580,8.997352,-1.091228,-0.005090,-0.084236
00428,-1.511758,11.104488,9.412797,-2.278872,0.044674,-0.351351
00429,-0.782254,10.431119,9.341644,-3.359338,0.105287,-0.648797
00430,-0.355183,9.477371,8.709936,-4.344159,0.205410,-0.922066
00431,-0.248394,8.414995,7.760733,-5.373724,0.259889,-1.138768
00432,-0.912682,3.793936,5.190165,-6.515904,0.310714,-1.061858
00433,-2.361745,-2.261653,5.138273,-6.484027,0.211835,-0.858133
00434,-1.826864,-7.474910,5.654763,-5.326141,-0.013417,-0.650774
00435,-0.820071,-11.183599,6.263521,-2.970417,-0.279887,-0.340889
00436,0.215605,-9.818441,7.378866,-0.122869,-0.653125,-0.017422
00437,0.980987,-5.126451,7.788863,2.081078,-0.814979,0.317339
00438,0.730174,-1.016740,7.864238,3.113685,-0.808264,0.616990
00439,0.142177,1.638501,7.529247,3.250792,-0.734841,0.821807
00440,-1.068833,3.249166,7.715891,2.909864,-0.647759,0.889394
00441,-1.184148,4.846336,8.190081,2.351457,-0.602049,0.792626
00442,-0.863233,7.790597,9.307014,1.500917,-0.526477,0.573758
00443,-0.937271,10.384421,10.382890,0.156730,-0.374720,0.292905
00444,-0.964519,10.720850,10.537394,-1.479708,-0.194000,-0.010836
00445,-0.969508,8.885409,10.270047,-2.882202,-0.092539,-0.244175
00446,-0.391050,6.876348,10.319230,-3.833767,-0.053742,-0.484193
00447,0.318354,5.037342,9.945638,-4.427031,-0.008954,-0.682422
00448,0.647269,3.502069,9.235054,-4.869072,0.051577,-0.830718
00449,0.134295,0.380149,6.566934,-5.441938,0.082803,-0.781704
00450,-1.801572,-4.751648,4.677753,-5.279332,0.004748,-0.488607
00451,-2.838456,-8.804517,5.663640,-3.895580,-0.303302,-0.307513
00452,-1.201027,-10.968528,7.350628,-1.466908,-0.710994,-0.165412
00453,1.046036,-9.313382,9.029544,1.180546,-1.013816,0.098548
00454,1.706275,-5.150790,9.380786,3.071177,-1.123274,0.475542
00455,0.784773,-0.470082,9.108583,3.885082,-1.122263,0.737285
00456,-0.305073,2.292625,9.107084,3.721022,-1.029862,0.791840
00457,-0.532045,3.589887,9.413111,3.085346,-0.965777,0.686254
00458,0.172303,5.891152,10.533702,2.248798,-0.885714,0.479818
00459,0.631443,8.583703,11.830007,0.897036,-0.700945,0.247065
00460,0.449322,9.457416,12.052305,-0.764966,-0.458092,-0.020547
00461,0.127794,8.135851,11.396818,-2.363517,-0.266310,-0.256144
00462,0.086459,5.570040,10.757557,-3.481001,-0.187133,-0.460730
00463,0.670464,3.154575,10.335560,-4.060579,-0.134270,-0.679335
00464,0.979041,1.014510,9.315580,-4.378035,-0.117484,-0.805362
00465,0.366729,-1.480727,7.624138,-4.494246,-0.160784,-0.771461
00466,-0.308182,-3.914066,6.890805,-4.273648,-0.285397,-0.679806
00467,-0.601770,-6.557312,6.326067,-3.481366,-0.505223,-0.549024
00468,-0.210085,-7.658265,7.359093,-2.221911,-0.804792,-0.413367
00469,0.992053,-7.587831,8.136029,-0.874878,-1.080162,-0.214395
00470,1.662117,-6.210115,8.601013,0.323222,-1.225713,-0.009148
00471,1.485030,-4.044275,8.930080,1.141488,-1.272140,0.147351
00472,1.068452,-2.188706,8.848057,1.456069,-1.282159,0.214435
00473,0.778721,-0.911195,9.055334,1.406080,-1.262473,0.228216
00474,0.903191,0.836891,9.937188,1.122102,-1.210111,0.129175
00475,1.166666,3.024961,10.693720,0.459528,-1.089186,-0.036567
00476,1.309570,4.791695,11.268181,-0.563912,-0.930084,-0.205081
00477,1.403472,5.154340,11.198023,-1.843483,-0.730890,-0.393722
00478,1.672948,3.638395,10.776415,-2.948793,-0.526736,-0.598763
00479,2.345380,1.087512,10.247642,-3.622633,-0.370395,-0.818391
00480,2.670708,-1.505478,8.706003,-3.967224,-0.287590,-0.943053
00481,1.775183,-4.295763,6.803040,-3.871491,-0.300845,-0.922138
00482,0.344284,-6.856086,6.024477,-3.278760,-0.477085,-0.820102
00483,0.165121,-8.912636,6.950682,-2.081560,-0.793132,-0.715865
00484,1.064668,-10.507657,7.583003,-0.559789,-1.133207,-0.522749
00485,2.573334,-10.360445,9.101771,1.203189,-1.411497,-0.339186
00486,3.895070,-8.883615,8.732721,2.645634,-1.584865,-0.094062
00487,3.967430,-6.533769,8.078383,3.661277,-1.685563,0.188374
00488,3.838526,-3.639501,8.757311,4.227777,-1.718906,0.380542
00489,3.763123,-0.825018,9.779671,4.181381,-1.634825,0.468271
00490,3.521186,1.307817,10.372698,3.721973,-1.487033,0.486616
00491,3.357465,3.827532,11.375808,2.917569,-1.275574,0.380556
00492,2.990926,6.026284,11.791061,1.645879,-1.022935,0.211225
00493,2.909905,6.904617,11.645375,0.162685,-0.767321,-0.040795
00494,3.287652,6.372113,11.307864,-1.299452,-0.530499,-0.339643
00495,3.496806,4.627656,10.534805,-2.566087,-0.365689,-0.544028
00496,3.514006,2.353068,10.304508,-3.412331,-0.238941,-0.707223
00497,3.834495,-0.372567,9.993442,-3.825408,-0.149401,-0.849902
00498,3.795466,-3.222638,8.552006,-3.825524,-0.134333,-0.901068
00499,2.900289,-5.860463,6.739335,-3.442102,-0.223956,-0.817474
00500,1.706185,-8.587231,5.700936,-2.471482,-0.471654,-0.681136
00501,1.974104,-10.136007,7.074850,-0.900877,-0.810684,-0.592902
00502,3.999357,-9.674028,9.015725,0.767029,-1.113060,-0.488737
00503,5.645526,-7.553087,9.407925,1.996232,-1.261537,-0.277555
00504,5.693373,-5.036634,8.807767,2.589900,-1.298047,-0.008834
00505,5.143767,-2.618318,8.607017,2.672195,-1.283787,0.188712
00506,4.439718,-0.490239,8.999501,2.315214,-1.196504,0.231295
00507,4.009791,0.528630,8.806362,1.708350,-1.117677,0.198218
00508,4.171996,1.670559,9.469642,1.025068,-0.997029,0.077553
00509,4.466794,3.132070,10.288917,0.146248,-0.811878,-0.100998
00510,4.515687,3.668462,9.922598,-0.982934,-0.589862,-0.302893
00511,4.086380,2.849242,8.943199,-2.036202,-0.434557,-0.481889
00512,4.009568,1.603478,8.752710,-2.810532,-0.366008,-0.669703
00513,4.643237,0.063903,8.622161,-3.305266,-0.311634,-0.848818
00514,5.268595,-1.221340,8.246210,-3.584132,-0.281572,-0.977272
00515,5.072056,-3.056977,6.159971,-3.845762,-0.299943,-0.981672
00516,4.001778,-5.796022,4.409402,-3.653177,-0.428522,-0.883260
00517,3.505580,-8.439386,4.517261,-2.833288,-0.678008,-0.812843
00518,4.269991,-10.085880,5.599194,-1.492054,-1.004083,-0.737395
00519,5.614410,-9.960657,7.284604,0.042056,-1.278550,-0.612658
00520,6.678940,-8.492556,8.014815,1.279247,-1.450544,-0.411601
00521,6.956129,-6.729185,7.495783,2.071092,-1.538703,-0.178930
00522,6.652755,-4.281379,7.586557,2.526784,-1.542045,-0.028752
00523,5.933565,-1.709842,8.003853,2.411181,-1.479217,0.008183
00524,5.758096,-0.233810,8.527778,1.945381,-1.388784,-0.013781
00525,5.876166,1.234390,9.390082,1.173793,-1.215958,-0.145446
00526,5.880040,2.580672,9.917141,0.131073,-0.995447,-0.339356
00527,6.173950,3.320729,9.703533,-1.141415,-0.778930,-0.559919
00528,6.182032,2.654990,9.256110,-2.364146,-0.555205,-0.774313
00529,6.837935,1.291189,9.104322,-3.337640,-0.391759,-0.970278
00530,7.505472,-0.459588,8.276520,-4.048357,-0.241091,-1.096289
00531,7.875422,-2.147343,7.399122,-4.436324,-0.107857,-1.171724
00532,7.823600,-3.762849,6.344493,-4.553827,-0.020623,-1.212239
00533,7.112003,-5.398483,4.522217,-4.546054,-0.020660,-1.167195
00534,5.561058,-8.283293,1.847610,-4.157320,-0.207490,-0.951068
00535,4.322794,-10.091036,2.738051,-3.002108,-0.506780,-0.791113
00536,4.430754,-11.040492,5.338779,-1.378019,-0.838121,-0.693840
00537,5.987047,-10.541604,8.055053,0.429872,-1.112606,-0.611858
00538,6.936463,-8.447800,8.987452,1.893356,-1.221884,-0.474997
00539,6.562210,-5.794742,8.256650,2.735986,-1.268828,-0.317376
00540,6.076147,-3.550598,7.660441,3.005506,-1.251843,-0.237606
00541,5.841127,-1.723379,7.475849,2.827768,-1.223287,-0.299800
00542,5.744665,-0.516771,7.196388,2.306274,-1.163008,-0.471088
00543,6.182045,1.553466,8.009776,1.590852,-1.096623,-0.732820
00544,6.913320,3.156222,8.699921,0.348235,-0.950554,-0.940136
00545,7.494348,2.916696,8.541155,-1.127633,-0.745325,-1.084013
00546,7.743990,0.722802,7.963411,-2.360966,-0.584657,-1.147166
00547,7.971272,-2.081462,7.157828,-3.081344,-0.494934,-1.146417
00548,7.751368,-5.630200,5.117143,-3.194954,-0.470877,-1.015561
00549,7.389009,-8.012047,5.169706,-2.453352,-0.532027,-0.905731
00550,7.312003,-9.388609,5.408818,-1.279814,-0.680702,-0.757729
00551,7.722387,-9.279343,6.199867,0.194330,-0.827967,-0.622929
00552,8.284576,-7.402437,7.057173,1.443885,-0.894471,-0.485823
00553,8.253251,-5.120627,6.729970,2.186593,-0.897747,-0.346058
00554,7.866154,-3.350989,6.219021,2.435835,-0.882731,-0.237627
00555,7.555555,-2.422962,5.796634,2.362277,-0.877818,-0.193801
00556,7.438031,-1.510593,5.758404,2.032445,-0.920223,-0.209841
00557,7.651562,-0.671412,6.455035,1.647819,-0.922475,-0.273795
00558,7.989794,0.970983,7.950973,1.067065,-0.812839,-0.436417
00559,8.022622,1.897986,8.173473,0.246402,-0.662829,-0.568856
00560,7.805410,1.975604,7.345784,-0.819827,-0.525686,-0.695077
00561,7.362089,0.974779,6.072294,-1.822461,-0.457241,-0.783089
00562,7.270516,-0.128250,5.868606,-2.555344,-0.437943,-0.901298
00563,8.012967,-1.437779,5.827580,-2.970274,-0.429682,-0.972918
00564,8.627157,-3.624596,5.315015,-3.049286,-0.385351,-0.952295
00565,8.636102,-6.152286,4.266891,-2.634693,-0.396948,-0.837780
00566,8.489707,-7.728145,4.191634,-1.691089,-0.466356,-0.702905
00567,8.410047,-8.686031,3.732190,-0.547174,-0.581585,-0.549435
00568,8.674827,-8.679733,4.311728,0.861292,-0.709684,-0.379760
00569,9.378789,-6.990833,5.782767,2.087112,-0.758346,-0.220202
00570,9.824175,-5.321094,5.596265,2.812386,-0.735662,-0.008800
00571,9.634897,-3.878595,4.816990,3.072004,-0.704320,0.241889
00572,9.271147,-2.942607,4.430989,2.978377,-0.702523,0.443574
00573,8.768630,-2.912225,4.030067,2.759006,-0.707009,0.583432
00574,8.196412,-2.666728,4.655823,2.659630,-0.765049,0.648835
00575,8.261236,-2.115605,5.653319,2.619476,-0.833324,0.702538
00576,8.628448,-0.903886,7.087422,2.655849,-0.779696,0.711642
00577,8.487570,1.343571,8.620263,2.511960,-0.608414,0.584953
00578,7.869854,3.131689,8.278095,1.783148,-0.407624,0.426689
00579,7.052156,3.224750,6.897907,0.759643,-0.234054,0.242342
00580,6.583235,2.888441,6.282194,-0.248483,-0.126343,-0.031527
00581,6.935870,2.205952,5.885425,-1.194018,-0.111258,-0.270045
00582,7.802567,0.891857,5.308390,-1.989526,-0.126283,-0.400642
00583,8.623255,-0.645666,4.994542,-2.491630,-0.131270,-0.423086
00584,8.856107,-2.599053,4.489482,-2.698840,-0.130933,-0.338953
00585,8.742922,-5.779604,3.378000,-2.265961,-0.159494,-0.226333
00586,8.803017,-8.046254,3.357955,-1.127229,-0.274764,-0.133396
00587,9.098577,-8.437866,3.757124,0.308227,-0.433762,-0.023571
00588,9.539480,-7.141234,4.002665,1.591889,-0.565820,0.107070
00589,9.632296,-4.964433,3.933830,2.415362,-0.655264,0.279043
00590,9.590315,-2.768411,3.832879,2.725791,-0.718278,0.440722
00591,9.248647,-0.723487,3.813719,2.562239,-0.748873,0.532306
00592,9.031084,1.397113,4.648193,2.086313,-0.746485,0.518094
00593,8.783967,2.875691,5.309073,1.208050,-0.637021,0.391095
00594,8.299607,3.228111,4.936117,0.142819,-0.503995,0.210083
00595,7.793953,3.029842,4.495865,-0.869912,-0.392518,-0.029981
00596,7.636053,2.849493,3.923012,-1.821204,-0.304560,-0.343726
00597,7.537405,2.628754,3.161826,-2.675718,-0.254383,-0.618523
00598,7.726324,1.890842,2.886933,-3.422450,-0.215217,-0.837576
00599,8.360216,0.777381,2.854980,-3.952915,-0.177861,-0.956878
00600,9.056347,-1.506427,2.474762,-4.257880,-0.086015,-0.994700
00601,9.074761,-5.251966,0.433409,-3.946821,-0.084405,-0.968622
00602,8.428913,-8.860966,-1.219019,-2.913028,-0.184336,-0.814253
00603,8.304529,-12.130783,-0.914529,-0.833861,-0.406123,-0.733318
00604,9.435302,-12.411046,1.478704,1.614113,-0.668894,-0.645090
00605,10.951280,-9.029220,3.160979,3.683225,-0.869023,-0.511346
00606,11.580896,-3.880176,3.637838,4.785562,-0.903684,-0.311113
00607,11.349969,-0.032917,3.607751,4.898685,-0.799647,-0.059542
00608,10.680276,2.094614,3.787261,4.391713,-0.617556,0.128596
00609,9.541584,3.867506,4.538494,3.594334,-0.457449,0.079177
00610,8.679045,5.458729,5.471552,2.369036,-0.351369,-0.163494
00611,8.672242,5.552509,5.671153,0.711015,-0.220883,-0.415372
00612,8.738518,5.491204,5.784843,-1.002370,-0.069306,-0.700157
00613,8.811502,5.410134,5.684932,-2.682706,0.041053,-0.975596
00614,9.258127,4.257690,4.958151,-4.206538,0.116262,-1.159569
00615,9.680563,2.861529,4.090234,-5.342783,0.217493,-1.232173
00616,9.788440,0.651475,2.766406,-6.164654,0.324374,-1.219329
00617,9.326726,-3.088962,0.627559,-6.287345,0.357439,-1.121241
00618,8.535859,-7.116509,-0.444283,-5.496284,0.282266,-0.979429
00619,8.280959,-10.029328,1.069529,-3.671844,0.101788,-0.900125
00620,8.651649,-10.354907,3.484852,-1.438202,-0.162827,-0.834201
00621,9.557836,-7.777399,4.900451,0.572887,-0.415062,-0.690046
00622,10.295390,-4.426247,5.085514,1.917999,-0.518411,-0.494996
00623,9.903811,-1.592350,4.665081,2.536827,-0.472404,-0.341523
00624,9.218039,0.396397,4.231569,2.574076,-0.431620,-0.291808
00625,8.750672,1.445895,3.628217,2.124637,-0.422116,-0.324542
00626,8.874717,2.051476,3.596048,1.419127,-0.396457,-0.430545
00627,9.397544,2.732490,3.756775,0.472605,-0.394867,-0.555362
00628,9.597377,2.968740,3.744311,-0.637455,-0.326341,-0.637042
00629,9.682872,2.583262,3.761617,-1.728290,-0.296682,-0.676224
00630,9.735129,0.985195,3.139875,-2.569885,-0.246884,-0.669890
00631,9.527132,-1.462431,1.973303,-2.892065,-0.214164,-0.616981
00632,9.211861,-3.796525,1.740301,-2.487871,-0.235689,-0.561707
00633,9.006470,-5.258637,1.953977,-1.619878,-0.312921,-0.511241
00634,9.282976,-5.635647,2.534621,-0.427878,-0.417327,-0.452409
00635,9.527589,-4.643901,3.195831,0.699510,-0.479316,-0.386898
00636,9.827921,-2.975996,3.333153,1.479890,-0.508101,-0.307601
00637,9.844586,-1.429936,3.224296,1.833604,-0.496666,-0.228032
00638,9.805822,-0.198401,3.372351,1.861983,-0.456378,-0.212952
00639,9.830370,0.870386,3.394136,1.545664,-0.423891,-0.216104
00640,9.822862,1.562366,3.186803,0.976056,-0.392269,-0.211573
00641,9.621407,1.619535,3.024160,0.285378,-0.348261,-0.209622
00642,9.536037,0.983065,2.753540,-0.329918,-0.316762,-0.229178
00643,9.498080,0.054450,2.537886,-0.737995,-0.302046,-0.261889
00644,9.553685,-0.770062,2.488295,-0.941675,-0.304660,-0.273834
00645,9.593128,-1.237517,2.441205,-0.969450,-0.299520,-0.269252
00646,9.513351,-1.501123,2.375886,-0.884320,-0.293425,-0.261072
00647,9.438439,-1.385143,2.345398,-0.726597,-0.301201,-0.252196
00648,9.444952,-1.197718,2.376926,-0.567568,-0.303172,-0.237045
00649,9.650503,-1.102313,2.568200,-0.430754,-0.288994,-0.204551
00650,9.846153,-1.080277,2.747816,-0.335814,-0.257608,-0.149575
00651,9.965291,-1.012999,3.060528,-0.288519,-0.215432,-0.083572
00652,10.088102,-1.044860,3.172423,-0.306464,-0.157517,-0.011812
00653,10.096337,-1.184435,3.196299,-0.333040,-0.121091,0.058162
00654,10.128517,-1.313150,3.235294,-0.320045,-0.086809,0.138534
00655,10.179978,-1.300600,3.389390,-0.286999,-0.055803,0.210672
00656,10.081406,-1.293154,3.521539,-0.252103,-0.013250,0.272586
00657,10.030048,-1.216876,3.636381,-0.212635,0.023478,0.331361
00658,9.948031,-1.218278,3.549228,-0.169032,0.081750,0.366249
00659,9.846963,-0.898883,3.694464,-0.159521,0.135072,0.381676
00660,9.772011,-0.789168,3.669523,-0.221569,0.203300,0.391869
00661,9.764627,-0.650886,3.786654,-0.363379,0.256925,0.401731
00662,9.706368,-0.944541,3.636599,-0.493766,0.311799,0.397785
00663,9.617328,-1.001791,3.538473,-0.558728,0.336752,0.405288
00664,9.589153,-0.961892,3.545323,-0.663643,0.360274,0.412565
00665,9.591211,-1.157495,3.439797,-0.751559,0.375811,0.430828
00666,9.553236,-1.441606,3.299422,-0.763381,0.383775,0.448495
00667,9.538608,-1.543737,3.230597,-0.742633,0.388828,0.454215
00668,9.478826,-1.616119,3.212248,-0.689134,0.390673,0.462663
00669,9.469113,-1.826968,3.057843,-0.610361,0.396819,0.460220
00670,9.415274,-1.803967,2.892134,-0.503322,0.400345,0.451574
00671,9.331520,-1.799363,2.772385,-0.390015,0.393251,0.437572
00672,9.289838,-1.663457,2.726831,-0.283752,0.379810,0.419015
00673,9.329282,-1.596466,2.699393,-0.200866,0.369962,0.401921
00674,9.257013,-1.445979,2.632841,-0.135093,0.360924,0.384793
00675,9.269257,-1.356567,2.605507,-0.085758,0.345834,0.364061
00676,9.310120,-1.289339,2.556277,-0.062602,0.326757,0.344032
00677,9.329911,-1.266294,2.476555,-0.035594,0.324293,0.325255
00678,9.305622,-1.293103,2.372600,-0.016898,0.308296,0.302559
00679,9.278637,-1.286513,2.281918,0.006596,0.294054,0.289216
00680,9.367322,-1.239699,2.261068,0.015894,0.269944,0.276061
00681,9.388504,-1.209532,2.257556,0.003979,0.252573,0.263791
00682,9.360906,-1.159568,2.278935,-0.033998,0.230536,0.259140
00683,9.341583,-1.131935,2.305656,-0.075643,0.211228,0.256209
00684,9.342112,-1.109119,2.301545,-0.142514,0.192061,0.259752
00685,9.312147,-1.102828,2.358987,-0.227877,0.162463,0.256433
00686,9.280327,-1.036734,2.361111,-0.333440,0.132940,0.265649
00687,9.301524,-1.016682,2.421592,-0.461336,0.104709,0.271985
00688,9.239898,-0.973219,2.481422,-0.604872,0.083071,0.277634
00689,9.311599,-1.021853,2.471268,-0.750938,0.063290,0.282202
00690,9.264311,-1.110189,2.464239,-0.894270,0.052314,0.287364
00691,9.214617,-1.273192,2.480499,-0.999930,0.045407,0.272861
00692,9.210233,-1.465408,2.441675,-1.081530,0.030691,0.268067
00693,9.171680,-1.647760,2.373911,-1.111412,0.028356,0.249877
00694,9.186055,-1.838828,2.296647,-1.112357,0.009476,0.225806
00695,9.208878,-1.974091,2.300582,-1.080039,-0.003838,0.197462
00696,9.165845,-2.048260,2.295269,-1.022774,-0.017037,0.161086
00697,9.189931,-2.175202,2.295101,-0.948235,-0.027040,0.125136
00698,9.130634,-2.270166,2.402361,-0.859891,-0.041864,0.090976
00699,9.067612,-2.403069,2.444800,-0.753374,-0.050860,0.046806
00700,9.049014,-2.421972,2.451157,-0.641346,-0.068104,0.010243
00701,9.018913,-2.457725,2.492239,-0.529215,-0.081147,-0.022497
00702,9.029863,-2.453916,2.519329,-0.417265,-0.095972,-0.059764
00703,9.074642,-2.490593,2.528730,-0.307466,-0.106127,-0.095733
00704,9.098638,-2.492461,2.587072,-0.195025,-0.117917,-0.127639
00705,9.155429,-2.466378,2.585315,-0.097791,-0.122368,-0.151683
00706,9.246806,-2.343905,2.607497,-0.029111,-0.131655,-0.172477
00707,9.221733,-2.281042,2.615107,0.020661,-0.127925,-0.194473
00708,9.290774,-2.261107,2.644415,0.054770,-0.133832,-0.212060
00709,9.357348,-2.210164,2.692692,0.078217,-0.135607,-0.219493
00710,9.432130,-2.140619,2.684184,0.083678,-0.137591,-0.225644
00711,9.409538,-2.140410,2.735507,0.076394,-0.129220,-0.224242
00712,9.451863,-2.128735,2.747388,0.061889,-0.124912,-0.218062
00713,9.466914,-2.129919,2.741393,0.045000,-0.121940,-0.210311
00714,9.508720,-2.120477,2.753261,0.026178,-0.114239,-0.198034
00715,9.492837,-2.108310,2.748453,-0.000941,-0.110263,-0.179697
00716,9.490121,-2.178714,2.710469,-0.013590,-0.108877,-0.166253
00717,9.529719,-2.209599,2.680510,-0.021808,-0.094259,-0.149859
00718,9.519721,-2.226174,2.681197,-0.027998,-0.093282,-0.126824
00719,9.500850,-2.256737,2.635718,-0.029892,-0.082931,-0.108294
00720,9.470956,-2.277749,2.666704,-0.026607,-0.076558,-0.086293
00721,9.477959,-2.299649,2.640333,-0.017687,-0.071796,-0.070787
00722,9.446151,-2.358273,2.630692,0.000215,-0.065906,-0.052757
00723,9.452040,-2.382867,2.606065,0.016305,-0.060599,-0.030567
00724,9.426923,-2.392230,2.584080,0.037208,-0.047018,-0.016740
00725,9.413897,-2.384785,2.633248,0.055406,-0.044385,0.001873
