// Start Time: Unknown
// Update Rate: 100.0Hz
// Filter Profile: human (46.1)
// Firmware Version: 4.3.5
PacketCounter,Acc_X,Acc_Y,Acc_Z,Gyr_X,Gyr_Y,Gyr_Z
13694,9.888430,-0.851317,0.141755,-0.076940,-0.048382,0.032649
13695,9.902299,-0.757986,0.224033,-0.048618,-0.050040,0.038713
13696,9.904629,-0.658095,0.259653,-0.029812,-0.049500,0.045071
13697,9.957628,-0.610527,0.351472,-0.016786,-0.043899,0.050244
13698,9.985774,-0.494909,0.358732,-0.008545,-0.041840,0.050329
13699,9.989968,-0.449578,0.386943,-0.008907,-0.036295,0.047318
13700,10.015941,-0.388573,0.463363,-0.009862,-0.033686,0.036444
13701,9.994466,-0.382530,0.467059,-0.003091,-0.028445,0.029085
13702,9.965639,-0.317877,0.456940,-0.001539,-0.017098,0.014955
13703,9.922704,-0.300117,0.469178,0.003664,-0.011950,0.004464
13704,9.948620,-0.259119,0.493609,0.005578,-0.006137,-0.006653
13705,9.960146,-0.289273,0.485866,0.008389,0.006699,-0.022000
13706,9.942562,-0.275505,0.416650,0.013640,0.013491,-0.034645
13707,9.936731,-0.267944,0.394895,0.008068,0.019378,-0.043603
13708,9.909403,-0.250369,0.380461,0.012715,0.023503,-0.048495
13709,9.919207,-0.247242,0.329644,0.007082,0.033513,-0.056124
13710,9.887768,-0.254572,0.339044,0.006669,0.037417,-0.056982
13711,9.871993,-0.267695,0.318633,0.002456,0.042587,-0.055024
13712,9.920889,-0.284659,0.332895,0.003955,0.046806,-0.050561
13713,9.954029,-0.320740,0.323186,0.000902,0.050185,-0.045513
13714,9.975548,-0.350069,0.267133,0.010633,0.056458,-0.040966
13715,9.958069,-0.310700,0.257120,0.016051,0.056947,-0.042793
13716,9.924895,-0.290033,0.222923,0.023822,0.061272,-0.041409
13717,9.926574,-0.315433,0.274734,0.022984,0.055898,-0.039329
13718,9.963905,-0.326838,0.243637,0.022689,0.059217,-0.030214
13719,9.911060,-0.351768,0.207608,0.023660,0.062162,-0.035760
13720,9.911053,-0.348231,0.213799,0.030241,0.060871,-0.034484
13721,9.877137,-0.413002,0.293926,0.036950,0.057108,-0.036683
13722,9.889241,-0.465202,0.237516,0.049818,0.055935,-0.038470
13723,9.853732,-0.500443,0.271559,0.066187,0.056824,-0.033945
13724,9.787319,-0.439771,0.251208,0.087373,0.053630,-0.036933
13725,9.797128,-0.414249,0.257381,0.098585,0.045222,-0.023251
13726,9.760006,-0.421455,0.244234,0.117988,0.041154,-0.021571
13727,9.701281,-0.286363,0.231473,0.128886,0.039979,-0.013049
13728,9.697104,-0.177622,0.251931,0.130570,0.033796,0.000918
13729,9.624397,-0.092776,0.259361,0.119231,0.027697,0.008832
13730,9.674787,-0.010982,0.312199,0.100437,0.023237,0.016689
13731,9.725676,-0.088414,0.316676,0.074665,0.018155,0.023210
13732,9.780704,-0.141130,0.298099,0.073099,0.014240,0.034370
13733,9.866594,-0.156222,0.327906,0.072370,0.012142,0.032156
13734,9.907779,-0.123725,0.324171,0.070770,0.010416,0.031185
13735,9.901544,-0.097982,0.355562,0.073885,0.001281,0.027048
13736,9.911348,-0.077991,0.356424,0.068995,0.000187,0.025425
13737,9.889701,-0.071014,0.362941,0.060281,0.000344,0.026581
13738,9.819191,-0.042141,0.358780,0.050017,0.000379,0.024596
13739,9.789643,-0.111248,0.356505,0.029506,-0.005351,0.021485
13740,9.842728,-0.109540,0.343866,0.025007,-0.004584,0.019884
13741,9.861145,-0.196338,0.251362,0.022915,-0.007703,0.008906
13742,9.835293,-0.213298,0.280118,0.025790,-0.004440,0.008667
13743,9.879904,-0.261260,0.313475,0.025906,-0.001170,0.004340
13744,9.822574,-0.290495,0.348584,0.025625,0.000217,-0.000014
13745,9.838552,-0.296833,0.318853,0.024621,0.003105,0.004688
13746,9.828661,-0.319860,0.318442,0.024845,0.000092,0.011208
13747,9.836114,-0.378392,0.334450,0.023783,0.001350,0.018073
13748,9.842151,-0.408831,0.304087,0.026543,0.001350,0.022162
13749,9.900760,-0.410614,0.315861,0.029759,0.004867,0.024111
13750,9.896387,-0.438399,0.339235,0.038024,0.001224,0.025106
13751,9.857332,-0.396595,0.329313,0.047897,-0.000660,0.027077
13752,9.854952,-0.319453,0.390889,0.050924,-0.005676,0.024257
13753,9.838038,-0.312369,0.319895,0.044685,-0.004150,0.025137
13754,9.799066,-0.270444,0.309430,0.044687,-0.004140,0.025140
13755,9.859503,-0.326504,0.312804,0.031878,-0.007131,0.025585
13756,9.964391,-0.430300,0.350332,0.023756,0.003441,0.031518
13757,10.017397,-0.566195,0.447356,0.026296,0.006451,0.029082
13758,10.028452,-0.574839,0.495194,0.017425,0.005442,0.022415
13759,10.049474,-0.561075,0.542907,0.009934,-0.006084,0.026276
13760,10.135663,-0.601685,0.517039,0.012286,-0.002182,0.029461
13761,10.145785,-0.608209,0.464401,0.029329,0.016653,0.035768
13762,10.177175,-0.413825,0.561446,0.046347,0.037588,0.029925
13763,10.238516,-0.313755,0.717607,0.059541,0.071354,0.025085
13764,10.240785,-0.374401,0.921613,0.088295,0.121806,0.009984
13765,10.119329,-0.429584,1.083984,0.133712,0.164607,-0.018663
13766,9.993621,-0.555893,1.064590,0.197178,0.193004,-0.038992
13767,9.922788,-0.730883,1.029888,0.266606,0.229348,-0.051899
13768,9.689972,-0.828637,0.793564,0.356839,0.257339,-0.053140
13769,9.300527,-0.640074,0.324939,0.439840,0.244280,-0.051398
13770,9.118823,-0.227614,-0.170286,0.442233,0.187614,-0.024390
13771,9.215212,0.026945,-0.626948,0.310025,0.118840,0.031848
13772,9.332744,-0.217473,-0.919971,0.129617,0.076338,0.103373
13773,9.530735,-0.426669,-0.877521,-0.034170,0.046862,0.179846
13774,9.786671,-0.592010,-0.494170,-0.160798,0.018164,0.259698
13775,10.123499,-0.913195,0.028820,-0.265112,0.020997,0.340144
13776,10.042353,-1.159231,0.298360,-0.278861,0.024888,0.376593
13777,9.943473,-1.103742,0.503638,-0.217423,-0.009846,0.377228
13778,10.013936,-0.910901,0.687092,-0.139094,-0.028715,0.378527
13779,10.128868,-0.793541,0.953595,-0.059659,-0.018964,0.363946
13780,10.383937,-0.641315,1.676037,0.025703,0.035724,0.342439
13781,10.707395,-0.684798,2.494719,0.067213,0.150757,0.323929
13782,10.855279,-0.749262,3.261867,0.157647,0.307712,0.278902
13783,11.001544,-0.582947,3.570639,0.233204,0.466388,0.243711
13784,10.728802,-0.870127,2.947397,0.320224,0.589529,0.221852
13785,10.062929,-0.843994,1.919450,0.452321,0.618097,0.208800
13786,10.120245,-0.988999,1.281785,0.517293,0.589552,0.222790
13787,10.604139,-1.385404,1.168210,0.518935,0.608958,0.249649
13788,10.508162,-1.553512,1.193908,0.540474,0.673399,0.248054
13789,9.997068,-1.507105,0.743499,0.604513,0.706973,0.230479
13790,9.127419,-1.411150,-0.271025,0.701098,0.664801,0.228331
13791,8.284454,-1.086148,-1.437025,0.758300,0.515102,0.235457
13792,8.142363,-0.881757,-2.222378,0.681898,0.304650,0.286483
13793,8.401595,-0.835574,-2.404745,0.507728,0.123736,0.353959
13794,9.131686,-0.753328,-1.480998,0.286643,0.007913,0.436200
13795,9.875560,-0.762464,-0.225612,0.034940,0.014592,0.515894
13796,9.830578,-0.672612,0.682280,-0.191686,0.053031,0.575129
13797,9.451362,-0.721318,0.912074,-0.333271,0.024519,0.597737
13798,9.405645,-0.731206,0.992591,-0.412899,-0.035565,0.618301
13799,9.649049,-1.014231,1.451140,-0.430449,-0.067051,0.613136
13800,10.469678,-1.409243,3.030480,-0.405856,0.018795,0.599130
13801,11.328089,-1.740269,4.625189,-0.396234,0.250891,0.583305
13802,11.167960,-1.886828,4.921866,-0.273932,0.512714,0.538427
13803,10.408535,-2.024003,4.107225,-0.021694,0.652478,0.515420
13804,9.581352,-2.509374,2.652018,0.284646,0.623954,0.516864
13805,9.434599,-2.907652,1.440204,0.563435,0.519417,0.519299
13806,9.683779,-2.930180,0.810007,0.725136,0.449513,0.526549
13807,9.526451,-2.680843,0.125905,0.811251,0.456749,0.525928
13808,8.805036,-2.314575,-0.667000,0.908079,0.432172,0.534565
13809,8.310125,-1.892194,-1.470826,0.922507,0.302942,0.571485
13810,8.134910,-1.737067,-1.998998,0.804337,0.114967,0.623342
13811,8.574502,-1.656187,-1.726195,0.576782,-0.063825,0.699485
13812,9.134884,-1.565533,-1.039989,0.231806,-0.142380,0.799830
13813,9.196135,-1.328439,-0.483466,-0.105314,-0.189002,0.879973
13814,9.395097,-1.067092,0.225014,-0.386535,-0.239767,0.941924
13815,9.738007,-0.732423,1.238744,-0.708604,-0.260641,1.007592
13816,10.030222,-0.921171,2.377711,-1.029188,-0.223747,1.027923
13817,10.403184,-1.325059,3.889294,-1.242586,-0.118335,1.016262
13818,11.023667,-1.970711,5.609720,-1.311445,0.110221,0.978114
13819,11.344092,-2.713349,6.356480,-1.281922,0.405116,0.926933
13820,10.449159,-3.481861,5.131473,-0.992424,0.568242,0.851508
13821,9.694253,-4.230638,3.839280,-0.493692,0.557086,0.811879
13822,9.849103,-4.853187,3.202389,-0.082920,0.531893,0.803560
13823,10.056203,-4.576619,2.788735,0.196503,0.528498,0.783392
13824,9.933019,-4.249610,1.652257,0.404044,0.531395,0.745685
13825,9.428930,-4.128674,0.473323,0.679173,0.528855,0.733792
13826,8.749834,-4.123934,-0.512199,0.781738,0.469692,0.759345
13827,8.107064,-4.163778,-1.319774,0.780434,0.321156,0.797988
13828,8.286140,-4.036615,-1.260458,0.665388,0.152339,0.876850
13829,8.829796,-3.679106,-0.772808,0.430342,0.075463,0.982854
13830,9.123871,-3.095675,0.173632,0.169565,0.056739,1.068851
13831,9.290640,-2.499414,1.165937,-0.173550,0.064896,1.141839
13832,9.291066,-1.847238,2.068833,-0.552007,0.077305,1.179858
13833,9.186587,-1.768356,2.774258,-0.899188,0.086656,1.180478
13834,9.347638,-2.116709,4.037848,-1.143219,0.137468,1.142856
13835,10.357177,-2.807824,5.876710,-1.290505,0.353437,1.091253
13836,10.480012,-3.353947,6.452575,-1.317003,0.662163,1.016388
13837,9.936065,-4.010256,5.684837,-1.094411,0.851371,0.941523
13838,9.393170,-5.301520,4.392560,-0.664045,0.924104,0.913809
13839,9.119812,-6.369816,3.551928,-0.232785,0.917690,0.913453
13840,9.056425,-6.978875,2.875835,0.136545,0.888682,0.927644
13841,8.887238,-7.183871,1.766134,0.493612,0.859627,0.954949
13842,8.416002,-7.266765,0.565822,0.911506,0.809457,0.985767
13843,7.872362,-6.986178,-0.643270,1.237290,0.706262,1.014270
13844,7.459305,-6.703152,-1.479868,1.432695,0.553978,1.041515
13845,7.539313,-6.021903,-1.275903,1.416935,0.370408,1.093354
13846,7.967804,-4.933578,-0.704606,1.183282,0.229501,1.157294
13847,8.363699,-3.657976,0.275763,0.809394,0.171055,1.205747
13848,8.568359,-2.618366,1.430374,0.333941,0.175288,1.238939
13849,8.678795,-1.774144,2.887338,-0.204036,0.206194,1.242389
13850,8.732106,-1.758877,4.243898,-0.782424,0.279413,1.221396
13851,8.843459,-2.202657,5.296858,-1.234575,0.423671,1.171397
13852,9.007210,-3.267160,5.898769,-1.509643,0.627655,1.149983
13853,8.571923,-4.564041,5.544130,-1.529337,0.782930,1.134001
13854,8.004595,-6.063585,4.499347,-1.258768,0.779503,1.116975
13855,7.982472,-7.568536,3.608909,-0.834756,0.725147,1.109808
13856,8.027972,-8.626462,2.896945,-0.393206,0.688959,1.114371
13857,7.636462,-9.274694,1.898409,0.151597,0.633989,1.091673
13858,7.088110,-9.112168,0.864829,0.782969,0.523616,1.043600
13859,6.690679,-8.670975,-0.150863,1.330690,0.392674,1.013827
13860,6.154766,-7.979444,-0.991676,1.745795,0.250451,0.986617
13861,6.111146,-7.027838,-0.905712,1.878119,0.081678,0.998725
13862,6.278499,-5.997369,-0.631802,1.748694,-0.058490,1.021838
13863,6.567115,-4.701978,0.258656,1.453761,-0.155726,1.049395
13864,6.966236,-3.639154,1.534351,0.972416,-0.170540,1.081186
13865,7.102247,-2.749418,2.719937,0.342495,-0.126867,1.102536
13866,6.921724,-2.294344,3.696098,-0.342164,-0.092354,1.110614
13867,7.137344,-2.345346,5.071952,-0.955937,-0.020446,1.094363
13868,7.644978,-3.147227,6.749414,-1.574182,0.211137,1.064854
13869,7.644579,-4.337985,7.105068,-1.953378,0.467008,1.000128
13870,7.004721,-5.799308,6.220524,-1.921475,0.628489,0.940543
13871,6.412350,-7.428537,4.936334,-1.545682,0.622873,0.898852
13872,6.220476,-9.213128,3.673077,-1.056598,0.531117,0.871293
13873,6.303328,-10.391883,2.658184,-0.482924,0.426303,0.843949
13874,6.129870,-10.914997,1.820917,0.166625,0.347472,0.812194
13875,5.925644,-10.837301,1.138380,0.847559,0.290549,0.794875
13876,5.676371,-10.115610,1.069008,1.354797,0.234136,0.800401
13877,5.472570,-9.118587,1.118780,1.603665,0.164909,0.837035
13878,5.438547,-7.906859,1.289204,1.620538,0.089018,0.873659
13879,5.757320,-6.723192,1.873013,1.408434,0.031837,0.920907
13880,6.202568,-5.848593,2.910586,0.994886,0.042668,0.959604
13881,6.357579,-4.946163,4.046817,0.500411,0.103468,0.980300
13882,6.341931,-4.538611,4.908229,-0.031314,0.211765,0.979792
13883,6.111259,-4.705004,5.249937,-0.502700,0.335411,0.983001
13884,5.728041,-5.486104,5.155617,-0.855008,0.405947,0.978402
13885,5.625732,-6.825113,4.904802,-1.010020,0.430995,1.003672
13886,5.758036,-8.110643,4.786202,-0.945447,0.460602,1.019372
13887,6.087482,-9.175829,4.997397,-0.712622,0.509628,1.048021
13888,6.057366,-9.974981,4.814112,-0.389580,0.579670,1.062165
13889,5.689884,-10.912992,4.035354,0.136406,0.611952,1.070915
13890,5.390864,-11.150088,3.592766,0.746122,0.579858,1.086469
13891,5.085759,-11.122634,3.118481,1.306285,0.515481,1.108802
13892,4.913649,-10.419491,2.529991,1.722060,0.433168,1.095809
13893,4.699291,-9.576626,1.782173,2.051084,0.372384,1.094806
13894,4.374353,-8.323004,1.498158,2.166950,0.314807,1.075283
13895,4.160287,-7.357342,1.472929,2.080440,0.245394,1.076057
13896,4.106976,-6.288407,2.078106,1.780831,0.187724,1.098619
13897,4.129658,-5.295545,2.667216,1.266764,0.165636,1.131163
13898,3.896157,-4.680351,3.142332,0.638911,0.144979,1.172430
13899,3.723489,-4.167762,3.754031,-0.019786,0.106369,1.194767
13900,3.774343,-3.900309,4.342534,-0.714422,0.073601,1.192108
13901,3.755245,-4.273916,4.547536,-1.322206,0.062538,1.159473
13902,3.841186,-5.016986,4.658335,-1.708822,0.056604,1.090894
13903,4.383743,-6.247724,5.277167,-1.895937,0.135961,1.024518
13904,4.473253,-7.810557,5.937378,-1.874333,0.292015,0.976562
13905,4.353499,-9.227489,6.206670,-1.528549,0.409617,0.937460
13906,4.026673,-10.489135,5.974086,-0.942549,0.516107,0.915688
13907,3.496262,-11.372282,5.194261,-0.157100,0.487350,0.887528
13908,3.444917,-11.364060,4.268596,0.698246,0.412434,0.828978
13909,3.673289,-11.032470,3.795306,1.437709,0.355556,0.789977
13910,3.437020,-10.021612,3.627470,1.997545,0.339556,0.722524
13911,2.997096,-8.432244,3.287200,2.297556,0.319786,0.635626
13912,2.679728,-7.244545,2.888391,2.324714,0.306931,0.599667
13913,2.257947,-6.429177,2.726991,2.113245,0.282213,0.594496
13914,1.993251,-5.963212,2.585316,1.685770,0.230128,0.600799
13915,1.795867,-5.699001,2.477513,1.157854,0.171423,0.631668
13916,1.816428,-5.672572,2.492154,0.555888,0.089992,0.685013
13917,1.779543,-5.649330,2.659221,-0.040805,0.016979,0.729243
13918,1.853037,-5.840063,3.204552,-0.591711,-0.041832,0.761232
13919,1.924124,-6.147745,3.890571,-1.067404,-0.087515,0.790696
13920,2.081537,-6.322938,4.668437,-1.455446,-0.112242,0.801315
13921,2.379252,-6.738585,5.625203,-1.733716,-0.084025,0.774797
13922,3.113696,-8.049006,6.537271,-1.825385,0.064828,0.742878
13923,3.301758,-9.945208,7.288519,-1.641229,0.270151,0.706913
13924,3.100316,-11.304538,7.493184,-1.119194,0.411619,0.674776
13925,2.564375,-12.054859,6.940491,-0.369425,0.455986,0.663890
13926,2.163403,-12.315733,5.877038,0.549250,0.402237,0.631800
13927,2.512109,-12.173987,5.254610,1.413623,0.371077,0.627115
13928,2.871304,-11.698959,5.663710,2.154566,0.415352,0.616980
13929,2.793562,-11.135285,5.754715,2.718824,0.491493,0.588389
13930,1.908075,-10.622848,4.455655,3.253563,0.508769,0.530735
13931,0.882252,-9.693468,2.843444,3.852418,0.421791,0.432220
13932,0.929183,-7.830595,2.950334,4.132675,0.335411,0.371353
13933,1.112988,-6.293893,3.715852,3.834576,0.303438,0.409422
13934,0.852992,-5.122244,3.840651,3.241748,0.236302,0.425441
13935,0.907125,-4.471444,3.426012,2.559243,0.188381,0.444217
13936,0.949792,-4.454360,3.547181,1.862757,0.127351,0.503459
13937,1.139269,-4.621352,4.791471,1.209912,0.103518,0.543596
13938,1.792089,-5.187685,6.976422,0.653024,0.179151,0.576640
13939,2.109131,-6.190502,8.340843,0.377156,0.417234,0.611947
13940,1.174426,-7.136443,9.129590,0.440302,0.545902,0.586594
13941,0.864149,-9.425448,9.855928,0.946816,0.543424,0.514146
13942,1.558369,-13.034726,10.115971,1.886858,0.473634,0.421211
13943,1.832816,-15.525888,8.796082,3.321097,0.272165,0.292342
13944,1.535550,-14.534283,6.142738,4.990295,-0.000963,-0.035161
13945,1.947056,-10.178120,3.702534,6.418369,-0.126322,-0.380467
13946,1.353811,-4.263332,3.576108,7.006235,-0.091469,-0.593569
13947,0.759696,-0.305965,4.209689,6.837658,-0.066199,-0.647936
13948,0.450373,2.335789,5.166167,6.098896,-0.049332,-0.605369
13949,0.165997,3.615057,5.947103,4.915744,0.012445,-0.502379
13950,-0.397112,4.059946,6.402518,3.413350,0.009543,-0.384155
13951,-0.518202,4.127755,6.929290,1.840386,-0.020894,-0.225810
13952,-0.496696,3.415111,7.277475,0.177985,-0.072224,-0.066997
13953,0.248829,0.942274,7.305128,-1.098356,-0.060020,0.048438
13954,1.367114,-0.945895,8.842604,-1.777694,0.043404,0.130522
13955,2.019408,-3.083248,10.379265,-2.083034,0.222270,0.195362
13956,1.964907,-5.876154,11.277258,-1.902332,0.347320,0.235429
13957,1.192304,-8.030982,10.852479,-1.248332,0.332532,0.210313
13958,0.960561,-8.534048,9.862008,-0.267624,0.218211,0.093118
13959,1.415446,-7.280071,9.568212,0.733862,0.159249,-0.005985
13960,1.658604,-5.435801,9.640725,1.501772,0.153304,-0.109189
13961,1.333245,-3.056608,9.816065,1.973823,0.210371,-0.241515
13962,0.676010,-0.936860,9.286304,2.047376,0.251878,-0.363371
13963,-0.167201,0.664539,9.004450,1.784844,0.221986,-0.445774
13964,-0.827925,0.202587,8.197906,1.199111,0.056847,-0.415012
13965,-0.630342,-1.520643,6.929861,0.633793,-0.134706,-0.320727
13966,0.028622,-2.552646,5.732039,0.247017,-0.232242,-0.237710
13967,0.354239,-2.376900,5.462478,-0.080133,-0.238598,-0.154636
13968,0.427341,-1.762344,6.095895,-0.496621,-0.237910,-0.047683
13969,0.236936,-1.447513,6.649970,-1.132014,-0.250791,0.030351
13970,0.745980,-1.552404,8.143843,-1.748912,-0.236025,0.111579
13971,1.889908,-2.233183,10.203300,-2.309849,-0.129971,0.259247
13972,2.688916,-3.693001,12.314840,-2.702304,0.101740,0.404071
13973,2.312686,-5.892997,13.204407,-2.753311,0.276084,0.505067
13974,1.929645,-8.083208,13.086571,-2.308818,0.339542,0.534614
13975,1.693258,-9.666636,12.006657,-1.420273,0.383133,0.481800
13976,1.301500,-10.065928,10.296635,-0.179266,0.295000,0.367871
13977,1.595792,-8.225993,9.413566,1.006698,0.192111,0.257433
13978,1.528320,-5.721418,9.037131,1.831119,0.179905,0.147371
13979,0.588822,-3.486429,8.476845,2.175038,0.162196,0.056627
13980,-0.159160,-1.828834,7.515128,2.129468,0.026911,0.000377
13981,-0.263972,-0.742048,6.289358,1.742790,-0.130142,-0.029641
13982,0.129505,-0.072328,5.515996,1.207599,-0.189971,-0.018064
13983,0.272328,0.736926,5.487551,0.491979,-0.186236,0.058350
13984,0.303514,0.815188,6.216948,-0.423531,-0.176842,0.151181
13985,0.428594,-0.273971,7.000333,-1.354321,-0.151157,0.269495
13986,0.068917,-1.364221,6.791062,-2.251998,-0.190639,0.371124
13987,0.105422,-2.254029,6.973804,-2.996405,-0.264071,0.431543
13988,1.043763,-2.827547,8.375384,-3.568485,-0.245730,0.495008
13989,1.712292,-3.736303,9.631439,-4.090018,-0.150211,0.541902
13990,1.859338,-4.717960,11.009866,-4.292174,0.000555,0.551058
13991,1.010408,-5.990371,10.626135,-4.320012,0.032215,0.512213
13992,0.055654,-7.256618,8.975320,-3.915579,-0.027254,0.386939
13993,0.164782,-8.076796,7.530176,-3.322102,-0.129468,0.288711
13994,0.534287,-9.021789,6.497930,-2.702363,-0.191510,0.256016
13995,0.939764,-8.785909,6.385614,-2.119555,-0.229040,0.214039
13996,1.530872,-7.650326,7.416979,-1.703744,-0.148920,0.192682
13997,1.406138,-6.535810,8.068904,-1.581411,-0.094427,0.200775
13998,0.526474,-6.190285,7.309772,-1.518583,-0.103252,0.166180
13999,0.030312,-5.934494,6.180533,-1.451308,-0.169100,0.105450
14000,-0.093425,-4.992802,5.578496,-1.622331,-0.224242,0.050232
14001,0.195983,-4.364887,5.304931,-2.018661,-0.299768,0.077282
14002,0.643931,-3.912229,5.770063,-2.547964,-0.307492,0.153482
14003,0.550328,-3.504016,6.020972,-3.248510,-0.399081,0.205938
14004,0.504470,-4.694945,5.043876,-3.940143,-0.544415,0.225873
14005,0.491225,-6.529538,4.044947,-4.283574,-0.695896,0.205129
14006,0.687005,-7.764109,3.311367,-4.270152,-0.754423,0.133257
14007,0.768634,-8.826206,2.557753,-4.020799,-0.799268,0.107699
14008,0.724914,-8.604203,3.003463,-3.595333,-0.849196,0.056315
14009,2.297700,-9.268053,4.855535,-3.141067,-0.724303,-0.052447
14010,2.803084,-10.776865,7.074734,-2.674861,-0.322467,-0.142002
14011,1.528208,-12.328310,7.077807,-1.908181,-0.164866,-0.185211
14012,0.976087,-13.144180,6.168357,-1.055330,-0.186880,-0.186490
14013,1.508737,-13.578259,5.938319,-0.364572,-0.237181,-0.129842
14014,2.268864,-13.149902,5.778097,0.096929,-0.214635,-0.065660
14015,2.307299,-12.096314,5.093902,0.417370,-0.124557,-0.069194
14016,1.814660,-10.824246,4.437182,0.624218,-0.038691,-0.088774
14017,1.163060,-9.629310,3.727900,0.611771,-0.008503,-0.077658
14018,0.381197,-8.938860,2.837822,0.427499,-0.023717,-0.032647
14019,-0.141509,-8.470704,2.140956,0.147364,-0.101046,0.042868
14020,-0.074575,-7.816120,1.829066,-0.169981,-0.200499,0.127801
14021,0.241236,-7.168364,2.004654,-0.554155,-0.273610,0.220994
14022,0.508566,-6.848382,2.418117,-0.971322,-0.339865,0.287416
14023,0.999318,-6.988369,2.912533,-1.381253,-0.379208,0.329657
14024,1.156884,-7.632592,3.407972,-1.697824,-0.382759,0.363155
14025,1.289468,-8.353225,4.262945,-1.871672,-0.379889,0.326990
14026,2.159137,-9.872212,5.290768,-1.947668,-0.267681,0.293779
14027,2.033781,-11.388260,6.019381,-1.710533,-0.047572,0.294082
14028,1.580243,-11.759554,6.328525,-1.221785,0.049359,0.274318
14029,1.357835,-11.921924,5.539543,-0.616985,0.130250,0.229655
14030,1.119154,-11.427893,4.524695,0.051331,0.152919,0.150008
14031,1.110533,-10.278621,3.624911,0.629879,0.163146,0.051732
14032,0.981280,-8.865858,3.065578,0.898830,0.172438,-0.054670
14033,1.004798,-8.165716,3.063295,0.883757,0.193997,-0.123813
14034,0.998776,-8.186532,3.232376,0.718879,0.296372,-0.112585
14035,0.532285,-8.004923,3.449003,0.474625,0.389882,-0.082374
14036,0.070430,-7.977927,2.800097,0.174786,0.393302,-0.043797
14037,-0.430811,-8.079865,1.976466,-0.027722,0.322678,-0.001969
14038,-0.082902,-7.813262,2.023654,-0.283674,0.214533,0.055266
14039,0.454174,-8.160840,3.014444,-0.616693,0.211253,0.102828
14040,0.641992,-8.605418,3.302113,-0.888941,0.199234,0.125041
14041,0.630302,-8.990026,3.063404,-1.051096,0.168765,0.152708
14042,0.803775,-9.152004,3.313711,-1.210823,0.111580,0.203496
14043,1.208457,-9.468219,2.953455,-1.367642,0.113114,0.274508
14044,1.137700,-9.300764,2.779737,-1.528347,0.097748,0.299854
14045,1.327193,-9.046403,3.013223,-1.619286,0.137623,0.328012
14046,1.195857,-8.696155,3.198875,-1.703734,0.141420,0.284375
14047,1.642666,-9.152339,2.552454,-1.625054,0.147217,0.200569
14048,1.851321,-10.058022,2.636443,-1.304479,0.255453,0.098391
14049,1.687155,-10.755378,3.170951,-0.690036,0.370957,-0.018035
14050,1.442423,-10.196623,3.976332,0.078121,0.463782,-0.155545
14051,1.201145,-8.133847,4.177013,0.656904,0.492908,-0.297896
14052,1.423507,-7.862872,3.534554,1.002992,0.498449,-0.435680
14053,1.702568,-8.184391,3.461938,1.392715,0.552482,-0.594480
14054,1.957359,-8.123223,3.938491,1.752774,0.637094,-0.742362
14055,1.950218,-8.161254,3.965376,2.054706,0.725052,-0.869901
14056,1.669980,-8.609101,3.129839,2.294467,0.769640,-0.951256
14057,1.159727,-9.451556,1.732024,2.479451,0.756722,-0.984927
14058,0.594544,-10.035868,0.898345,2.572157,0.679522,-0.961822
14059,0.303375,-10.239878,0.825829,2.486663,0.549016,-0.871467
14060,0.098602,-9.625499,0.944353,2.170553,0.414909,-0.723590
14061,0.132792,-8.434521,1.551257,1.588328,0.318555,-0.578830
14062,0.266127,-7.121139,2.270829,0.773670,0.255702,-0.435809
14063,0.099066,-6.615340,2.581195,-0.172256,0.146132,-0.341399
14064,0.284258,-7.700619,2.107285,-0.936320,-0.050970,-0.262371
14065,0.986938,-8.476429,1.935182,-1.393930,-0.190707,-0.203045
14066,1.498775,-9.017877,1.908188,-1.660646,-0.223368,-0.173607
14067,1.413673,-9.594059,1.914539,-1.685746,-0.243765,-0.169663
14068,1.593264,-9.979404,2.702024,-1.493660,-0.273630,-0.208993
14069,2.286314,-10.211889,4.500386,-1.222175,-0.180479,-0.259285
14070,2.639051,-9.736254,6.602812,-0.905991,0.064130,-0.309789
14071,2.061029,-8.882741,6.628516,-0.618038,0.274481,-0.370571
14072,0.774429,-8.989227,4.355818,-0.225255,0.258102,-0.442122
14073,0.827302,-9.629875,3.474046,0.209476,0.100263,-0.505577
14074,2.198319,-10.253635,3.872412,0.477173,0.037347,-0.524406
14075,2.718459,-10.392452,3.707249,0.741045,0.091688,-0.549752
14076,2.466179,-9.933458,2.918010,1.015513,0.132291,-0.587479
14077,1.807045,-9.369157,2.084358,1.259613,0.135952,-0.624655
14078,0.938610,-8.506727,1.810278,1.357615,0.093284,-0.657517
14079,0.176545,-7.375313,1.710943,1.223220,-0.040095,-0.708373
14080,-0.040223,-6.213501,1.542790,0.884604,-0.213574,-0.771490
14081,0.768091,-5.537648,1.368778,0.293312,-0.298568,-0.760935
14082,1.241973,-5.900672,0.936910,-0.401623,-0.273228,-0.704619
14083,0.980243,-6.978340,0.317891,-0.978565,-0.335787,-0.655607
14084,1.293513,-7.619647,0.494603,-1.510052,-0.531235,-0.615123
14085,2.054532,-7.281834,1.076958,-2.029368,-0.685889,-0.631805
14086,2.701739,-6.200792,1.561613,-2.488526,-0.783633,-0.711216
14087,3.409430,-5.396480,2.252641,-2.805223,-0.807342,-0.844377
14088,4.630736,-6.333478,4.105166,-3.010625,-0.593815,-0.984434
14089,5.125296,-7.970468,6.519548,-2.970193,-0.113254,-1.085289
14090,4.602954,-8.407081,8.236927,-2.621935,0.343531,-1.152112
14091,3.151717,-9.496843,7.088086,-2.150111,0.557264,-1.166269
14092,2.013327,-11.571486,4.065504,-1.374584,0.469784,-1.201155
14093,3.094189,-13.103710,3.182748,-0.562852,0.293753,-1.177139
14094,4.898002,-13.942430,3.280663,0.141203,0.230196,-1.116485
14095,5.370548,-13.828338,2.093535,0.839947,0.264204,-1.110499
14096,4.604918,-13.038697,0.192966,1.595046,0.274368,-1.164782
14097,3.644363,-11.995330,-0.614093,2.260052,0.215455,-1.218486
14098,2.902049,-10.942299,-0.429651,2.623632,0.118458,-1.231409
14099,2.437455,-9.649455,-0.085289,2.607863,0.004660,-1.203613
14100,2.280875,-8.364502,-0.287268,2.287124,-0.130628,-1.123755
14101,2.411081,-7.424568,-0.693908,1.829550,-0.304847,-0.993979
14102,2.716662,-6.595660,-0.439885,1.220707,-0.469454,-0.874984
14103,3.313533,-5.975600,0.372806,0.484154,-0.637260,-0.786746
14104,4.471339,-5.542171,1.591045,-0.276209,-0.697472,-0.762953
14105,5.835210,-5.405737,3.698573,-0.989929,-0.535109,-0.770328
14106,6.512457,-5.751011,5.760234,-1.607991,-0.168817,-0.770132
14107,6.086403,-6.158785,6.461782,-1.965970,0.197642,-0.795861
14108,4.769549,-6.873187,5.948551,-2.034984,0.376257,-0.842782
14109,3.837854,-8.432617,4.864726,-1.830535,0.315372,-0.891317
14110,4.338737,-9.865550,4.305660,-1.421543,0.209652,-0.917894
14111,5.410540,-10.686652,4.128820,-0.927199,0.204658,-0.946792
14112,5.899954,-11.068685,3.094131,-0.369784,0.258988,-0.994184
14113,5.198121,-11.355641,1.127533,0.382401,0.264594,-1.066853
14114,4.487204,-11.373202,0.090169,1.182622,0.169626,-1.107812
14115,3.942530,-10.996813,-0.083376,1.829094,0.048330,-1.110114
14116,3.786975,-9.917224,0.488093,2.164357,-0.069254,-1.104408
14117,4.137361,-8.439310,0.585233,2.172814,-0.123949,-1.074036
14118,4.395020,-7.152022,0.090209,2.019977,-0.165111,-1.028712
14119,4.496161,-6.192350,-0.083174,1.771521,-0.296501,-1.004604
14120,4.973416,-5.160781,0.644566,1.277684,-0.471275,-0.987412
14121,5.681383,-4.139535,1.914180,0.522942,-0.572573,-0.992894
14122,6.996320,-3.685066,4.054813,-0.275323,-0.457836,-1.012021
14123,8.078665,-3.773578,6.627001,-1.033782,-0.025057,-1.041038
14124,7.956721,-4.230629,7.719464,-1.671259,0.498052,-1.056870
14125,6.161533,-5.214838,6.764732,-1.911154,0.771733,-1.084707
14126,4.401978,-7.367330,5.167957,-1.688477,0.680385,-1.095746
14127,5.516521,-9.446552,4.734509,-1.246143,0.509117,-1.063139
14128,7.260388,-10.860535,4.562955,-0.774168,0.510035,-1.003606
14129,7.744262,-11.483249,3.573171,-0.136362,0.564084,-1.009765
14130,7.207852,-11.495510,1.898434,0.711481,0.550307,-1.061510
14131,6.204150,-11.179429,0.275003,1.613691,0.428099,-1.122272
14132,5.169170,-10.494250,-0.811667,2.363898,0.194827,-1.197772
14133,4.609378,-9.002752,-1.189972,2.863761,-0.082286,-1.230550
14134,4.993192,-7.318950,-1.177974,2.921248,-0.346025,-1.214620
14135,5.986211,-5.579040,-0.428594,2.659844,-0.436192,-1.157230
14136,6.771456,-3.703906,1.347119,2.087443,-0.410862,-1.082026
14137,7.539046,-2.181490,3.626053,1.264132,-0.322892,-1.007937
14138,7.938033,-1.269049,5.387001,0.305875,-0.155968,-0.960488
14139,7.695896,-0.805382,6.245269,-0.627233,0.000364,-0.962746
14140,7.926457,-1.399133,7.132616,-1.493816,0.138059,-0.974625
14141,8.344282,-3.049857,7.053830,-2.150332,0.323338,-0.961098
14142,7.880500,-5.195078,6.085109,-2.328541,0.460406,-0.963439
14143,7.720663,-7.314880,5.165459,-2.049341,0.466217,-0.962726
14144,8.137751,-9.224051,4.376212,-1.448627,0.456218,-0.951009
14145,7.569289,-10.411195,2.541283,-0.583761,0.427716,-0.984982
14146,6.355993,-10.375936,0.408330,0.486467,0.253340,-1.069686
14147,5.837532,-9.810017,-0.761239,1.396392,-0.025778,-1.082838
14148,5.956438,-9.106894,-1.315616,1.944899,-0.314067,-0.998756
14149,6.084029,-7.763445,-1.194153,2.106945,-0.546867,-0.904786
14150,6.671637,-6.593848,-0.739508,2.013495,-0.722430,-0.779516
14151,7.430231,-5.183154,0.535708,1.724869,-0.804899,-0.680559
14152,7.977605,-3.726332,1.785396,1.238354,-0.808950,-0.598254
14153,8.050402,-2.014135,2.667017,0.600719,-0.812024,-0.565519
14154,8.207256,-0.485330,3.567806,-0.173152,-0.822956,-0.567613
14155,9.265123,0.086350,5.734786,-1.037246,-0.722297,-0.584267
14156,10.215548,-0.593859,7.257514,-2.020277,-0.381707,-0.603977
14157,9.158533,-2.197235,6.315973,-2.542636,-0.015238,-0.711545
14158,7.724938,-4.388110,4.804560,-2.468691,0.074315,-0.808746
14159,7.488516,-6.789351,3.892480,-1.982865,0.025281,-0.840004
14160,7.914250,-8.289660,3.779406,-1.325214,-0.033182,-0.861109
14161,8.504774,-8.414679,3.421288,-0.681076,-0.076213,-0.892392
14162,8.423832,-7.963979,2.273340,-0.045389,-0.081894,-0.948735
14163,7.608406,-7.334013,0.883108,0.647184,-0.149018,-1.017100
14164,7.179893,-6.653637,0.414921,1.185829,-0.288700,-1.043837
14165,7.270277,-6.182777,0.274943,1.395124,-0.448263,-1.020049
14166,7.269231,-5.549237,-0.113906,1.412658,-0.589691,-0.991871
14167,7.612584,-4.637968,-0.030317,1.323734,-0.721773,-0.931137
14168,8.238584,-3.488164,0.710394,1.059853,-0.784803,-0.857142
14169,8.534190,-2.199235,1.778792,0.608657,-0.809766,-0.817943
14170,9.093033,-1.024761,3.052772,0.011845,-0.799739,-0.832287
14171,9.945031,-0.584852,4.765905,-0.697803,-0.608739,-0.883766
14172,10.037888,-1.167536,5.789149,-1.365569,-0.305921,-0.919303
14173,9.430498,-2.167921,5.713372,-1.667038,-0.055628,-0.985006
14174,9.061053,-3.319746,5.091625,-1.646813,0.063846,-0.989776
14175,9.087999,-4.705042,4.552579,-1.389311,0.100141,-0.972423
14176,9.630439,-5.482347,4.622465,-0.996848,0.117464,-0.963838
14177,10.203781,-5.853015,4.214704,-0.576823,0.167076,-0.989303
14178,10.073928,-5.897171,3.362818,-0.029071,0.251427,-1.056242
14179,9.332216,-5.758428,2.074657,0.551792,0.257761,-1.131760
14180,8.257862,-5.344449,0.393029,1.132522,0.158340,-1.199099
14181,7.520415,-4.570393,-0.890189,1.523557,-0.078332,-1.230190
14182,7.530327,-3.819451,-1.428056,1.601583,-0.338976,-1.163750
14183,8.080750,-3.294613,-1.327864,1.413986,-0.541348,-1.052315
14184,8.786350,-2.569286,-0.352950,1.082015,-0.645952,-0.942180
14185,9.474328,-1.949208,0.957760,0.661945,-0.661235,-0.843963
14186,9.745326,-1.339121,2.095383,0.189595,-0.587160,-0.766626
14187,9.573266,-0.758712,2.658033,-0.345075,-0.535323,-0.716799
14188,9.477136,-0.358463,2.954771,-0.870052,-0.517975,-0.685976
14189,10.309863,-0.789284,3.942540,-1.304205,-0.451607,-0.648034
14190,11.208931,-2.064543,4.816718,-1.649821,-0.231095,-0.580061
14191,10.956002,-3.211748,4.696178,-1.721984,0.029033,-0.555416
14192,9.718940,-3.982383,3.642511,-1.450899,0.143477,-0.569516
14193,8.917965,-4.751327,2.613703,-0.896150,0.062798,-0.576316
14194,9.271158,-5.610638,1.917481,-0.353861,-0.045814,-0.537939
14195,9.612065,-6.638113,1.516572,0.124177,-0.102195,-0.484838
14196,9.019428,-6.659203,0.893141,0.621014,-0.144740,-0.513389
14197,7.912498,-5.382539,-1.036885,1.037368,-0.306973,-0.589888
14198,7.701684,-3.794017,-2.283514,1.333963,-0.484611,-0.589467
14199,8.341601,-2.620317,-2.022386,1.331154,-0.561127,-0.492709
14200,8.875682,-1.730973,-0.643735,1.054162,-0.587126,-0.368716
14201,9.312984,-1.157871,0.838144,0.615385,-0.582719,-0.246761
14202,9.525507,-0.856826,1.760040,0.157883,-0.523244,-0.133864
14203,9.349973,-0.425068,2.291334,-0.249719,-0.477187,-0.078386
14204,9.397077,0.219217,2.591272,-0.561940,-0.486126,-0.101012
14205,10.204098,0.513175,3.608660,-0.802016,-0.425722,-0.156978
14206,10.869030,-0.009835,4.573649,-0.988408,-0.271198,-0.228485
14207,10.955136,-0.713620,4.549468,-0.956624,-0.110985,-0.335150
14208,10.111082,-1.209903,3.449302,-0.704131,-0.038428,-0.490567
14209,9.427898,-1.499941,2.183548,-0.245476,-0.068161,-0.659865
14210,10.202338,-1.900581,2.213425,0.165429,-0.064162,-0.789718
14211,10.847847,-2.373446,2.464196,0.446970,0.058794,-0.916686
14212,10.602751,-2.523893,2.468455,0.756660,0.202547,-1.038831
14213,9.975263,-2.188872,2.335919,1.101507,0.264570,-1.080320
14214,9.451554,-1.957350,1.752658,1.275059,0.177190,-1.056583
14215,8.533206,-1.776280,0.171578,1.241148,-0.004157,-1.008848
14216,8.249281,-0.896969,-0.935044,1.011569,-0.286814,-0.948268
14217,9.221783,-1.002949,-1.283441,0.604538,-0.434295,-0.811890
14218,9.598117,-1.390221,-0.570487,0.223882,-0.429726,-0.665218
14219,9.675866,-1.571599,0.535693,-0.147281,-0.423394,-0.506408
14220,9.645314,-1.607059,1.225223,-0.525115,-0.387074,-0.362108
14221,9.492442,-1.686343,1.495602,-0.807291,-0.364683,-0.244818
14222,9.794422,-1.717343,1.865291,-0.963265,-0.357868,-0.154566
14223,10.552826,-1.789555,2.768252,-0.962727,-0.259548,-0.096498
14224,10.874204,-1.889508,3.689963,-0.873301,-0.085077,-0.082551
14225,10.735755,-1.919629,3.981997,-0.721019,0.046320,-0.101655
14226,10.357475,-1.962271,3.301996,-0.512880,0.116576,-0.131056
14227,9.800249,-1.949014,2.124916,-0.248773,0.097779,-0.178253
14228,9.786558,-1.738063,1.395290,-0.015058,0.034231,-0.234721
14229,10.155292,-1.704664,1.147069,0.123296,0.041555,-0.251531
14230,9.797442,-1.646528,0.866431,0.233567,0.087409,-0.263858
14231,9.222175,-1.404081,0.418514,0.306685,0.054638,-0.276950
14232,9.140780,-1.301991,0.048275,0.303250,0.011098,-0.251822
14233,8.979294,-1.383387,-0.183388,0.231791,-0.063822,-0.214328
14234,9.126649,-1.214864,-0.196650,0.100989,-0.145658,-0.163789
14235,9.448084,-1.312134,-0.110688,-0.077207,-0.187970,-0.084405
14236,9.568590,-1.853127,0.048397,-0.164209,-0.191927,-0.008211
14237,9.599784,-1.880198,0.418770,-0.107437,-0.215348,0.054829
14238,9.650895,-1.524020,1.015384,-0.031391,-0.258375,0.084781
14239,9.924263,-1.116511,1.500268,0.033955,-0.283601,0.097041
14240,9.898143,-0.989695,1.728918,0.093220,-0.279849,0.092332
14241,9.949631,-1.114074,1.798780,0.196618,-0.282244,0.070613
14242,10.013109,-1.279733,1.610978,0.363036,-0.251506,0.039580
14243,9.839102,-1.070107,1.325149,0.535821,-0.245331,-0.014132
14244,9.788007,-0.534841,1.237899,0.653681,-0.247346,-0.064539
14245,10.041457,0.088689,1.277680,0.657445,-0.230746,-0.089570
14246,9.983622,0.559331,1.317272,0.544492,-0.206852,-0.108956
14247,9.919176,0.732447,1.154175,0.336476,-0.203551,-0.125280
14248,9.868224,0.561159,0.856979,0.155701,-0.207010,-0.129703
14249,9.768347,0.201330,0.734000,0.012809,-0.222181,-0.143243
14250,9.714263,-0.281008,0.558453,-0.042848,-0.255895,-0.153504
14251,9.760839,-0.510750,0.610001,-0.035403,-0.280936,-0.160194
14252,9.784561,-0.675937,0.673715,-0.003780,-0.282574,-0.176006
14253,9.682744,-0.653538,0.785022,0.038754,-0.289532,-0.179811
14254,9.763329,-0.610678,0.951120,0.064324,-0.287819,-0.182776
14255,9.811040,-0.644873,0.984116,0.082993,-0.276248,-0.186736
14256,9.784922,-0.573318,1.095575,0.084130,-0.271632,-0.184179
14257,9.874799,-0.538171,1.060203,0.072180,-0.267386,-0.178312
14258,9.892678,-0.452069,1.093986,0.052371,-0.253044,-0.172186
14259,9.941455,-0.319840,1.056889,0.012163,-0.241633,-0.164438
14260,9.986000,-0.268442,1.033056,-0.029056,-0.228425,-0.159769
14261,10.026559,-0.213881,0.986533,-0.069880,-0.213343,-0.154969
14262,10.079504,-0.275593,0.970500,-0.111899,-0.195399,-0.145394
14263,10.069835,-0.315013,0.994695,-0.140464,-0.175145,-0.139092
14264,10.098559,-0.399746,1.032460,-0.160670,-0.151112,-0.134400
14265,10.086987,-0.471237,1.106154,-0.173072,-0.126964,-0.129309
14266,10.124588,-0.584810,1.117081,-0.178961,-0.098296,-0.123411
14267,10.101458,-0.646040,1.124107,-0.184378,-0.075237,-0.112385
14268,10.128983,-0.718392,1.022814,-0.172204,-0.050934,-0.105195
14269,10.196504,-0.736462,1.002328,-0.165516,-0.021199,-0.097079
14270,10.206186,-0.823896,0.855967,-0.153925,-0.003942,-0.081457
14271,10.243258,-0.826293,0.797368,-0.130990,0.013501,-0.074693
14272,10.253432,-0.865311,0.687992,-0.109376,0.023368,-0.066129
14273,10.228675,-0.864802,0.592669,-0.084771,0.032302,-0.059036
14274,10.151320,-0.770567,0.574012,-0.050628,0.033555,-0.063417
14275,10.089358,-0.577327,0.570947,-0.026112,0.032727,-0.071429
14276,9.971357,-0.468119,0.586412,-0.020449,0.023713,-0.085932
14277,9.924206,-0.339200,0.643346,-0.014945,0.021593,-0.093266
14278,9.827752,-0.285733,0.618977,-0.020076,0.022661,-0.113707
14279,9.768736,-0.305968,0.650533,-0.026679,0.029053,-0.125855
14280,9.659889,-0.335063,0.714163,-0.040726,0.033911,-0.131845
14281,9.709588,-0.411368,0.618153,-0.046230,0.045444,-0.131537
14282,9.687359,-0.488917,0.560096,-0.051778,0.059619,-0.125493
14283,9.683687,-0.522608,0.508313,-0.055936,0.070434,-0.109876
14284,9.706264,-0.619743,0.442068,-0.069245,0.085474,-0.094157
14285,9.719644,-0.692218,0.408715,-0.074693,0.101705,-0.068050
14286,9.751703,-0.819990,0.313439,-0.058978,0.110165,-0.047898
14287,9.707272,-0.848700,0.299972,-0.036357,0.113127,-0.025504
14288,9.690377,-0.861205,0.260598,-0.006453,0.112531,-0.000752
14289,9.663574,-0.800266,0.286893,0.015555,0.107364,0.019993
14290,9.663001,-0.803419,0.297202,0.032553,0.102007,0.046740
14291,9.613511,-0.738429,0.327416,0.053405,0.091029,0.067176
14292,9.613740,-0.616064,0.360071,0.060971,0.088754,0.081792
14293,9.627571,-0.575394,0.349835,0.066208,0.071468,0.102127
14294,9.600450,-0.523484,0.371824,0.074638,0.058447,0.112544
14295,9.636227,-0.395430,0.421961,0.069291,0.044400,0.119738
14296,9.692800,-0.356704,0.476522,0.052784,0.032498,0.121484
14297,9.715807,-0.363071,0.577296,0.042905,0.026941,0.121989
14298,9.740966,-0.338152,0.632492,0.034015,0.018358,0.115536
14299,9.760560,-0.388250,0.674389,0.025180,0.019117,0.102030
14300,9.830433,-0.378876,0.718670,0.023852,0.004461,0.094425
14301,9.837181,-0.395621,0.766650,0.032787,0.002266,0.075751
14302,9.848545,-0.397800,0.690477,0.034291,-0.004160,0.057434
14303,9.829688,-0.398116,0.718448,0.040286,-0.013071,0.045163
14304,9.791002,-0.357225,0.705589,0.048281,-0.020958,0.028360
14305,9.783986,-0.350692,0.655758,0.053583,-0.029326,0.019514
14306,9.745486,-0.307731,0.641470,0.052091,-0.033762,0.012686
14307,9.731559,-0.242100,0.576706,0.035744,-0.040611,0.005930
14308,9.703752,-0.260237,0.598220,0.021557,-0.055575,0.003919
14309,9.681854,-0.251296,0.597664,0.002500,-0.058014,-0.005577
14310,9.682038,-0.299969,0.557953,-0.008809,-0.063622,-0.008263
14311,9.706124,-0.342924,0.615459,-0.018415,-0.065705,-0.011952
14312,9.748679,-0.439496,0.610227,-0.018653,-0.065874,-0.014151
14313,9.747057,-0.468872,0.648713,-0.011321,-0.066085,-0.018164
14314,9.747581,-0.466987,0.642173,-0.008553,-0.067156,-0.021817
14315,9.796227,-0.486593,0.649808,0.000969,-0.057478,-0.023104
14316,9.785857,-0.422730,0.606699,0.001557,-0.058652,-0.014386
14317,9.821611,-0.411968,0.622173,-0.005089,-0.058960,-0.013779
14318,9.901783,-0.419159,0.627927,-0.016867,-0.049163,-0.006413
14319,9.857658,-0.401490,0.633174,-0.028115,-0.047662,0.000301
14320,9.826332,-0.415382,0.631037,-0.039709,-0.044781,0.000510
14321,9.871022,-0.433341,0.616507,-0.050668,-0.039772,0.003032
14322,9.865609,-0.460661,0.633798,-0.054059,-0.034803,0.003725
14323,9.852611,-0.479461,0.604100,-0.050804,-0.029517,0.003806
14324,9.837752,-0.529091,0.619633,-0.048575,-0.028291,0.001471
14325,9.866133,-0.462127,0.624492,-0.041646,-0.024458,-0.003338
14326,9.869690,-0.515421,0.611882,-0.041893,-0.018646,-0.006202
14327,9.901436,-0.501330,0.607482,-0.035635,-0.014274,-0.007586
14328,9.869930,-0.514471,0.608804,-0.028741,-0.007788,-0.006660
14329,9.888809,-0.469060,0.613236,-0.027294,-0.004456,-0.009872
14330,9.875673,-0.486198,0.586461,-0.029239,-0.002157,-0.011726
14331,9.866736,-0.458204,0.617827,-0.035463,0.002798,-0.017394
14332,9.875800,-0.483584,0.586493,-0.039385,0.004067,-0.014703
14333,9.840422,-0.491708,0.565778,-0.042778,0.009027,-0.013998
14334,9.836626,-0.486240,0.542808,-0.049033,0.010660,-0.013266
14335,9.834832,-0.516374,0.588905,-0.050344,0.021070,-0.013455
14336,9.849392,-0.515418,0.538022,-0.048149,0.018960,-0.009396
14337,9.813940,-0.524077,0.518529,-0.046593,0.020724,-0.008302
14338,9.804805,-0.496979,0.551991,-0.045956,0.022847,-0.005984
14339,9.811962,-0.554716,0.567216,-0.040902,0.024059,-0.001948
