// Start Time: Unknown
// Update Rate: 100.0Hz
// Filter Profile: human (46.1)
// Firmware Version: 4.3.5
PacketCounter,Acc_X,Acc_Y,Acc_Z,Gyr_X,Gyr_Y,Gyr_Z
36286,9.633812,-1.844160,1.593527,0.058017,-0.004715,-0.006942
36287,9.592825,-1.901638,1.579612,0.078458,-0.012079,0.001142
36288,9.577863,-1.973864,1.673352,0.103173,-0.020358,0.013556
36289,9.597757,-1.971120,1.729775,0.133470,-0.026106,0.029392
36290,9.625595,-1.991953,1.731781,0.160846,-0.027524,0.039985
36291,9.647976,-2.017823,1.768272,0.195499,-0.026747,0.053335
36292,9.639665,-2.056246,1.816868,0.222263,-0.028197,0.070198
36293,9.636700,-2.052822,1.925260,0.246420,-0.025971,0.089989
36294,9.741606,-2.082697,1.976297,0.257275,-0.026628,0.106616
36295,9.847314,-2.193695,2.106882,0.264401,-0.012255,0.125335
36296,9.990348,-2.318339,2.173857,0.284246,0.002271,0.149279
36297,10.053161,-2.262189,2.217061,0.299029,0.018628,0.182608
36298,10.028888,-2.299095,2.256024,0.275083,0.037803,0.214347
36299,9.964800,-2.386089,2.355922,0.265370,0.054981,0.253943
36300,9.872227,-2.643126,2.330507,0.275937,0.062887,0.293042
36301,9.896353,-2.722412,2.485241,0.316465,0.069918,0.346966
36302,9.886486,-2.856478,2.562431,0.355888,0.085867,0.387586
36303,9.947413,-2.923976,2.643497,0.408678,0.095057,0.429612
36304,10.013938,-2.872453,2.704485,0.443798,0.111538,0.472104
36305,10.058734,-2.759677,2.821849,0.416599,0.133741,0.517751
36306,10.029313,-2.772911,2.742664,0.385181,0.153300,0.547413
36307,9.918553,-2.860544,2.698367,0.351694,0.166959,0.580163
36308,9.884326,-2.869676,2.726539,0.329229,0.189286,0.607325
36309,9.881956,-2.946060,2.792352,0.313527,0.202660,0.638902
36310,9.887961,-2.992439,2.810524,0.300963,0.215752,0.660987
36311,9.965405,-3.181801,2.764982,0.306301,0.231448,0.689826
36312,9.989044,-3.535226,2.776480,0.347055,0.252187,0.720340
36313,10.022997,-3.827696,2.731059,0.444857,0.280511,0.751124
36314,9.962063,-3.984625,2.701698,0.567832,0.306320,0.785979
36315,9.948805,-3.998003,2.712359,0.693760,0.322068,0.831960
36316,9.972888,-3.842218,2.845173,0.772892,0.333045,0.886501
36317,10.000899,-3.647372,2.909880,0.814934,0.346464,0.941605
36318,10.003282,-3.606741,3.019418,0.803631,0.346493,0.998816
36319,10.052812,-3.738177,3.067494,0.768121,0.344731,1.066809
36320,10.074390,-4.096715,3.150957,0.756677,0.350022,1.129106
36321,10.100536,-4.503575,3.209789,0.790971,0.359653,1.187594
36322,10.197609,-4.858172,3.276432,0.867953,0.375688,1.246514
36323,10.217615,-5.014334,3.349086,0.976978,0.396426,1.300666
36324,10.174266,-5.020392,3.480469,1.065025,0.425649,1.367282
36325,10.141157,-4.922407,3.523129,1.113113,0.448213,1.426757
36326,10.003175,-4.723777,3.603088,1.109546,0.466815,1.488236
36327,9.906575,-4.648504,3.716563,1.048439,0.491103,1.544432
36328,9.793545,-4.794710,3.920328,0.975902,0.526191,1.591969
36329,9.666819,-5.064712,3.979157,0.925325,0.555092,1.631517
36330,9.560665,-5.361596,3.964342,0.930043,0.588114,1.663111
36331,9.519494,-5.754202,3.974461,0.988568,0.627457,1.685900
36332,9.390424,-5.924650,3.960294,1.098261,0.672939,1.680374
36333,9.235234,-5.941790,3.979098,1.226477,0.716557,1.678122
36334,9.173976,-5.762712,4.099841,1.315461,0.761232,1.680451
36335,8.995231,-5.533448,4.215001,1.336782,0.807692,1.676560
36336,8.806254,-5.261795,4.234936,1.291867,0.819358,1.689740
36337,8.773958,-5.269759,4.339682,1.209372,0.838898,1.694932
36338,8.649843,-5.587509,4.410966,1.142432,0.871347,1.692086
36339,8.557824,-5.920390,4.448240,1.134265,0.886672,1.697997
36340,8.490507,-6.168322,4.496181,1.184943,0.903512,1.705737
36341,8.476830,-6.269638,4.523439,1.261711,0.925602,1.704944
36342,8.383377,-6.227609,4.541640,1.335545,0.951725,1.701709
36343,8.229197,-6.174735,4.597103,1.386661,0.962363,1.700937
36344,8.131584,-6.064433,4.666412,1.410283,0.978821,1.700754
36345,8.037644,-5.998381,4.692398,1.391565,0.987093,1.705282
36346,8.014119,-6.132979,4.728416,1.371582,1.007012,1.700023
36347,7.901547,-6.206262,4.789904,1.388088,1.017886,1.701265
36348,7.731012,-6.321982,4.816738,1.411670,1.034602,1.694220
36349,7.612353,-6.449509,4.894152,1.444619,1.052452,1.692471
36350,7.467983,-6.576743,4.951264,1.504554,1.066928,1.690676
36351,7.298990,-6.435942,4.998797,1.552326,1.071313,1.687203
36352,7.114785,-6.172082,5.065621,1.558450,1.069237,1.688762
36353,6.995489,-5.828553,5.088390,1.473367,1.072512,1.680001
36354,6.753743,-5.618299,5.257626,1.320448,1.057007,1.682136
36355,6.559029,-5.676049,5.366429,1.147909,1.038967,1.690672
36356,6.388357,-6.062829,5.441214,1.025631,1.006679,1.717242
36357,6.303589,-6.461126,5.400993,0.981333,0.981428,1.729902
36358,6.217957,-6.735833,5.408766,1.023294,0.951989,1.749765
36359,6.060432,-6.848287,5.408503,1.092408,0.931852,1.767098
36360,5.850166,-6.869815,5.438793,1.186360,0.905545,1.786355
36361,5.703938,-6.818304,5.463207,1.281048,0.885415,1.801751
36362,5.467970,-6.660332,5.604729,1.362766,0.868733,1.799630
36363,5.270602,-6.360384,5.705272,1.404635,0.842479,1.808308
36364,5.113631,-6.025514,5.876484,1.389934,0.828220,1.813504
36365,4.837371,-5.809531,5.904773,1.314678,0.803546,1.827722
36366,4.715625,-5.769655,5.947900,1.203671,0.785223,1.834796
36367,4.478250,-5.778908,5.856860,1.102672,0.767532,1.844024
36368,4.280676,-5.861346,5.742640,1.031640,0.741293,1.838488
36369,4.042121,-5.920973,5.687844,0.994480,0.699404,1.851022
36370,3.889345,-6.056990,5.829368,0.975367,0.663884,1.859322
36371,3.792334,-6.212354,5.937780,1.012683,0.633635,1.859611
36372,3.745955,-6.209020,6.102583,1.084803,0.607766,1.862874
36373,3.645416,-6.077797,6.269976,1.157841,0.578314,1.878648
36374,3.540214,-5.776422,6.363521,1.182759,0.562580,1.881681
36375,3.289107,-5.624261,6.377521,1.174576,0.543015,1.884956
36376,3.080943,-5.436466,6.440774,1.156906,0.521717,1.887114
36377,2.894916,-5.288650,6.534012,1.146859,0.500812,1.869361
36378,2.865255,-5.199070,6.622520,1.129785,0.458888,1.868779
36379,2.826070,-5.271645,6.633726,1.114012,0.443115,1.865022
36380,2.646113,-5.239997,6.713626,1.116243,0.424065,1.858983
36381,2.451700,-5.143580,6.695012,1.123477,0.400348,1.851820
36382,2.371854,-4.976479,6.842603,1.111101,0.376035,1.853546
36383,2.227272,-4.769494,6.980917,1.078992,0.349926,1.851643
36384,2.196962,-4.616175,7.078552,1.021231,0.324137,1.855982
36385,2.029680,-4.570539,7.241897,0.960707,0.305426,1.855380
36386,1.836292,-4.631971,7.349122,0.908578,0.281036,1.864485
36387,1.726805,-4.557515,7.352699,0.863609,0.243492,1.863858
36388,1.635921,-4.515085,7.447481,0.833198,0.218375,1.859488
36389,1.561662,-4.485462,7.414498,0.801824,0.198272,1.854569
36390,1.454349,-4.394047,7.373051,0.780123,0.172299,1.856004
36391,1.292051,-4.389036,7.509367,0.758883,0.149368,1.861240
36392,1.138453,-4.469045,7.628801,0.744113,0.124923,1.872627
36393,1.096836,-4.423979,7.753433,0.748798,0.094676,1.875903
36394,1.021603,-4.383277,7.897833,0.729335,0.069054,1.878833
36395,0.909740,-4.294761,8.039434,0.739350,0.043786,1.886421
36396,0.805846,-4.121271,8.171016,0.734859,0.018955,1.887859
36397,0.680542,-4.099958,8.229108,0.710812,-0.004636,1.896733
36398,0.632556,-3.970113,8.056526,0.689273,-0.035864,1.900126
36399,0.595167,-3.866185,8.059420,0.664856,-0.060052,1.896814
36400,0.561834,-3.981259,8.115237,0.640491,-0.075793,1.912444
36401,0.492439,-4.113538,8.231384,0.647048,-0.091209,1.926203
36402,0.393063,-3.976763,8.428451,0.676906,-0.105118,1.928823
36403,0.274557,-3.740404,8.514322,0.694206,-0.115826,1.937763
36404,0.181448,-3.492174,8.568030,0.693759,-0.125603,1.928537
36405,0.082574,-3.402753,8.595367,0.686937,-0.134051,1.927466
36406,0.011505,-3.341319,8.529105,0.688042,-0.151344,1.912105
36407,0.033432,-3.196331,8.567024,0.716464,-0.164553,1.899723
36408,0.016509,-2.898412,8.564507,0.728756,-0.169959,1.887990
36409,-0.130226,-2.587844,8.681379,0.704372,-0.170704,1.871390
36410,-0.164434,-2.385314,8.695878,0.618412,-0.183544,1.854509
36411,-0.211048,-2.163246,8.718098,0.552763,-0.191979,1.828875
36412,-0.223716,-2.017649,8.782974,0.451420,-0.206980,1.799247
36413,-0.305797,-2.038445,8.771005,0.368202,-0.213194,1.779589
36414,-0.320494,-2.057058,8.696774,0.300461,-0.232594,1.751730
36415,-0.349599,-2.125061,8.650564,0.251311,-0.240401,1.720032
36416,-0.310350,-2.235457,8.601013,0.243255,-0.246025,1.682906
36417,-0.360822,-2.333323,8.545325,0.276511,-0.255546,1.646673
36418,-0.375779,-2.442772,8.589731,0.342749,-0.264271,1.608238
36419,-0.315255,-2.139109,8.622887,0.396251,-0.283587,1.569995
36420,-0.344189,-1.849323,8.757084,0.352842,-0.285738,1.554715
36421,-0.378576,-1.493025,8.840109,0.234355,-0.298213,1.533935
36422,-0.418103,-1.120131,8.870833,0.020899,-0.312728,1.512653
36423,-0.544694,-1.096569,8.838122,-0.219067,-0.328666,1.503116
36424,-0.644478,-1.403514,8.865815,-0.418564,-0.350671,1.485830
36425,-0.669560,-2.025877,8.787346,-0.517118,-0.360982,1.464560
36426,-0.593214,-2.625911,8.876693,-0.470350,-0.376229,1.434894
36427,-0.520734,-3.008460,8.940028,-0.341739,-0.368842,1.405532
36428,-0.462720,-3.011906,9.120384,-0.170181,-0.363576,1.382415
36429,-0.424425,-2.853601,9.152442,-0.062094,-0.344870,1.372686
36430,-0.393673,-2.660929,9.198201,-0.054713,-0.336448,1.375345
36431,-0.432423,-2.399878,9.241798,-0.127961,-0.330121,1.401625
36432,-0.546255,-2.099205,9.242400,-0.253185,-0.330229,1.414575
36433,-0.775845,-2.057579,9.278192,-0.442626,-0.333972,1.446670
36434,-0.983452,-1.999109,9.262513,-0.595379,-0.353863,1.446566
36435,-1.011225,-2.002426,9.178634,-0.671066,-0.379659,1.427325
36436,-1.015544,-1.931153,8.928213,-0.663509,-0.395564,1.381484
36437,-1.042628,-1.642330,8.710081,-0.604162,-0.420010,1.295043
36438,-1.091775,-0.973427,8.815328,-0.571570,-0.447301,1.190484
36439,-1.152547,-0.119766,8.921057,-0.674422,-0.498716,1.080596
36440,-1.106852,0.600307,9.251068,-0.906474,-0.544503,0.945129
36441,-1.091621,0.809301,9.434389,-1.238622,-0.591769,0.804205
36442,-0.917027,0.404624,9.472146,-1.547567,-0.625528,0.660183
36443,-0.714400,-0.538950,9.397239,-1.730865,-0.631641,0.523455
36444,-0.568203,-1.578011,9.403396,-1.714561,-0.617500,0.369900
36445,-0.499693,-2.238474,9.405050,-1.534289,-0.603660,0.214653
36446,-0.314015,-2.649331,9.588212,-1.275778,-0.574376,0.059570
36447,-0.135268,-2.856428,9.695434,-0.975712,-0.529637,-0.094422
36448,-0.011158,-3.027851,9.878671,-0.670855,-0.473960,-0.243546
36449,0.123565,-3.126580,9.963582,-0.368128,-0.411552,-0.377968
36450,0.115618,-2.949201,9.979812,-0.100098,-0.339392,-0.509782
36451,0.067575,-2.707682,10.194687,0.105864,-0.272404,-0.640305
36452,0.145600,-2.310650,10.392858,0.235118,-0.209774,-0.764211
36453,0.284636,-2.012249,10.555265,0.260658,-0.154013,-0.883137
36454,0.523464,-1.976536,10.649855,0.237444,-0.077178,-1.015740
36455,0.821339,-2.247350,10.769839,0.210342,0.009034,-1.151987
36456,1.001712,-2.532539,10.887148,0.241871,0.103839,-1.286224
36457,0.977751,-2.688901,10.944863,0.365496,0.203233,-1.414950
36458,0.831754,-2.578608,10.852198,0.563836,0.284438,-1.551691
36459,0.670577,-2.470188,10.833654,0.830091,0.367738,-1.705475
36460,0.556175,-2.201174,10.936927,1.165542,0.428238,-1.895254
36461,0.665464,-1.699483,11.041802,1.520421,0.484177,-2.103628
36462,0.795245,-0.894065,11.218951,1.834952,0.533172,-2.332374
36463,0.878717,0.150005,11.265053,2.027070,0.571052,-2.564771
36464,0.994464,1.106590,11.231829,2.072613,0.600504,-2.803475
36465,1.111918,1.780484,11.131242,1.970875,0.619288,-3.029707
36466,1.225482,2.185691,11.121084,1.759164,0.628354,-3.229569
36467,1.354507,2.366236,11.069236,1.514794,0.617808,-3.417960
36468,1.563293,2.375026,10.911788,1.208763,0.614537,-3.584018
36469,1.737919,2.282586,10.714189,0.889068,0.600515,-3.726760
36470,1.999581,1.996545,10.596645,0.566843,0.581097,-3.845148
36471,2.190962,1.522101,10.392058,0.280050,0.563422,-3.947779
36472,2.396276,0.818674,10.402412,0.081302,0.556431,-4.035821
36473,2.532909,0.102445,10.493924,-0.019406,0.566765,-4.105480
36474,2.705127,-0.446325,10.681859,-0.051160,0.572790,-4.155040
36475,2.738505,-0.754787,10.715221,-0.025652,0.592284,-4.201521
36476,2.694611,-0.961498,10.542386,0.011078,0.620536,-4.249767
36477,2.528133,-0.943980,10.085633,0.053246,0.637507,-4.298158
36478,2.500098,-0.852448,9.563532,0.097715,0.632994,-4.353221
36479,2.440769,-0.829243,8.898335,0.134881,0.607230,-4.392712
36480,2.487024,-0.990045,8.392387,0.191484,0.535315,-4.409725
36481,2.855455,-1.646880,8.628297,0.217029,0.498871,-4.374406
36482,3.000027,-2.221581,9.236228,0.310726,0.493863,-4.325339
36483,3.134429,-2.296669,9.839480,0.403736,0.498562,-4.300453
36484,3.267680,-2.098939,10.332704,0.444224,0.519237,-4.283337
36485,3.331891,-1.712244,10.618939,0.406137,0.547943,-4.276274
36486,3.488305,-1.435611,10.654546,0.286265,0.566357,-4.272132
36487,3.636930,-1.471442,10.351906,0.145916,0.600877,-4.258593
36488,3.582395,-1.615126,9.735243,0.082646,0.630894,-4.243600
36489,3.695542,-1.978003,9.498204,0.084779,0.667442,-4.220356
36490,3.714339,-2.239259,9.420200,0.151621,0.711528,-4.172561
36491,3.648556,-2.161324,9.344663,0.192104,0.747613,-4.128826
36492,3.574304,-2.054855,9.476425,0.181114,0.777936,-4.071395
36493,3.640109,-1.881690,9.712680,0.126011,0.793854,-4.034592
36494,3.791680,-1.807015,9.908320,0.048000,0.825093,-4.002984
36495,3.929374,-1.826472,9.943830,-0.003868,0.861458,-3.977747
36496,3.973891,-1.949983,9.880276,-0.009944,0.916123,-3.955950
36497,3.826823,-2.176194,9.679693,0.027935,0.958483,-3.924700
36498,3.682055,-2.215799,9.561791,0.093230,0.987093,-3.884051
36499,3.495123,-1.938751,9.461077,0.111860,0.996087,-3.850535
36500,3.404911,-1.547165,9.356526,0.081584,0.981578,-3.809504
36501,3.411590,-1.266972,9.357805,-0.031572,0.955355,-3.776036
36502,3.437291,-1.357437,9.220260,-0.145183,0.922539,-3.733505
36503,3.500166,-1.770793,9.160445,-0.213510,0.882590,-3.679252
36504,3.397060,-2.119691,9.194533,-0.169213,0.861200,-3.637027
36505,3.143284,-2.281257,9.261148,-0.078079,0.831510,-3.593896
36506,2.960332,-2.282063,9.375974,0.040804,0.793451,-3.541966
36507,2.857225,-2.235402,9.538991,0.153545,0.765891,-3.498791
36508,2.850998,-2.185915,9.665249,0.239708,0.736500,-3.443606
36509,2.794401,-1.976726,9.893056,0.302694,0.719302,-3.401565
36510,2.698389,-1.633546,9.906856,0.330495,0.710255,-3.377151
36511,2.501187,-1.309765,9.851855,0.288378,0.690205,-3.346939
36512,2.396418,-1.215486,9.848222,0.209046,0.654378,-3.304980
36513,2.385567,-1.344739,9.914773,0.136369,0.636702,-3.262978
36514,2.381859,-1.484439,9.854062,0.098690,0.619450,-3.227960
36515,2.250198,-1.613165,9.698316,0.078631,0.609249,-3.181152
36516,2.122122,-1.588433,9.703821,0.063756,0.584250,-3.140826
36517,2.113589,-1.520772,9.632229,0.042615,0.555234,-3.083536
36518,2.090316,-1.444961,9.545149,0.007883,0.532963,-3.037031
36519,1.967946,-1.451941,9.418327,-0.022739,0.514763,-2.996320
36520,1.760705,-1.634013,9.423029,-0.049636,0.486735,-2.945481
36521,1.703064,-1.670488,9.517646,-0.090489,0.451298,-2.878232
36522,1.667571,-1.437298,9.585774,-0.127089,0.428705,-2.834920
36523,1.551446,-1.316255,9.500212,-0.214631,0.403866,-2.784572
36524,1.430196,-1.307867,9.472295,-0.296857,0.376485,-2.739581
36525,1.389367,-1.497483,9.238206,-0.360706,0.361319,-2.711858
36526,1.264744,-1.950724,9.202455,-0.384300,0.333237,-2.672844
36527,1.269791,-2.400394,9.166342,-0.304079,0.309011,-2.644631
36528,1.290171,-2.930053,9.173620,-0.155454,0.285150,-2.599621
36529,1.228389,-3.264336,9.205704,0.088188,0.267882,-2.556862
36530,1.152171,-3.251292,9.239227,0.372736,0.245612,-2.508775
36531,1.047048,-2.640895,9.209959,0.587328,0.212165,-2.456679
36532,0.837883,-1.636872,9.148529,0.619428,0.164244,-2.403094
36533,0.789507,-1.109471,9.253659,0.461885,0.108926,-2.320466
36534,0.860751,-1.234569,9.407944,0.219569,0.073292,-2.217254
36535,1.028239,-1.758233,9.534900,0.021067,0.052026,-2.099761
36536,1.035981,-2.429462,9.413458,-0.093638,0.043058,-1.966553
36537,1.008165,-2.686346,9.274417,-0.065537,0.029980,-1.849775
36538,1.009242,-2.507095,9.054690,-0.007093,0.019317,-1.752331
36539,0.823564,-2.028986,8.845726,0.024921,-0.004735,-1.670163
36540,0.547979,-1.736811,8.890323,-0.058649,-0.047103,-1.588779
36541,0.348192,-2.067147,9.079726,-0.171420,-0.093494,-1.492841
36542,0.411663,-2.949215,9.419417,-0.214984,-0.137558,-1.406579
36543,0.636384,-4.155634,9.855609,-0.081949,-0.154493,-1.317810
36544,0.760471,-4.939619,10.158732,0.260138,-0.142311,-1.224592
36545,0.806419,-4.532973,10.171467,0.681950,-0.129314,-1.143554
36546,0.840116,-3.023084,10.006846,0.924613,-0.127520,-1.087911
36547,0.929135,-1.340222,9.874680,0.847797,-0.128886,-1.042375
36548,0.818464,-0.371939,9.934078,0.462570,-0.136197,-0.977339
36549,0.575351,-0.717805,10.135608,-0.035879,-0.145816,-0.917497
36550,0.605445,-1.877148,10.140732,-0.415134,-0.143667,-0.853038
36551,0.777057,-3.177788,9.973328,-0.570427,-0.133574,-0.786364
36552,0.768861,-4.194131,9.885328,-0.511174,-0.115041,-0.718837
36553,0.650599,-4.693509,9.830069,-0.321950,-0.110690,-0.653535
36554,0.661618,-4.762625,9.776993,-0.104025,-0.106625,-0.587177
36555,0.664809,-4.520652,9.697186,0.061396,-0.108913,-0.525587
36556,0.571223,-4.247476,9.661119,0.164543,-0.111326,-0.457250
36557,0.519543,-4.158628,9.690552,0.176475,-0.120694,-0.382234
36558,0.554347,-4.328957,9.731180,0.171165,-0.122622,-0.295349
36559,0.584887,-4.429539,9.812325,0.169707,-0.127534,-0.205888
36560,0.583905,-4.479823,9.848834,0.176876,-0.131078,-0.110552
36561,0.665127,-4.440581,9.970545,0.174660,-0.134270,-0.013342
36562,0.703699,-4.472530,10.064545,0.163526,-0.130910,0.092018
36563,0.681885,-4.510392,10.029694,0.166932,-0.122395,0.193142
36564,0.714289,-4.548496,9.997252,0.170397,-0.122282,0.306778
36565,0.748686,-4.565918,10.035670,0.199947,-0.115745,0.414300
36566,0.718565,-4.685207,10.036374,0.252572,-0.121043,0.533209
36567,0.809282,-4.673781,10.151873,0.336262,-0.121989,0.662620
36568,0.896675,-4.624601,10.185232,0.433116,-0.111516,0.796818
36569,0.989788,-4.446459,10.244329,0.524997,-0.099402,0.939359
36570,1.084684,-4.090317,10.295045,0.602834,-0.078677,1.078847
36571,1.134190,-3.644615,10.322903,0.633460,-0.064076,1.218142
36572,1.260944,-3.270099,10.409478,0.628042,-0.041368,1.356402
36573,1.403073,-3.086912,10.591363,0.588395,-0.005876,1.495723
36574,1.461543,-3.029050,10.750853,0.542737,0.036384,1.628727
36575,1.612812,-2.910602,10.819937,0.505054,0.075930,1.762808
36576,1.704371,-2.762545,10.882767,0.466403,0.116560,1.895104
36577,1.717523,-2.532508,10.890570,0.409374,0.155999,2.028504
36578,1.732231,-2.268831,10.820037,0.336898,0.190259,2.162641
36579,1.718625,-2.236183,10.798688,0.259595,0.220626,2.293267
36580,1.782757,-2.357942,10.765326,0.197311,0.243135,2.417888
36581,1.926209,-2.558957,10.642386,0.183628,0.265975,2.540691
36582,1.994810,-2.671692,10.622446,0.204805,0.280649,2.665421
36583,2.113220,-2.513673,10.643037,0.232449,0.291134,2.786909
36584,2.219447,-2.282076,10.710678,0.227949,0.313269,2.907466
36585,2.315307,-2.063910,10.565011,0.200723,0.337636,3.016864
36586,2.370908,-1.989102,10.434579,0.150103,0.346607,3.115743
36587,2.418975,-1.986925,10.410861,0.104431,0.366513,3.233291
36588,2.449058,-2.007042,10.402577,0.074078,0.371922,3.328673
36589,2.540126,-1.895688,10.390453,0.032535,0.382660,3.426715
36590,2.638635,-1.866403,10.344871,-0.014522,0.403366,3.528528
36591,2.738251,-1.882940,10.246884,-0.068648,0.425364,3.627714
36592,2.784919,-1.889764,10.259432,-0.103796,0.439921,3.712876
36593,2.672772,-1.773674,10.253484,-0.119476,0.447761,3.781132
36594,2.583684,-1.578041,10.250972,-0.154694,0.441366,3.845383
36595,2.453117,-1.337632,10.226993,-0.216861,0.433004,3.908708
36596,2.198960,-1.079500,10.014031,-0.286559,0.409339,3.956128
36597,2.107359,-1.026808,9.969115,-0.387604,0.390638,4.004214
36598,1.955556,-1.206578,9.950065,-0.460992,0.372290,4.041511
36599,1.914043,-1.371556,9.842075,-0.504758,0.351641,4.071161
36600,1.837528,-1.475207,9.697188,-0.486121,0.324500,4.096266
36601,1.876193,-1.517396,9.631231,-0.443640,0.303025,4.106419
36602,1.812554,-1.456611,9.626704,-0.372326,0.289313,4.108134
36603,1.771917,-1.470967,9.646297,-0.276535,0.269262,4.109520
36604,1.667487,-1.419249,9.690588,-0.149145,0.257046,4.111755
36605,1.649851,-1.394321,9.683925,-0.001706,0.238772,4.109159
36606,1.661659,-1.232805,9.724031,0.153221,0.236093,4.092755
36607,1.632147,-1.114562,9.658111,0.321160,0.230011,4.083962
36608,1.614542,-0.938975,9.489566,0.484940,0.221185,4.079027
36609,1.696190,-0.658216,9.394548,0.589472,0.223753,4.083260
36610,1.703497,-0.131570,9.341609,0.656176,0.230081,4.079471
36611,1.777233,0.472612,9.400147,0.618442,0.225784,4.058783
36612,1.851469,0.769488,9.617082,0.533190,0.232979,4.042479
36613,1.785623,0.802932,9.696569,0.461871,0.219928,4.042123
36614,1.678050,0.974112,9.787024,0.388099,0.202352,4.036636
36615,1.554142,1.132800,9.935865,0.295907,0.201747,4.033518
36616,1.558821,1.212711,9.849654,0.192221,0.188094,4.033882
36617,1.666355,1.050109,9.692809,0.112314,0.186270,4.015156
36618,1.722073,0.954440,9.727277,0.086662,0.183969,3.990715
36619,1.749869,0.958742,9.763219,0.092606,0.168021,3.969377
36620,1.763781,1.187423,9.855204,0.115703,0.173967,3.952544
36621,1.861624,1.385459,9.961984,0.097338,0.183904,3.937269
36622,1.894683,1.465604,9.973836,0.058357,0.199686,3.918000
36623,1.943535,1.440051,10.027538,0.018263,0.210974,3.893249
36624,1.895940,1.508952,10.046235,0.005874,0.212537,3.869832
36625,1.848867,1.609656,10.161442,0.000228,0.217034,3.844675
36626,1.841452,1.749032,10.071165,0.002829,0.207613,3.816688
36627,1.798211,1.990279,9.986195,-0.014296,0.207778,3.777253
36628,1.816327,2.161041,9.850591,-0.059495,0.202138,3.735045
36629,1.843183,2.352507,9.628610,-0.120596,0.197255,3.698655
36630,1.805410,2.431955,9.696546,-0.197234,0.206052,3.651006
36631,1.527596,2.572102,9.607744,-0.285182,0.191307,3.603652
36632,1.452442,2.694362,9.680325,-0.373735,0.166026,3.532032
36633,1.416189,2.706717,9.749801,-0.483194,0.138230,3.467435
36634,1.444579,2.651597,9.808390,-0.579197,0.114844,3.402909
36635,1.501498,2.412520,9.738164,-0.672812,0.103844,3.342622
36636,1.517740,2.370888,9.486123,-0.731210,0.094267,3.270336
36637,1.275577,2.282585,9.401329,-0.792541,0.098558,3.202348
36638,1.007214,2.382517,9.141625,-0.872918,0.085654,3.144446
36639,0.856119,2.470490,9.034402,-1.014040,0.091862,3.092613
36640,0.526266,2.451429,8.796043,-1.217668,0.100102,3.063802
36641,0.191333,2.228653,8.691630,-1.417297,0.055691,3.018530
36642,0.246612,1.567676,8.688808,-1.613077,-0.025639,2.976339
36643,0.545562,0.922754,9.086142,-1.681994,-0.078377,2.937320
36644,0.781695,0.476990,9.450471,-1.647660,-0.126542,2.885840
36645,0.946563,0.299370,9.684971,-1.576208,-0.172185,2.853882
36646,1.109683,0.220194,9.712328,-1.528951,-0.193195,2.824998
36647,1.141009,0.398214,9.749722,-1.503468,-0.204122,2.787450
36648,1.027346,0.649784,9.916782,-1.497513,-0.197142,2.719993
36649,0.813521,0.779097,10.029421,-1.535041,-0.189596,2.639010
36650,0.618483,0.800458,10.159764,-1.567092,-0.188795,2.535047
36651,0.702606,0.796202,10.268483,-1.568799,-0.204135,2.416132
36652,0.961315,0.871434,10.397562,-1.526335,-0.199532,2.258078
36653,0.984564,1.213465,10.504797,-1.475952,-0.175546,2.095309
36654,0.821719,1.461820,10.731398,-1.420918,-0.146508,1.908073
36655,0.711994,1.553125,10.866109,-1.381493,-0.126926,1.701375
36656,0.755304,1.399637,10.944250,-1.312273,-0.093121,1.482020
36657,0.700255,1.249204,10.890667,-1.172331,-0.042644,1.232420
36658,0.599816,1.091074,10.900489,-0.987855,0.013978,0.965964
36659,0.500769,0.896118,10.696232,-0.782726,0.075690,0.705260
36660,0.427686,0.781444,10.531780,-0.578902,0.131754,0.442581
36661,0.375044,0.898925,10.325088,-0.404438,0.189660,0.180600
36662,0.311899,1.008402,10.139567,-0.269313,0.237471,-0.081474
36663,0.294323,0.973842,9.960601,-0.181487,0.276651,-0.324864
36664,0.345241,0.788172,9.815515,-0.113381,0.301881,-0.558529
36665,0.340705,0.476576,9.629340,-0.044417,0.329859,-0.774361
36666,0.305546,0.106904,9.438123,0.013287,0.357563,-0.965354
36667,0.214848,-0.176485,9.171647,0.057763,0.369466,-1.120726
36668,0.073854,-0.091274,8.831347,0.076954,0.376652,-1.259041
36669,-0.118333,0.373401,8.494437,0.068403,0.371863,-1.405458
36670,-0.239927,0.858921,8.207046,-0.054543,0.359531,-1.535894
36671,-0.191610,0.993503,7.793394,-0.298703,0.339183,-1.623130
36672,-0.093756,0.834344,7.396730,-0.612850,0.321409,-1.705018
36673,0.027210,0.576941,7.092193,-0.922226,0.313518,-1.789123
36674,-0.038380,0.322345,7.113099,-1.171810,0.295142,-1.873207
36675,-0.069525,-0.180744,7.017483,-1.407824,0.262146,-1.932369
36676,-0.082127,-0.710590,6.888588,-1.604990,0.220331,-1.976572
36677,-0.054018,-1.349574,6.808921,-1.760442,0.203592,-2.013157
36678,-0.016028,-1.851315,6.704887,-1.850577,0.190093,-2.049843
36679,0.038881,-2.156056,6.344930,-1.946540,0.187833,-2.068933
36680,0.151540,-2.115318,6.027149,-2.040277,0.191964,-2.096024
36681,0.283154,-2.164891,5.709705,-2.223452,0.207278,-2.114661
36682,0.377325,-2.282225,5.514143,-2.409798,0.215372,-2.137678
36683,0.422257,-2.546430,5.608348,-2.539748,0.203566,-2.172374
36684,0.363997,-3.008406,5.453873,-2.639258,0.175648,-2.192249
36685,0.330105,-3.451260,5.402510,-2.631062,0.152155,-2.232615
36686,0.196327,-3.706578,5.333453,-2.525168,0.155786,-2.312752
36687,0.157931,-4.072994,5.460877,-2.390131,0.157585,-2.400713
36688,0.420478,-4.416036,5.319527,-2.321716,0.161783,-2.433104
36689,0.719372,-4.182557,5.191877,-2.289727,0.194240,-2.476828
36690,0.858731,-3.908891,5.290252,-2.404212,0.211731,-2.520665
36691,0.992821,-4.045505,5.178193,-2.605223,0.187490,-2.532736
36692,1.126107,-4.271484,4.874037,-2.759245,0.159703,-2.566696
36693,0.974032,-4.473584,4.729692,-2.800094,0.131421,-2.645611
36694,0.743554,-4.731741,4.677661,-2.714233,0.073139,-2.748597
36695,0.884592,-5.167212,4.654793,-2.493454,0.023354,-2.868886
36696,1.237726,-5.991274,4.693908,-2.199098,-0.011291,-2.970502
36697,1.847022,-7.226017,4.610325,-1.840358,-0.035237,-3.035776
36698,2.549320,-8.763185,4.734632,-1.492363,-0.043206,-3.049680
36699,3.157147,-9.947977,4.758476,-1.073349,-0.072096,-3.008671
36700,3.466286,-9.777542,5.062026,-0.572168,-0.107564,-3.017924
36701,3.272129,-8.252716,5.218934,-0.231843,-0.194960,-3.050649
36702,3.038946,-6.298766,5.508686,-0.177240,-0.320407,-3.071213
36703,3.055007,-4.851706,5.753273,-0.475511,-0.469946,-3.055406
36704,3.391786,-4.372129,5.854004,-0.973224,-0.610729,-3.036685
36705,4.017798,-5.140941,5.922572,-1.530008,-0.711214,-2.997706
36706,4.758125,-6.793103,5.679284,-2.020385,-0.763792,-2.914550
36707,5.423298,-8.272013,5.324956,-2.321565,-0.787872,-2.846366
36708,5.857073,-9.027353,5.169191,-2.433319,-0.783621,-2.802170
36709,5.844566,-8.928830,5.063928,-2.409623,-0.771613,-2.794494
36710,5.819184,-8.266636,5.130749,-2.359345,-0.784199,-2.815368
36711,5.866172,-7.686647,5.227211,-2.319130,-0.814911,-2.808464
36712,6.101849,-7.738749,5.157796,-2.277215,-0.836870,-2.770337
36713,6.277160,-8.288040,5.194164,-2.148487,-0.823139,-2.733902
36714,6.314778,-8.858130,5.217315,-1.900081,-0.800787,-2.722480
36715,6.602382,-9.248809,5.203202,-1.637546,-0.789351,-2.706621
36716,7.240090,-9.168041,5.193392,-1.436387,-0.767131,-2.669897
36717,7.766807,-8.704083,4.934907,-1.332959,-0.739957,-2.629956
36718,8.319950,-8.632366,4.900423,-1.402611,-0.722042,-2.550576
36719,8.834153,-8.711781,4.735218,-1.499227,-0.715831,-2.415832
36720,9.151604,-8.502740,4.654618,-1.549795,-0.717398,-2.302858
36721,9.311346,-8.182566,4.494894,-1.571491,-0.705042,-2.197688
36722,9.188790,-7.864777,4.298111,-1.574643,-0.676071,-2.101388
36723,8.820533,-7.656605,4.060370,-1.576819,-0.650663,-2.008015
36724,8.589801,-7.581527,3.982267,-1.561677,-0.637896,-1.943869
36725,8.522552,-7.420482,3.975028,-1.533730,-0.623079,-1.902103
36726,8.635548,-7.204724,3.836983,-1.462392,-0.606147,-1.891324
36727,8.832107,-6.778328,3.990719,-1.348640,-0.550917,-1.914868
36728,8.880967,-6.238784,4.291565,-1.207608,-0.514707,-1.953856
36729,8.929814,-5.727505,4.275652,-1.118971,-0.504988,-1.962042
36730,8.941120,-5.529811,3.980197,-1.126449,-0.496101,-1.963765
36731,9.057978,-5.716578,3.599817,-1.129199,-0.478677,-1.984726
36732,9.218181,-5.997358,3.270057,-1.064061,-0.446633,-2.013656
36733,9.420172,-5.676143,3.506035,-0.877957,-0.371690,-2.088602
36734,9.514787,-4.968983,3.543449,-0.765435,-0.341970,-2.122387
36735,9.825639,-4.391384,3.487153,-0.816471,-0.318104,-2.121225
36736,10.145355,-4.301546,3.279446,-0.984191,-0.269636,-2.126185
36737,10.421188,-4.511238,3.105660,-1.133439,-0.213155,-2.130934
36738,10.678542,-5.028713,2.924986,-1.204906,-0.155388,-2.121549
36739,10.837251,-5.316213,2.800304,-1.168618,-0.098434,-2.098081
36740,11.093365,-5.076589,2.929956,-1.096375,-0.053698,-2.058981
36741,11.243923,-4.469564,3.002282,-1.091061,0.007469,-2.007509
36742,11.334092,-3.968265,3.025339,-1.176085,0.059879,-1.949803
36743,11.395475,-3.770256,2.912042,-1.301328,0.101740,-1.882319
36744,11.426210,-3.727426,2.793524,-1.392499,0.147009,-1.828660
36745,11.328829,-3.803356,2.641060,-1.458545,0.181848,-1.758379
36746,11.300687,-3.887567,2.515829,-1.450092,0.194982,-1.683548
36747,11.283128,-3.918282,2.387439,-1.376088,0.196024,-1.615411
36748,11.214086,-3.927169,2.389637,-1.265223,0.201124,-1.550468
36749,11.104272,-3.970507,2.367499,-1.119610,0.177823,-1.466490
36750,10.996510,-3.875500,2.400735,-0.957805,0.161853,-1.369801
36751,10.814366,-3.706874,2.461160,-0.783838,0.147501,-1.286483
36752,10.594739,-3.504205,2.415843,-0.634064,0.131365,-1.186766
36753,10.400912,-3.288178,2.435131,-0.506199,0.107493,-1.090149
36754,10.183079,-2.896081,2.515036,-0.406841,0.095684,-1.010853
36755,10.046252,-2.517366,2.580786,-0.383717,0.067990,-0.929768
36756,9.951197,-2.089807,2.624947,-0.438534,0.051735,-0.855132
36757,9.857091,-1.939745,2.600960,-0.550355,0.032725,-0.774343
36758,9.832753,-2.089175,2.551775,-0.645043,0.020305,-0.707029
36759,9.844912,-2.369272,2.530824,-0.691035,0.009920,-0.637710
36760,9.955658,-2.591019,2.460316,-0.667434,0.013795,-0.570682
36761,9.987746,-2.620300,2.425829,-0.594956,0.025816,-0.515152
36762,10.035830,-2.463923,2.309976,-0.515311,0.030428,-0.460085
36763,9.944073,-2.226869,2.230863,-0.463068,0.034805,-0.407376
36764,9.920562,-1.969085,2.226079,-0.447927,0.040602,-0.365371
36765,9.887052,-1.810444,2.263715,-0.477811,0.032625,-0.332209
36766,9.842327,-1.838883,2.223370,-0.519069,0.025198,-0.294121
36767,9.823592,-2.013168,2.204224,-0.527977,0.021830,-0.270179
36768,9.820704,-2.137396,2.175255,-0.488909,0.011599,-0.248787
36769,9.834771,-2.087242,2.120246,-0.427444,0.010262,-0.228006
36770,9.804891,-2.069697,2.070741,-0.360678,0.009695,-0.216007
36771,9.766961,-2.099017,1.996052,-0.290184,0.006319,-0.199995
36772,9.758860,-1.982173,1.969059,-0.216551,0.009776,-0.180021
36773,9.705989,-1.765716,2.003663,-0.171403,0.011146,-0.166849
36774,9.684592,-1.504532,2.017903,-0.161971,0.013905,-0.163269
36775,9.676097,-1.357248,1.982152,-0.187059,0.010081,-0.151204
36776,9.676134,-1.255851,1.976933,-0.225858,0.012701,-0.142756
36777,9.666626,-1.399776,1.912151,-0.256190,0.013893,-0.137334
36778,9.673626,-1.583352,1.843443,-0.253319,0.014388,-0.127359
36779,9.603606,-1.590021,1.841512,-0.216707,0.016392,-0.127997
36780,9.560800,-1.647237,1.855152,-0.172038,0.017573,-0.127905
36781,9.547750,-1.566971,1.845521,-0.118592,0.012123,-0.117947
36782,9.539946,-1.472422,1.875640,-0.092760,0.007284,-0.113161
36783,9.622899,-1.296846,1.939352,-0.087836,0.005139,-0.098593
36784,9.626819,-1.183830,1.976005,-0.113282,0.011027,-0.098444
36785,9.634775,-1.171273,1.942007,-0.142435,0.005471,-0.091382
36786,9.627508,-1.244663,1.924798,-0.173721,0.007139,-0.087892
36787,9.656237,-1.331780,1.876343,-0.197487,0.004174,-0.077208
36788,9.729239,-1.509754,1.837706,-0.210629,0.002726,-0.068442
36789,9.714134,-1.664934,1.802039,-0.178603,-0.000003,-0.058099
36790,9.686093,-1.643763,1.796774,-0.125098,-0.003229,-0.051363
36791,9.643894,-1.518655,1.772951,-0.081428,-0.005318,-0.044734
36792,9.680284,-1.488208,1.801766,-0.062503,-0.011238,-0.038046
36793,9.698702,-1.451684,1.845778,-0.042517,-0.014852,-0.037117
36794,9.713036,-1.396098,1.838944,-0.029295,-0.011917,-0.037194
36795,9.679456,-1.387866,1.795314,-0.022280,-0.011006,-0.042849
36796,9.704376,-1.303906,1.868481,-0.036855,-0.004020,-0.048311
36797,9.681751,-1.307840,1.843210,-0.048598,-0.004603,-0.044586
36798,9.686971,-1.363459,1.831385,-0.063776,-0.009211,-0.040677
36799,9.693330,-1.387266,1.808027,-0.072294,-0.003173,-0.032878
36800,9.644851,-1.465838,1.780918,-0.055135,-0.003233,-0.029015
36801,9.652986,-1.385300,1.796718,-0.041421,-0.007307,-0.024970
36802,9.640785,-1.363940,1.850563,-0.027831,-0.008039,-0.024856
36803,9.689486,-1.354015,1.825078,-0.030733,-0.009026,-0.022942
36804,9.706789,-1.390911,1.819850,-0.016185,-0.008168,-0.020393
36805,9.725899,-1.322384,1.854068,-0.003325,-0.003011,-0.029358
36806,9.697243,-1.301315,1.851260,-0.001486,-0.004337,-0.025518
36807,9.660513,-1.319841,1.892870,-0.007251,-0.004061,-0.021173
36808,9.655487,-1.331778,1.852893,-0.004844,-0.000098,-0.015081
36809,9.627679,-1.279781,1.838924,-0.008818,-0.003393,-0.007412
36810,9.687090,-1.283600,1.832165,-0.009965,-0.000120,-0.005070
36811,9.627824,-1.279701,1.838221,-0.017596,-0.004830,0.007040
36812,9.639956,-1.260892,1.844210,-0.019014,-0.001192,0.013127
36813,9.668917,-1.280895,1.846227,-0.013081,-0.002556,0.013227
36814,9.634421,-1.277295,1.803707,-0.004725,-0.003726,0.010194
36815,9.687856,-1.256373,1.818961,0.001128,0.000494,0.006884
36816,9.657078,-1.231335,1.889745,0.002240,0.005052,0.001648
36817,9.687131,-1.217477,1.881459,-0.006551,0.007677,0.003979
36818,9.687349,-1.257442,1.820921,-0.004432,0.016066,0.001699
36819,9.645756,-1.259676,1.813158,-0.008930,0.009728,0.007629
36820,9.605238,-1.230153,1.793819,-0.016156,0.011390,0.017544
36821,9.633973,-1.250699,1.796634,-0.016167,0.001310,0.019917
36822,9.662768,-1.271422,1.798973,-0.011425,0.000970,0.021844
36823,9.674720,-1.253545,1.805417,-0.010234,-0.000057,0.020018
36824,9.685519,-1.268028,1.823314,-0.006049,0.004396,0.017317
36825,9.679942,-1.283058,1.783967,-0.000285,0.004122,0.012973
36826,9.675568,-1.264700,1.733728,0.010899,0.009523,0.004621
36827,9.712109,-1.204310,1.754334,0.009289,0.008243,-0.003482
36828,9.718528,-1.157373,1.783600,0.002186,0.006873,-0.010986
36829,9.718586,-1.156084,1.784121,-0.007821,0.004517,-0.016579
36830,9.709932,-1.265791,1.778652,-0.014349,0.008430,-0.021828
36831,9.650856,-1.259172,1.785502,-0.010071,0.003535,-0.030347
36832,9.639008,-1.276362,1.779030,-0.000843,-0.000545,-0.031975
36833,9.653304,-1.260046,1.712577,-0.001320,-0.001339,-0.033195
36834,9.610292,-1.323407,1.725835,0.005596,-0.004883,-0.039883
36835,9.610905,-1.319753,1.725217,0.021564,-0.011712,-0.031297
36836,9.621534,-1.361451,1.753401,0.027500,-0.013077,-0.031196
36837,9.627440,-1.344222,1.792476,0.050443,-0.011121,-0.031155
36838,9.658207,-1.326374,1.783221,0.057510,-0.011992,-0.024170
36839,9.634930,-1.290843,1.820021,0.066321,-0.014622,-0.026501
36840,9.684156,-1.206587,1.845632,0.064748,-0.009905,-0.024865
36841,9.714808,-1.189035,1.836397,0.044441,-0.010520,-0.023069
36842,9.680850,-1.181554,1.793665,0.019862,-0.010005,-0.021978
36843,9.696206,-1.282658,1.811820,0.005713,-0.004519,-0.026726
36844,9.691349,-1.293869,1.771655,-0.000100,-0.006491,-0.022894
36845,9.708130,-1.290602,1.828601,-0.002486,-0.004435,-0.019245
36846,9.707988,-1.361460,1.778089,-0.003477,-0.002239,-0.012458
36847,9.731449,-1.352522,1.802319,0.010632,0.000105,-0.010616
36848,9.678110,-1.373441,1.787253,0.020160,0.001696,-0.006251
36849,9.643129,-1.328215,1.806974,0.030530,-0.001866,-0.000994
36850,9.636334,-1.333942,1.840343,0.035995,-0.004022,-0.002111
36851,9.649511,-1.280727,1.835494,0.027352,-0.002481,0.004667
36852,9.667533,-1.286351,1.820280,0.028865,-0.001639,-0.000389
36853,9.690792,-1.278016,1.845077,0.024239,0.005433,-0.000775
36854,9.643500,-1.253218,1.858970,0.017419,0.009695,-0.002285
36855,9.662379,-1.225947,1.833289,0.001505,0.010913,-0.007455
36856,9.728433,-1.222816,1.794843,-0.011736,0.015737,-0.010285
36857,9.685634,-1.328742,1.748855,-0.019952,0.019857,-0.014935
36858,9.676627,-1.399240,1.806516,-0.004996,0.017047,-0.012197
36859,9.666305,-1.353201,1.779015,0.011712,0.018502,-0.009037
36860,9.678215,-1.332090,1.787297,0.022083,0.014945,-0.003774
36861,9.696047,-1.337405,1.773502,0.028149,0.010262,0.000268
36862,9.677796,-1.330990,1.790385,0.038441,0.012275,0.002107
