// Start Time: Unknown
// Update Rate: 100.0Hz
// Filter Profile: human (46.1)
// Firmware Version: 4.3.5
PacketCounter,Acc_X,Acc_Y,Acc_Z,Gyr_X,Gyr_Y,Gyr_Z
37297,9.652066,-1.817028,-0.906060,0.171512,-0.015919,-0.010007
37298,9.717169,-1.579538,-0.810476,0.169602,-0.014867,-0.010111
37299,9.731960,-1.426249,-0.783318,0.127255,-0.006516,-0.010895
37300,9.659221,-1.527643,-0.829855,0.079787,-0.003044,-0.009133
37301,9.662577,-1.628368,-0.968979,0.080350,-0.008825,-0.015870
37302,9.718972,-1.617942,-0.986957,0.075214,-0.011486,-0.022791
37303,9.748167,-1.653307,-1.014181,0.066092,0.003477,-0.024049
37304,9.689409,-1.708839,-1.125573,0.068524,0.017011,-0.024621
37305,9.620520,-1.696256,-1.102206,0.083229,0.021376,-0.024955
37306,9.590041,-1.661547,-1.047266,0.084313,0.012048,-0.023887
37307,9.649264,-1.624910,-1.009706,0.074209,0.002554,-0.021983
37308,9.710970,-1.562261,-0.919076,0.068283,0.000736,-0.020908
37309,9.716066,-1.531327,-0.887895,0.044164,0.010838,-0.015520
37310,9.707421,-1.502496,-0.932255,0.021571,0.016903,-0.015071
37311,9.685319,-1.517683,-0.910306,-0.003589,0.015954,-0.016827
37312,9.734842,-1.604728,-0.868234,-0.015287,0.017129,-0.014350
37313,9.696863,-1.625460,-0.898200,-0.032395,0.026475,-0.014930
37314,9.696909,-1.710710,-0.909528,-0.035321,0.025625,-0.015184
37315,9.681522,-1.714649,-0.959471,-0.027569,0.026290,-0.014618
37316,9.630244,-1.715109,-0.987257,-0.032979,0.027701,-0.011706
37317,9.576720,-1.719415,-0.991152,-0.025375,0.023549,-0.011449
37318,9.595144,-1.708799,-0.961994,-0.023403,0.011291,-0.010484
37319,9.638000,-1.742706,-0.913620,-0.023844,0.001413,-0.007938
37320,9.696179,-1.815648,-0.969754,-0.013898,-0.005240,-0.007674
37321,9.705404,-1.777822,-0.988259,-0.005413,0.003599,-0.006537
37322,9.678446,-1.823527,-0.997128,0.004607,0.012984,-0.006857
37323,9.665282,-1.802633,-0.993930,0.009873,0.011335,-0.006600
37324,9.654181,-1.842824,-0.950398,0.018576,0.009196,-0.007735
37325,9.640829,-1.844170,-1.025189,0.035982,0.004919,-0.010004
37326,9.674716,-1.850987,-1.022164,0.053680,-0.001063,-0.009165
37327,9.688437,-1.848978,-0.944811,0.065307,0.006808,-0.003088
37328,9.623431,-1.831065,-0.970877,0.081394,0.006924,-0.005183
37329,9.581043,-1.774200,-0.939581,0.095508,-0.003379,-0.003263
37330,9.653373,-1.672269,-0.891833,0.107500,-0.015406,-0.009586
37331,9.685416,-1.509008,-0.839769,0.085999,-0.018690,-0.008066
37332,9.714454,-1.546037,-0.867723,0.054625,-0.010627,-0.004925
37333,9.707458,-1.601941,-0.950875,0.037584,-0.001182,-0.007115
37334,9.660202,-1.660964,-0.963463,0.037289,0.000515,-0.010231
37335,9.725793,-1.591209,-0.922143,0.029394,-0.004978,-0.011093
37336,9.736973,-1.636947,-0.977440,0.006797,0.001057,-0.010664
37337,9.698829,-1.722947,-0.943310,0.009130,0.014478,-0.009711
37338,9.611468,-1.720793,-0.949517,0.021707,0.014974,-0.008832
37339,9.605116,-1.666469,-0.940849,0.017543,0.007292,-0.007971
37340,9.598408,-1.699214,-0.946279,0.008268,-0.009849,-0.008012
37341,9.699537,-1.720338,-0.940786,0.014044,-0.008252,-0.005930
37342,9.704230,-1.689779,-0.911520,0.011041,-0.002480,-0.010587
37343,9.704257,-1.711691,-0.989016,0.017984,0.001240,-0.011498
37344,9.700209,-1.630804,-0.927553,0.013155,0.006008,-0.008348
37345,9.711642,-1.653795,-0.904441,-0.005127,0.008614,-0.009428
37346,9.682584,-1.702955,-0.888698,-0.011859,0.014417,-0.006346
37347,9.655656,-1.771423,-0.974608,-0.010833,0.011720,-0.009632
37348,9.649102,-1.803847,-0.979414,-0.000883,0.005081,-0.009350
37349,9.689771,-1.776841,-0.971693,0.004610,-0.002958,-0.007853
37350,9.667487,-1.792553,-0.951111,0.006573,0.007455,-0.011902
37351,9.665465,-1.817934,-1.003514,0.026090,0.011681,-0.011932
37352,9.616476,-1.706015,-0.965825,0.036482,0.003581,-0.011705
37353,9.654977,-1.682416,-0.933289,0.033632,0.002838,-0.013542
37354,9.691245,-1.662164,-0.876801,0.022004,0.004111,-0.012657
37355,9.700480,-1.688527,-0.829414,0.017171,0.008878,-0.009511
37356,9.657916,-1.740460,-0.889617,0.011692,0.005583,-0.008475
37357,9.651294,-1.796043,-0.972133,0.021351,0.000641,-0.011306
37358,9.673915,-1.865672,-1.004644,0.030496,-0.002951,-0.012495
37359,9.739178,-2.057150,-1.000842,0.051693,-0.000088,-0.007705
37360,9.680936,-2.180103,-1.046418,0.105554,0.013026,-0.011320
37361,9.586925,-1.951313,-1.018955,0.174438,0.001621,-0.010558
37362,9.661324,-1.648159,-0.892390,0.184035,-0.014748,-0.009282
37363,9.650030,-1.538346,-0.901687,0.149160,-0.017660,-0.000626
37364,9.658817,-1.503036,-0.920183,0.119841,-0.017169,0.005416
37365,9.586739,-1.432934,-0.941508,0.101987,-0.009336,-0.001754
37366,9.613597,-1.386990,-0.932979,0.053613,-0.019159,0.000913
37367,9.624554,-1.434476,-0.989582,0.016715,-0.028363,-0.003605
37368,9.687217,-1.478627,-1.017188,-0.012305,-0.027447,-0.003864
37369,9.750083,-1.585767,-0.978999,-0.039373,-0.016140,-0.008233
37370,9.720793,-1.658325,-1.042364,-0.045695,0.004134,-0.004370
37371,9.696313,-1.677017,-0.997925,-0.042050,0.008568,-0.007092
37372,9.654001,-1.681711,-0.903636,-0.046290,0.007490,-0.010628
37373,9.656408,-1.677052,-0.928125,-0.054320,0.001763,-0.008274
37374,9.679151,-1.722785,-0.883840,-0.053734,0.000517,-0.011504
37375,9.670414,-1.757996,-0.865787,-0.050813,0.001380,-0.011268
37376,9.677369,-1.722933,-0.861298,-0.050741,0.001489,-0.012860
37377,9.652839,-1.764508,-0.895319,-0.052339,-0.003761,-0.013259
37378,9.675433,-1.746306,-0.917207,-0.051087,-0.008259,-0.011832
37379,9.707097,-1.755051,-0.892823,-0.055399,-0.009442,-0.013786
37380,9.761104,-1.770435,-0.966252,-0.068795,-0.002329,-0.012683
37381,9.743234,-1.801595,-1.072394,-0.057784,0.008980,-0.012920
37382,9.651400,-1.828904,-1.109495,-0.048513,0.014814,-0.010380
37383,9.640459,-1.803638,-1.131337,-0.043616,0.014758,-0.011659
37384,9.591346,-1.778170,-1.107291,-0.033656,0.008138,-0.011375
37385,9.593906,-1.750092,-1.053726,-0.020629,0.002607,-0.014020
37386,9.612235,-1.715629,-0.948581,-0.017768,-0.001238,-0.015648
37387,9.648483,-1.694405,-0.893615,-0.027995,-0.004258,-0.016507
37388,9.691574,-1.726787,-0.845968,-0.041528,-0.001973,-0.015685
37389,9.646926,-1.781381,-0.883958,-0.044595,-0.003063,-0.012758
37390,9.665277,-1.880061,-0.947501,-0.037278,-0.005496,-0.015610
37391,9.699151,-1.908590,-1.024039,-0.012273,-0.004664,-0.010689
37392,9.690237,-1.880129,-1.070672,0.013739,0.000210,-0.015058
37393,9.665692,-1.834852,-1.090603,0.039678,0.004972,-0.017841
37394,9.623241,-1.776350,-1.060174,0.054228,0.004589,-0.018492
37395,9.618937,-1.694873,-0.998336,0.058995,-0.000281,-0.020059
37396,9.583042,-1.625701,-1.040649,0.060098,-0.002866,-0.024938
37397,9.666632,-1.631562,-0.984552,0.038930,-0.012507,-0.023708
37398,9.740985,-1.610402,-0.975456,0.032556,-0.008293,-0.019097
37399,9.732444,-1.645885,-0.956388,0.016340,0.007348,-0.014489
37400,9.692427,-1.671048,-0.962633,0.008276,0.012926,-0.014709
37401,9.665605,-1.629461,-0.958103,-0.003124,0.012369,-0.009102
37402,9.645668,-1.641826,-0.960921,-0.016857,0.009706,-0.006969
37403,9.686576,-1.701617,-0.965496,-0.021365,0.003585,-0.007619
37404,9.695905,-1.751127,-0.996434,-0.017573,0.006124,-0.004023
37405,9.642198,-1.756692,-1.001421,-0.007452,0.015779,-0.007595
37406,9.620052,-1.772734,-0.979975,-0.002452,0.009110,-0.004443
37407,9.649589,-1.809093,-1.006854,0.013969,-0.001592,-0.010353
37408,9.716809,-1.735282,-0.990091,0.024937,-0.001704,-0.006427
37409,9.707746,-1.684523,-0.958457,0.017958,0.005879,-0.008063
37410,9.696594,-1.660342,-0.979602,0.013310,0.015569,-0.006225
37411,9.634110,-1.703159,-0.965144,0.010690,0.013015,-0.003346
37412,9.675019,-1.763544,-0.969013,0.017243,0.002298,-0.005114
37413,9.722081,-1.703074,-0.955429,0.024317,0.006266,-0.009216
37414,9.708810,-1.705454,-1.030184,0.031691,0.008548,-0.010195
37415,9.681915,-1.664230,-1.025544,0.034756,0.009640,-0.013129
37416,9.680039,-1.666625,-0.999812,0.044107,0.011007,-0.015629
37417,9.684790,-1.635342,-0.968296,0.038586,0.019022,-0.017154
37418,9.613401,-1.650361,-0.999666,0.037944,0.015553,-0.015793
37419,9.611572,-1.652411,-0.973886,0.039304,0.006567,-0.019402
37420,9.643426,-1.661248,-0.946837,0.028816,-0.001519,-0.017353
37421,9.700386,-1.737396,-0.976666,0.026391,0.000860,-0.015786
37422,9.709979,-1.786749,-1.006659,0.037476,0.005587,-0.011588
37423,9.723156,-1.695244,-0.917418,0.047419,0.005714,-0.017320
37424,9.725705,-1.690850,-0.940133,0.028392,0.009258,-0.012000
37425,9.656466,-1.702942,-0.996357,0.024206,0.012880,-0.013684
37426,9.636717,-1.715019,-0.998444,0.034969,0.009975,-0.017924
37427,9.639353,-1.710166,-1.021359,0.034429,0.002010,-0.021593
37428,9.640432,-1.795471,-1.032496,0.040368,-0.000742,-0.026148
37429,9.656613,-1.786483,-0.979515,0.062998,0.004776,-0.030749
37430,9.637084,-1.797454,-0.981690,0.072155,0.001223,-0.031937
37431,9.615296,-1.811658,-0.960130,0.082654,-0.006713,-0.033271
37432,9.667444,-1.806107,-0.929417,0.095031,-0.011060,-0.031093
37433,9.662876,-1.747151,-0.946450,0.096862,-0.012186,-0.029446
37434,9.683339,-1.732141,-0.942177,0.093765,-0.008654,-0.023082
37435,9.660733,-1.684285,-0.986659,0.092272,-0.004475,-0.019780
37436,9.633670,-1.642935,-0.982688,0.081203,0.000099,-0.018684
37437,9.620219,-1.621796,-0.980643,0.060000,-0.009712,-0.015773
37438,9.710226,-1.617968,-0.996861,0.039024,-0.009880,-0.012353
37439,9.694475,-1.600070,-0.971237,0.023806,0.003017,-0.011101
37440,9.670189,-1.618617,-0.925956,-0.002673,0.006217,-0.012666
37441,9.646172,-1.661318,-0.958023,-0.014375,0.007321,-0.010173
37442,9.651507,-1.716939,-0.939816,-0.026941,0.006728,-0.011023
37443,9.670821,-1.816939,-1.000340,-0.028921,0.007648,-0.009507
37444,9.646818,-1.859666,-1.032692,-0.010560,0.005280,-0.010028
37445,9.664940,-1.848258,-1.004558,0.004059,0.005058,-0.012284
37446,9.685288,-1.833826,-1.000264,0.019992,0.005072,-0.011242
37447,9.691948,-1.799426,-0.994040,0.035657,0.011473,-0.011499
37448,9.664883,-1.758226,-0.989493,0.038270,0.014018,-0.014405
37449,9.665274,-1.757278,-0.987352,0.056182,0.013117,-0.014882
37450,9.640109,-1.688558,-0.929625,0.056145,0.008396,-0.016724
37451,9.636327,-1.718048,-0.957042,0.054054,0.004494,-0.015457
37452,9.652560,-1.734256,-0.981272,0.065501,-0.001626,-0.015015
37453,9.677001,-1.689253,-0.947867,0.072901,-0.003945,-0.019455
37454,9.672099,-1.631451,-0.965057,0.072304,-0.002680,-0.016240
37455,9.683172,-1.590656,-1.007646,0.060966,-0.001089,-0.021709
37456,9.697272,-1.609079,-1.008125,0.051913,-0.002080,-0.025550
37457,9.709156,-1.630403,-0.984555,0.043053,-0.000198,-0.021236
37458,9.700982,-1.665385,-0.964289,0.036803,0.004222,-0.019834
37459,9.707669,-1.630219,-0.958303,0.028194,0.011121,-0.018468
37460,9.667986,-1.655753,-0.963645,0.017047,0.015577,-0.015780
37461,9.592284,-1.677561,-0.947179,0.011290,0.013905,-0.017832
37462,9.646460,-1.669438,-0.940221,0.008356,0.006252,-0.010375
37463,9.628867,-1.678957,-0.967544,0.006313,-0.002281,-0.012505
37464,9.651351,-1.661254,-0.988243,0.011283,-0.002220,-0.015383
37465,9.707232,-1.625310,-0.929272,0.007947,0.003082,-0.013752
37466,9.727528,-1.610619,-0.925081,-0.004106,0.010454,-0.010988
37467,9.693028,-1.693218,-0.912838,-0.016187,0.013099,-0.010046
37468,9.651467,-1.746956,-0.971887,-0.012443,0.010968,-0.008302
37469,9.645421,-1.779718,-0.976133,-0.002999,0.001058,-0.008151
37470,9.643307,-1.781929,-0.952079,0.008004,-0.003585,-0.007653
37471,9.657166,-1.801549,-0.953422,0.019488,-0.004960,-0.005372
37472,9.660393,-1.707939,-0.991302,0.038376,-0.008652,-0.007523
37473,9.723211,-1.548781,-0.941897,0.029706,-0.011216,-0.009806
37474,9.742035,-1.446914,-0.928265,0.001038,-0.000692,-0.012774
37475,9.749846,-1.499243,-0.933674,-0.037324,0.014721,-0.012942
37476,9.664370,-1.610211,-1.028517,-0.054756,0.018854,-0.010680
37477,9.636298,-1.658682,-1.011327,-0.053579,0.025680,-0.011893
37478,9.638075,-1.744405,-1.020742,-0.056215,0.018412,-0.010809
37479,9.634445,-1.773545,-1.049070,-0.040938,0.010282,-0.010198
37480,9.634732,-1.772041,-1.048976,-0.022524,0.003333,-0.014128
37481,9.682075,-1.772596,-0.970588,-0.017223,0.006470,-0.012032
37482,9.688567,-1.737582,-0.965421,-0.004060,0.005837,-0.014403
37483,9.712826,-1.692030,-0.932284,0.001315,0.009073,-0.013898
37484,9.723278,-1.626389,-0.897634,-0.004415,0.012121,-0.014130
37485,9.699722,-1.669100,-0.928780,-0.022684,0.019261,-0.013390
37486,9.644055,-1.677522,-0.909101,-0.032786,0.020976,-0.013975
37487,9.649792,-1.732758,-0.889964,-0.041848,0.013190,-0.010141
37488,9.612340,-1.755454,-0.921072,-0.041037,0.005447,-0.010461
37489,9.663101,-1.802229,-1.021779,-0.030125,-0.004010,-0.010196
37490,9.745477,-1.743848,-1.032217,-0.023369,-0.000427,-0.007975
37491,9.727928,-1.753377,-1.059973,-0.019357,0.007190,-0.007342
37492,9.730466,-1.749530,-1.082993,-0.017689,0.022006,-0.004913
37493,9.650936,-1.688216,-1.031312,-0.009327,0.026233,-0.005756
37494,9.632907,-1.673379,-0.979732,-0.017464,0.022307,-0.009694
37495,9.642504,-1.698345,-0.931518,-0.021495,0.009967,-0.012165
37496,9.690450,-1.723720,-0.929657,-0.022554,0.012685,-0.008900
37497,9.658503,-1.803373,-0.941984,-0.013663,0.015555,-0.011371
37498,9.645014,-1.782113,-0.939368,0.000885,0.015280,-0.012013
37499,9.626896,-1.767077,-0.888616,0.005615,0.010331,-0.011938
37500,9.620204,-1.736883,-0.958819,0.013563,0.004610,-0.008479
37501,9.660308,-1.709010,-0.951291,0.018276,-0.005061,-0.010236
37502,9.701215,-1.705344,-1.021161,0.008342,0.001572,-0.012183
37503,9.695328,-1.738048,-1.025429,0.018007,0.006047,-0.009716
37504,9.681741,-1.717051,-1.023220,0.024514,0.006671,-0.014058
37505,9.683532,-1.688520,-0.969019,0.027351,0.007462,-0.012228
37506,9.660047,-1.731678,-1.000642,0.027335,0.002738,-0.014061
37507,9.670226,-1.666344,-0.965892,0.034237,0.006526,-0.015021
37508,9.654322,-1.648291,-0.939625,0.027259,0.002639,-0.012471
37509,9.688398,-1.653783,-0.936368,0.012802,0.007729,-0.011594
37510,9.653401,-1.673692,-0.990958,0.015396,0.005554,-0.016333
37511,9.635213,-1.658380,-0.940720,0.020144,0.005334,-0.014423
37512,9.685217,-1.565630,-0.899203,0.001683,0.002798,-0.014178
37513,9.697939,-1.611707,-0.953147,-0.026716,0.006884,-0.015886
37514,9.687908,-1.764652,-0.973227,-0.034515,0.010737,-0.013022
37515,9.682229,-1.796588,-0.977425,-0.020271,0.012137,-0.016809
37516,9.664994,-1.805598,-1.004193,-0.006408,0.013039,-0.012629
37517,9.625499,-1.831563,-1.010041,0.005316,0.016713,-0.013268
37518,9.592028,-1.823927,-1.011216,0.028870,0.003306,-0.015529
37519,9.667383,-1.774350,-0.948071,0.035432,-0.007473,-0.015603
37520,9.701873,-1.689334,-0.959089,0.040636,-0.009149,-0.013733
37521,9.746556,-1.655103,-0.999888,0.027716,0.001201,-0.012509
37522,9.726934,-1.667686,-1.002245,0.030038,0.014861,-0.014916
37523,9.647119,-1.605934,-0.951132,0.023835,0.014629,-0.016949
37524,9.661401,-1.624642,-0.950802,0.007137,0.010868,-0.013438
37525,9.649766,-1.690335,-0.959416,-0.004203,0.007679,-0.020763
37526,9.688265,-1.779340,-0.990844,0.005757,0.010520,-0.015151
37527,9.636807,-1.872616,-1.006622,0.013407,0.006476,-0.014826
37528,9.659331,-1.854995,-1.026278,0.044102,-0.000143,-0.011469
37529,9.619076,-1.766643,-0.968862,0.061103,0.001970,-0.011836
37530,9.671014,-1.671625,-0.951237,0.059334,-0.003595,-0.007408
37531,9.696993,-1.624116,-0.942275,0.047239,-0.000996,-0.006501
37532,9.651644,-1.594574,-0.967129,0.040502,0.000128,-0.006903
37533,9.694898,-1.626422,-0.916810,0.027029,0.002373,-0.007704
37534,9.692684,-1.628882,-0.892294,0.011866,-0.000849,-0.005658
37535,9.671593,-1.669918,-0.948345,0.006209,0.007005,-0.005681
37536,9.634260,-1.693828,-0.979045,0.014395,0.001604,-0.006982
37537,9.674210,-1.665727,-0.971780,0.008188,-0.003367,-0.010828
37538,9.744385,-1.674487,-0.991125,0.006733,-0.003816,-0.010946
37539,9.727034,-1.684154,-1.018512,0.001232,0.008959,-0.012340
37540,9.665383,-1.726797,-1.003709,0.009815,0.018226,-0.016159
37541,9.651827,-1.705411,-1.001182,0.012946,0.007920,-0.014811
37542,9.641795,-1.653203,-0.970617,0.018301,0.001718,-0.017940
37543,9.726071,-1.681515,-0.990420,0.010337,0.000642,-0.013711
37544,9.695914,-1.733299,-0.949554,0.011722,0.012487,-0.017898
37545,9.611085,-1.729940,-0.980825,0.018000,0.012829,-0.017464
37546,9.629013,-1.717609,-0.952030,0.028026,0.001599,-0.018900
37547,9.657445,-1.665750,-0.967670,0.030320,-0.005693,-0.019073
37548,9.711445,-1.656691,-0.961720,0.022587,-0.006486,-0.019627
37549,9.747927,-1.658497,-0.983144,0.024578,0.002063,-0.017513
37550,9.734321,-1.636978,-0.980932,0.022435,0.014275,-0.018721
37551,9.665860,-1.597919,-0.907464,0.011562,0.012293,-0.014724
37552,9.640477,-1.643898,-0.914373,-0.007731,0.012714,-0.015995
37553,9.639667,-1.670187,-0.966358,-0.014543,0.009000,-0.016615
37554,9.620111,-1.682314,-0.969649,-0.015767,0.002076,-0.013796
37555,9.679876,-1.729946,-0.945094,-0.019213,0.002537,-0.012403
37556,9.648583,-1.719675,-0.971596,-0.011101,0.006514,-0.008476
37557,9.668667,-1.704968,-0.967470,-0.006661,0.007964,-0.009718
37558,9.666546,-1.706781,-0.942958,-0.014927,0.003796,-0.010458
37559,9.722834,-1.695231,-0.960767,-0.012018,0.004700,-0.010223
37560,9.723092,-1.694029,-0.960274,-0.015237,0.010175,-0.011800
37561,9.697711,-1.740300,-0.967499,-0.013787,0.015358,-0.009869
37562,9.629176,-1.754689,-1.024325,-0.013327,0.013900,-0.009903
37563,9.662073,-1.734853,-0.943892,0.002069,0.005947,-0.010825
37564,9.672823,-1.694387,-0.987134,0.005289,0.000471,-0.009248
37565,9.658987,-1.673646,-0.985606,0.000993,0.008671,-0.007568
37566,9.670898,-1.695661,-0.961513,0.003595,0.011224,-0.010487
37567,9.651359,-1.617815,-0.977847,0.000998,0.010702,-0.017104
37568,9.623679,-1.666793,-0.961005,-0.008960,0.010522,-0.011368
37569,9.668435,-1.722481,-0.987545,-0.007499,0.006245,-0.013065
37570,9.666338,-1.724070,-0.963046,-0.005122,0.003782,-0.013014
37571,9.666611,-1.722738,-0.962692,0.001233,0.004230,-0.014168
37572,9.664524,-1.724394,-0.937942,0.003140,0.007955,-0.012269
37573,9.695269,-1.760150,-0.963454,0.006056,0.004130,-0.013847
37574,9.667455,-1.719034,-0.960828,0.012333,0.004484,-0.013406
37575,9.645525,-1.734486,-0.939831,0.015250,0.000660,-0.014983
37576,9.709991,-1.686155,-0.976820,0.022903,0.001372,-0.012829
37577,9.701945,-1.631479,-0.970510,0.013246,0.006299,-0.011661
37578,9.679010,-1.675060,-1.001935,0.007499,0.009312,-0.011918
37579,9.643063,-1.670536,-0.979578,0.002303,0.006231,-0.015616
37580,9.625909,-1.680123,-1.006783,0.004524,0.003579,-0.012374
37581,9.679887,-1.671227,-0.999865,0.012940,0.007949,-0.014820
37582,9.673076,-1.678432,-0.926738,0.002843,0.004868,-0.017246
37583,9.650152,-1.721901,-0.958729,0.003298,0.001383,-0.007740
37584,9.686619,-1.724039,-0.980125,0.006068,-0.000603,-0.015664
37585,9.661336,-1.770272,-0.988191,0.013720,0.000115,-0.013509
37586,9.720006,-1.755828,-1.029760,0.029102,0.001647,-0.010794
37587,9.701419,-1.740836,-0.979498,0.037053,0.007477,-0.013212
37588,9.673571,-1.700056,-0.976031,0.042944,0.009389,-0.014337
37589,9.668817,-1.614605,-0.940417,0.042801,0.004470,-0.012958
37590,9.640939,-1.573555,-0.937465,0.025197,0.005579,-0.018920
37591,9.658006,-1.679472,-0.948013,0.011278,-0.002258,-0.013780
37592,9.694555,-1.681318,-0.969119,0.018842,0.005124,-0.017767
37593,9.692499,-1.682618,-0.944375,0.020232,0.000753,-0.017862
37594,9.695179,-1.678358,-0.968006,0.014325,0.003572,-0.014931
37595,9.638513,-1.715738,-1.002250,0.019227,0.003575,-0.016206
37596,9.678392,-1.686557,-0.994538,0.027051,-0.000245,-0.019052
37597,9.666964,-1.662311,-1.017393,0.013878,0.000295,-0.016709
37598,9.715290,-1.686751,-1.015107,0.020293,0.005581,-0.017658
37599,9.715718,-1.685108,-1.013742,0.020570,0.015419,-0.020434
37600,9.641195,-1.680003,-0.944964,0.017814,0.012681,-0.014316
37601,9.646330,-1.673083,-0.991973,0.016381,0.007491,-0.016238
37602,9.644251,-1.674507,-0.967116,0.011420,0.002660,-0.015172
37603,9.670359,-1.715792,-0.944716,0.012212,-0.005173,-0.013843
37604,9.729002,-1.701034,-0.986975,0.015196,-0.004167,-0.015205
37605,9.754614,-1.652088,-0.978833,0.009888,0.002111,-0.013695
37606,9.731964,-1.695617,-1.010007,0.012600,0.014318,-0.016213
37607,9.687540,-1.637374,-0.981582,0.019340,0.013233,-0.015804
37608,9.668222,-1.649662,-0.983578,0.004564,0.015129,-0.019937
37609,9.671085,-1.644997,-1.006309,0.005495,0.012216,-0.019996
37610,9.652603,-1.628761,-0.955687,-0.002643,0.017669,-0.020321
37611,9.659278,-1.683258,-0.935166,-0.006558,0.019576,-0.018903
37612,9.603711,-1.692093,-0.915765,-0.009983,0.015290,-0.019315
37613,9.600216,-1.749509,-0.996230,-0.005427,0.005370,-0.016207
37614,9.662869,-1.675104,-0.956749,0.001805,-0.001903,-0.017624
37615,9.696292,-1.707667,-1.007032,0.007481,-0.004989,-0.015761
37616,9.735987,-1.678426,-0.999900,0.005070,0.002201,-0.014020
37617,9.688204,-1.651271,-1.001052,0.004269,0.010032,-0.015355
37618,9.666404,-1.666664,-0.979438,-0.001179,0.011386,-0.012457
37619,9.646995,-1.679388,-0.982009,-0.000713,0.009930,-0.012486
37620,9.659061,-1.700738,-0.958076,-0.008958,0.005722,-0.013224
37621,9.658616,-1.727696,-1.010572,-0.002814,0.001182,-0.011388
37622,9.659559,-1.698225,-0.957519,0.007588,0.004669,-0.015353
37623,9.665354,-1.663064,-0.952654,0.003620,0.001744,-0.014139
37624,9.653788,-1.639255,-0.975763,0.003928,0.000105,-0.010974
37625,9.694170,-1.700398,-0.954335,-0.003252,-0.002099,-0.013161
37626,9.696811,-1.696297,-0.978527,-0.004654,0.002269,-0.013076
37627,9.711276,-1.714868,-0.979053,0.000686,0.005562,-0.012575
37628,9.660393,-1.718909,-1.008570,0.003250,0.012856,-0.013704
37629,9.623711,-1.742966,-1.038859,0.011703,0.005775,-0.010208
37630,9.638812,-1.733732,-0.986126,0.022879,0.006172,-0.011036
37631,9.598843,-1.670443,-1.006907,0.029812,0.000547,-0.015617
37632,9.647773,-1.666895,-0.952417,0.032333,-0.013289,-0.011197
37633,9.692683,-1.604315,-0.941789,0.026995,-0.016584,-0.011698
37634,9.734553,-1.572542,-0.959860,0.014573,-0.012434,-0.013981
37635,9.737126,-1.568488,-0.984476,0.002634,-0.000178,-0.014290
37636,9.703479,-1.561179,-0.986840,-0.013192,0.009241,-0.014979
37637,9.690537,-1.629725,-0.970747,-0.025535,0.013480,-0.018859
37638,9.662787,-1.706518,-1.006676,-0.029032,0.009096,-0.017673
37639,9.627809,-1.791637,-0.970334,-0.016325,0.010053,-0.019983
37640,9.644872,-1.806866,-0.994702,0.000841,0.005743,-0.015776
37641,9.622526,-1.850363,-1.026392,0.018795,0.000346,-0.017989
37642,9.647906,-1.801251,-1.018036,0.039413,-0.004402,-0.015173
37643,9.688043,-1.743951,-0.957935,0.048076,-0.006462,-0.014671
37644,9.650300,-1.678087,-1.003426,0.057799,-0.006513,-0.015624
37645,9.678570,-1.598313,-0.966440,0.056311,-0.002237,-0.013950
37646,9.703859,-1.549529,-0.957851,0.039453,0.000425,-0.014989
37647,9.667755,-1.545315,-0.935907,0.018163,0.001610,-0.014778
37648,9.684659,-1.561183,-0.960559,0.005458,0.000646,-0.012463
37649,9.645570,-1.587916,-0.967500,-0.007949,0.002861,-0.014890
37650,9.637474,-1.651296,-1.000362,-0.011831,0.000020,-0.015267
37651,9.678136,-1.711868,-0.978837,-0.011911,-0.000070,-0.013669
37652,9.697471,-1.724710,-1.028262,-0.007520,-0.003421,-0.015114
37653,9.692322,-1.757217,-1.032769,0.008829,0.000120,-0.012257
37654,9.715167,-1.711018,-1.000218,0.013221,0.006335,-0.011710
37655,9.684487,-1.672931,-0.973584,0.011538,0.007597,-0.016597
37656,9.670492,-1.651980,-0.971842,0.012671,0.007701,-0.010087
37657,9.645762,-1.698724,-0.979070,0.006598,0.002746,-0.015520
37658,9.682419,-1.700255,-1.000024,0.021694,0.001271,-0.017771
37659,9.702900,-1.656205,-0.943265,0.022754,0.003279,-0.019229
37660,9.727717,-1.635147,-0.987198,0.011537,0.007596,-0.016603
37661,9.673330,-1.734837,-0.953604,0.015967,0.009075,-0.017852
37662,9.649928,-1.688416,-0.999176,0.026083,0.007492,-0.017231
37663,9.633541,-1.669782,-0.973535,0.017424,-0.000029,-0.019723
37664,9.675056,-1.665772,-1.042878,0.022167,-0.000180,-0.017801
37665,9.704512,-1.675284,-0.990989,0.025689,0.009037,-0.018811
37666,9.710237,-1.639798,-0.985223,0.026275,0.012499,-0.020246
37667,9.676722,-1.632427,-0.986607,0.016045,0.009162,-0.019462
37668,9.652265,-1.678619,-0.993088,0.020002,0.012098,-0.020689
37669,9.655527,-1.645662,-0.963579,0.016011,0.004334,-0.019654
37670,9.687020,-1.680652,-0.988543,0.014641,0.003957,-0.021371
37671,9.670619,-1.661701,-0.963163,0.022330,-0.000000,-0.021004
37672,9.678675,-1.623327,-0.982461,0.015618,0.005876,-0.021233
37673,9.648963,-1.703291,-0.993963,0.009234,0.000554,-0.020263
37674,9.700061,-1.724146,-1.015718,0.013583,0.001951,-0.019915
37675,9.697970,-1.725105,-0.991214,0.017349,-0.000114,-0.018132
37676,9.686358,-1.701164,-1.014177,0.028049,0.001780,-0.018946
37677,9.672275,-1.680236,-1.012735,0.032078,0.002830,-0.012201
37678,9.672921,-1.650544,-0.959230,0.032820,0.006465,-0.016841
37679,9.624877,-1.624024,-0.960530,0.024910,0.000587,-0.014382
37680,9.651095,-1.693423,-0.990126,0.017241,-0.005032,-0.016721
37681,9.670882,-1.677938,-0.986855,0.022456,-0.006626,-0.014822
37682,9.709873,-1.677116,-1.032543,0.028728,-0.006214,-0.014385
37683,9.690527,-1.690166,-1.035708,0.034158,0.002022,-0.015323
37684,9.661986,-1.649872,-1.033540,0.036816,0.002699,-0.010295
37685,9.664929,-1.618018,-1.004347,0.034813,0.003601,-0.008789
37686,9.665408,-1.588733,-0.951329,0.030439,-0.002628,-0.009315
37687,9.653840,-1.537215,-0.922422,0.016682,-0.005633,-0.005523
37688,9.653903,-1.536681,-0.922648,-0.004028,-0.001063,-0.006744
37689,9.636816,-1.547735,-0.950591,-0.016810,-0.002148,-0.002815
37690,9.672926,-1.578780,-1.024912,-0.033119,-0.000921,-0.005474
37691,9.672991,-1.577807,-1.025796,-0.044712,-0.004659,-0.006393
37692,9.706726,-1.610837,-1.076387,-0.058179,0.002247,-0.007045
37693,9.747720,-1.671093,-1.054638,-0.058943,0.010155,-0.010024
37694,9.702056,-1.641675,-1.080757,-0.056521,0.012545,-0.009777
37695,9.684777,-1.715880,-1.016235,-0.056576,0.017287,-0.007997
37696,9.674838,-1.782069,-1.023946,-0.044689,0.016547,-0.013661
37697,9.670347,-1.785744,-0.974971,-0.018124,0.009110,-0.013754
37698,9.670938,-1.755695,-0.921978,-0.006974,0.004735,-0.014775
37699,9.661679,-1.729160,-0.969399,0.001278,-0.000575,-0.016028
