// Start Time: Unknown
// Update Rate: 100.0Hz
// Filter Profile: human (46.1)
// Firmware Version: 4.3.5
PacketCounter,Acc_X,Acc_Y,Acc_Z,Gyr_X,Gyr_Y,Gyr_Z
49743,9.849452,-0.877217,0.345553,-0.024108,0.005163,-0.010523
49744,9.811460,-0.877462,0.408384,-0.017002,0.003998,-0.010382
49745,9.866269,-0.872718,0.384695,-0.009795,0.000335,-0.008893
49746,9.882241,-0.817632,0.405092,-0.004991,0.003980,-0.014039
49747,9.823379,-0.854028,0.464030,-0.011877,0.003293,-0.014905
49748,9.806824,-0.855327,0.425508,-0.001498,0.003072,-0.012935
49749,9.786062,-0.890413,0.421778,0.000236,0.000779,-0.017215
49750,9.835904,-0.867496,0.414498,0.008172,0.001562,-0.015053
49751,9.880696,-0.827156,0.423743,0.003405,0.004217,-0.016736
49752,9.900945,-0.895411,0.358804,0.005386,0.003756,-0.012072
49753,9.934923,-0.926774,0.331471,0.013886,0.001499,-0.013419
49754,9.913326,-0.910826,0.309483,0.022648,0.004227,-0.009237
49755,9.931476,-0.996586,0.261784,0.035069,-0.005783,-0.007507
49756,9.983302,-0.958016,0.236526,0.060227,-0.010835,0.004315
49757,9.934272,-0.873559,0.312446,0.074073,-0.015128,0.010795
49758,9.890274,-0.807127,0.371452,0.072860,-0.022195,0.018388
49759,9.845474,-0.689876,0.410958,0.068495,-0.029552,0.022092
49760,9.846274,-0.585164,0.477099,0.046893,-0.034206,0.019566
49761,9.823349,-0.482478,0.538418,0.020272,-0.021843,0.017559
49762,9.799618,-0.485712,0.531188,-0.032088,-0.023827,0.002980
49763,9.805544,-0.554489,0.531766,-0.076881,-0.008211,-0.008614
49764,9.793899,-0.731691,0.424962,-0.118177,-0.009184,-0.017179
49765,9.820784,-0.920110,0.379067,-0.128884,-0.001526,-0.023215
49766,9.775491,-1.063265,0.299829,-0.113846,0.001185,-0.024372
49767,9.838372,-1.109227,0.259642,-0.093100,0.000709,-0.020470
49768,9.798912,-1.163950,0.233484,-0.066745,-0.000448,-0.012856
49769,9.817813,-1.143579,0.254013,-0.033050,-0.004580,-0.005813
49770,9.848375,-1.103632,0.329790,-0.009720,-0.005337,-0.004141
49771,9.817442,-0.947567,0.409359,0.018175,-0.003739,-0.003477
49772,9.792422,-0.860065,0.491133,0.012574,-0.003031,-0.007178
49773,9.808339,-0.805104,0.511418,0.006870,0.000178,-0.012221
49774,9.835209,-0.835786,0.517786,-0.008493,0.008037,-0.018551
49775,9.860465,-0.920762,0.436610,-0.011872,0.009590,-0.021724
49776,9.800182,-1.011499,0.408597,0.001355,0.017183,-0.019890
49777,9.848388,-1.042830,0.314584,0.020791,0.008541,-0.019382
49778,9.849474,-1.092331,0.334562,0.048012,0.015684,-0.016546
49779,9.872406,-1.037475,0.323001,0.075634,0.009660,-0.004929
49780,9.882193,-0.913971,0.342693,0.093562,0.004582,-0.004284
49781,9.863120,-0.775240,0.373495,0.094495,0.007142,-0.004352
49782,9.867842,-0.634087,0.408876,0.074054,0.003181,-0.007670
49783,9.844095,-0.635060,0.404660,0.040471,0.004798,-0.013372
49784,9.825445,-0.652964,0.384086,0.018781,0.005763,-0.020667
49785,9.850882,-0.738114,0.303026,-0.006650,0.003190,-0.021505
49786,9.872287,-0.857101,0.256417,-0.013204,-0.001852,-0.021736
49787,9.841091,-0.963122,0.216056,-0.006429,0.001337,-0.022228
49788,9.849387,-1.013126,0.200520,0.016146,-0.010164,-0.014398
49789,9.837811,-0.887519,0.318653,0.028956,-0.014518,-0.009212
49790,9.824726,-0.817611,0.348679,0.024047,-0.018807,-0.001985
49791,9.824296,-0.778974,0.451919,0.017611,-0.023205,-0.004283
49792,9.838103,-0.741296,0.487227,0.009560,-0.024650,-0.004368
49793,9.860042,-0.755112,0.507762,-0.005911,-0.014305,-0.012055
49794,9.867309,-0.754055,0.472596,-0.028763,-0.010955,-0.021984
49795,9.841260,-0.877600,0.414919,-0.038200,-0.008161,-0.023996
49796,9.846120,-0.999171,0.328926,-0.035481,0.002124,-0.025504
49797,9.843956,-1.120176,0.277018,-0.016494,-0.002829,-0.023561
49798,9.817307,-1.086108,0.270679,0.009757,-0.001420,-0.017297
49799,9.846355,-1.099673,0.259365,0.030516,-0.001814,-0.013384
49800,9.853935,-0.992453,0.294682,0.056385,-0.006063,-0.010589
49801,9.873984,-0.796824,0.349014,0.069810,-0.000332,-0.009520
49802,9.863905,-0.760559,0.382044,0.044386,0.000201,-0.013764
49803,9.915546,-0.720644,0.357465,0.032165,0.005200,-0.012787
49804,9.912535,-0.684572,0.356809,0.004869,0.003689,-0.020336
49805,9.844398,-0.723913,0.343662,-0.018670,0.006292,-0.021255
49806,9.808297,-0.812865,0.320283,-0.026833,0.004197,-0.019263
49807,9.845567,-0.878139,0.293992,-0.023453,0.002652,-0.016091
49808,9.801235,-0.915929,0.285244,-0.013079,-0.000682,-0.010714
49809,9.896512,-0.905406,0.304952,0.002190,0.000266,-0.012574
49810,9.878136,-0.817551,0.352625,0.013846,-0.001674,-0.010041
49811,9.898866,-0.779725,0.356447,0.001964,0.002115,-0.011854
49812,9.872009,-0.746512,0.350458,-0.004918,0.001409,-0.012708
49813,9.875267,-0.779575,0.351643,-0.018681,-0.000003,-0.014415
49814,9.839249,-0.869100,0.327692,-0.023345,0.000140,-0.014745
49815,9.851560,-0.885855,0.277404,-0.017745,-0.000547,-0.011047
49816,9.815664,-0.869271,0.322393,0.000909,-0.001127,-0.009730
49817,9.784983,-0.763799,0.420226,-0.005374,0.001971,-0.007844
49818,9.802375,-0.798382,0.353870,-0.014475,0.000407,-0.009224
49819,9.855169,-0.809958,0.347608,-0.016806,0.005185,-0.014525
49820,9.863594,-0.860460,0.332498,-0.021017,-0.001514,-0.012875
49821,9.908034,-0.926528,0.272173,-0.017974,0.004432,-0.013753
49822,9.933197,-0.974057,0.296108,-0.003869,0.004650,-0.014836
49823,9.913372,-0.941503,0.257004,0.018314,0.010057,-0.006153
49824,9.892805,-0.871444,0.323274,0.020418,0.007128,-0.000133
49825,9.867701,-0.822948,0.300461,0.018569,0.005654,0.009650
49826,9.882322,-0.838485,0.356890,0.013791,-0.004262,0.021662
49827,9.893675,-0.820817,0.411579,0.022319,-0.005919,0.033402
49828,9.994986,-0.777417,0.502157,0.019187,-0.008791,0.046027
49829,10.123800,-0.805940,0.493356,0.012212,-0.012706,0.063761
49830,10.347567,-0.827808,0.503955,-0.004294,-0.013903,0.094647
49831,10.531601,-0.910112,0.489199,-0.015327,-0.016472,0.131282
49832,10.553053,-0.992398,0.528735,-0.036231,-0.008887,0.176984
49833,10.452125,-1.094692,0.437200,-0.042074,-0.014270,0.223432
49834,10.325171,-1.271762,0.375953,-0.054748,-0.022977,0.270302
49835,10.327135,-1.409192,0.269617,-0.027621,-0.033536,0.317443
49836,10.263696,-1.571397,0.237267,-0.013224,-0.051237,0.368825
49837,10.162517,-1.670660,0.230235,0.032900,-0.069266,0.416933
49838,10.189006,-1.762124,0.319062,0.073737,-0.090142,0.472796
49839,10.323570,-1.802700,0.339432,0.105166,-0.113586,0.529146
49840,10.523794,-1.879640,0.407073,0.111274,-0.134803,0.590004
49841,10.778108,-2.049675,0.468634,0.106780,-0.141359,0.663885
49842,10.833702,-2.223569,0.508128,0.112278,-0.132742,0.742253
49843,10.707383,-2.503567,0.463193,0.128976,-0.133601,0.829459
49844,10.571007,-2.652129,0.415461,0.200561,-0.121062,0.902312
49845,10.405406,-2.526274,0.461347,0.258842,-0.109432,0.977086
49846,10.230732,-2.407445,0.436282,0.252923,-0.096716,1.037078
49847,10.133028,-2.515787,0.418356,0.201160,-0.092515,1.091755
49848,10.188375,-2.994635,0.360468,0.139248,-0.086300,1.140332
49849,10.426294,-3.611937,0.188493,0.124476,-0.087352,1.194018
49850,10.681179,-4.220378,0.113973,0.231457,-0.056711,1.248551
49851,10.722440,-4.691735,0.076245,0.436062,-0.012894,1.294842
49852,10.648415,-4.835718,0.032271,0.706324,0.032858,1.338502
49853,10.517109,-4.748147,0.100134,0.939921,0.079371,1.390682
49854,10.356006,-4.710111,0.195945,1.114922,0.127619,1.439927
49855,10.256141,-4.526723,0.437443,1.239343,0.174911,1.499652
49856,10.095367,-4.223764,0.565390,1.288606,0.219833,1.555855
49857,9.972797,-4.233858,0.737693,1.239941,0.256434,1.602155
49858,9.965417,-4.389819,0.865478,1.193330,0.286969,1.650853
49859,9.994502,-4.629479,0.983154,1.150162,0.328501,1.694113
49860,9.899469,-4.776990,1.014262,1.147141,0.370651,1.728723
49861,9.771983,-4.815003,1.147668,1.138756,0.409830,1.760379
49862,9.634576,-4.800957,1.251150,1.107135,0.441111,1.793048
49863,9.521728,-4.853921,1.409110,1.043854,0.473816,1.825894
49864,9.412047,-4.934690,1.519576,0.981105,0.502502,1.854970
49865,9.210949,-5.043310,1.546775,0.926720,0.536777,1.885475
49866,9.057298,-5.212038,1.616733,0.841577,0.551218,1.914196
49867,8.991210,-5.456217,1.652119,0.778404,0.575017,1.939694
49868,8.928787,-5.671092,1.682258,0.756804,0.593631,1.959332
49869,8.836667,-5.829270,1.765917,0.738433,0.622015,1.979895
49870,8.694675,-6.021662,1.872615,0.730091,0.647597,2.000463
49871,8.677228,-6.182932,1.941937,0.715291,0.668075,2.022009
49872,8.632290,-6.420561,1.997575,0.691968,0.691699,2.048469
49873,8.587206,-6.619349,2.082160,0.721883,0.721154,2.070237
49874,8.485982,-6.676193,2.091111,0.777082,0.743703,2.086986
49875,8.350740,-6.759217,2.162983,0.784899,0.764108,2.109525
49876,8.249679,-6.913033,2.348824,0.796162,0.788717,2.135321
49877,8.080705,-7.103147,2.427977,0.821865,0.811320,2.166764
49878,7.800155,-7.232091,2.619954,0.896104,0.835062,2.184276
49879,7.560194,-7.099985,2.750066,0.934737,0.849299,2.207960
49880,7.359182,-7.008451,2.941993,0.906385,0.850841,2.234392
49881,7.208929,-7.075304,3.019063,0.834280,0.859385,2.264716
49882,7.029162,-7.283052,3.155076,0.765639,0.866697,2.285074
49883,6.785792,-7.720868,3.162669,0.756440,0.895423,2.302867
49884,6.414780,-8.021294,3.129083,0.883468,0.919203,2.288244
49885,6.055685,-7.976814,3.252724,1.075583,0.947063,2.270640
49886,5.675381,-7.829942,3.470851,1.185442,0.956412,2.258233
49887,5.506497,-7.849811,3.630462,1.230077,0.948032,2.262526
49888,5.390947,-7.609153,3.707208,1.262818,0.951153,2.256107
49889,5.132911,-7.435605,3.706947,1.205663,0.947521,2.256966
49890,4.808185,-7.394367,3.685945,1.159278,0.946086,2.256774
49891,4.475881,-7.681500,3.857610,1.088021,0.935211,2.250941
49892,4.240394,-8.029864,3.864433,1.104379,0.933800,2.235727
49893,3.876662,-7.970143,3.960431,1.236604,0.924496,2.194350
49894,3.623418,-8.053703,4.259500,1.309298,0.914600,2.170374
49895,3.602683,-8.185899,4.390639,1.432350,0.927652,2.131718
49896,3.544342,-8.190829,4.657214,1.551677,0.956693,2.089454
49897,3.286350,-8.202635,4.718263,1.689042,0.976639,2.052780
49898,3.058432,-8.096481,4.791783,1.790497,1.001994,2.006428
49899,2.775496,-7.791784,4.827210,1.846140,1.011425,1.962382
49900,2.525196,-7.372800,4.940808,1.812814,1.009784,1.926914
49901,2.207819,-7.094639,5.065236,1.700927,1.001982,1.895547
49902,1.933268,-6.970686,5.331743,1.564914,0.972705,1.861503
49903,1.835506,-7.067173,5.563450,1.438313,0.948425,1.817160
49904,1.828094,-7.208326,5.875002,1.360264,0.935892,1.770600
49905,1.831146,-7.531071,5.954382,1.329524,0.939583,1.709022
49906,1.705590,-7.580742,5.959728,1.407110,0.958128,1.646522
49907,1.431613,-7.443779,5.856087,1.528026,0.981074,1.573102
49908,1.031277,-7.086862,5.783308,1.605150,0.989604,1.498188
49909,0.611525,-6.765836,5.808061,1.639445,0.973335,1.424557
49910,0.392751,-6.364683,5.990833,1.601798,0.930322,1.348494
49911,0.278501,-6.018258,6.269167,1.510686,0.882338,1.272767
49912,0.309632,-5.906316,6.630155,1.390100,0.844222,1.190498
49913,0.636613,-6.019203,7.106127,1.277600,0.822422,1.112178
49914,0.992507,-6.131990,7.398017,1.209199,0.841429,1.016715
49915,1.177437,-6.136304,7.548469,1.138123,0.871591,0.930488
49916,1.104369,-6.035957,7.422441,1.034771,0.917606,0.851064
49917,0.761525,-5.810797,6.998656,0.872822,0.925709,0.795998
49918,0.332130,-5.612494,6.571940,0.669320,0.897403,0.749274
49919,0.099468,-5.686406,6.220046,0.472157,0.824644,0.712301
49920,-0.187589,-5.987674,6.115567,0.359247,0.752849,0.675728
49921,-0.448424,-6.399946,6.225271,0.375008,0.678874,0.621160
49922,-0.599903,-6.855982,6.463548,0.526749,0.595291,0.557155
49923,-0.514119,-7.325668,6.634719,0.784624,0.523052,0.490854
49924,-0.346314,-7.472676,6.798903,1.159052,0.477217,0.430841
49925,-0.265499,-7.127270,6.902165,1.508334,0.442419,0.372964
49926,-0.356986,-6.377948,6.996686,1.726434,0.413233,0.325267
49927,-0.545009,-5.642636,7.050000,1.778111,0.370018,0.292049
49928,-0.848838,-5.215625,7.080492,1.694467,0.321359,0.260750
49929,-1.108256,-4.867047,7.081085,1.568688,0.258496,0.218617
49930,-1.198168,-4.581392,7.265090,1.443823,0.208764,0.152638
49931,-1.020583,-4.646256,7.658010,1.267951,0.148384,0.084114
49932,-0.447425,-5.455234,8.064463,1.134456,0.121026,0.036604
49933,0.206856,-6.237352,8.251820,1.188871,0.123890,0.003947
49934,0.370886,-6.193491,8.155713,1.375639,0.165389,-0.021975
49935,0.033867,-5.594802,8.092488,1.451186,0.200066,-0.040303
49936,-0.297811,-5.273782,7.809660,1.403456,0.183782,-0.034376
49937,-0.488116,-5.205953,7.626332,1.337787,0.143023,-0.027018
49938,-0.731263,-5.153741,7.573236,1.335353,0.097247,-0.034613
49939,-0.892964,-4.827294,7.676378,1.346232,0.033965,-0.039112
49940,-0.957478,-4.401741,8.048299,1.336880,-0.008682,-0.061605
49941,-0.996005,-4.099716,8.421119,1.272497,-0.052202,-0.098187
49942,-0.889409,-3.907407,8.410120,1.219358,-0.082615,-0.144530
49943,-0.871908,-3.719445,8.327995,1.210693,-0.111845,-0.201963
49944,-0.926925,-3.477607,8.365485,1.183916,-0.134778,-0.268346
49945,-0.921422,-3.277124,8.256903,1.140394,-0.179810,-0.331785
49946,-0.961688,-3.190192,8.301823,1.091619,-0.221067,-0.399146
49947,-0.967530,-3.046804,8.479890,1.062297,-0.250215,-0.472101
49948,-0.731583,-3.180814,8.823345,1.004607,-0.282300,-0.537379
49949,-0.147003,-3.360210,9.092494,0.947106,-0.289788,-0.584245
49950,0.283299,-3.344360,9.263967,0.901525,-0.275290,-0.615979
49951,0.479466,-3.330176,9.211532,0.848669,-0.257317,-0.635467
49952,0.398530,-3.358619,9.012575,0.812768,-0.257508,-0.628190
49953,0.221876,-3.435789,8.721653,0.813307,-0.273184,-0.625230
49954,0.038529,-3.383663,8.578551,0.837319,-0.299166,-0.628119
49955,-0.166434,-3.316273,8.666466,0.838183,-0.344389,-0.626130
49956,-0.007482,-3.269561,8.949524,0.866682,-0.383154,-0.636020
49957,0.263243,-3.175521,9.270316,0.913980,-0.394102,-0.661180
49958,0.292269,-2.739124,9.436904,0.944196,-0.393910,-0.685828
49959,0.179679,-2.481067,9.378426,0.894239,-0.396982,-0.717552
49960,0.150707,-2.402114,9.189181,0.862330,-0.411709,-0.756016
49961,0.237614,-2.258516,9.108761,0.846015,-0.430639,-0.803958
49962,0.306415,-1.978820,9.012304,0.822027,-0.445564,-0.846037
49963,0.235221,-1.701024,9.134153,0.744066,-0.485742,-0.885901
49964,0.363126,-1.584444,9.258209,0.598097,-0.525613,-0.928598
49965,0.664118,-1.764408,9.310632,0.484735,-0.552993,-0.966263
49966,0.995725,-1.827066,9.483918,0.442488,-0.559718,-1.011100
49967,1.211576,-1.856338,9.429864,0.413090,-0.561130,-1.042622
49968,1.218715,-1.962808,9.241896,0.412016,-0.568877,-1.076801
49969,1.154134,-1.803829,9.099093,0.445777,-0.592437,-1.099602
49970,1.229255,-1.555509,9.025002,0.404772,-0.624625,-1.120311
49971,1.454824,-1.373295,9.012727,0.325074,-0.647899,-1.125573
49972,1.567706,-1.414468,9.023001,0.182942,-0.649165,-1.119606
49973,1.846370,-1.537435,9.041967,0.052179,-0.647870,-1.106820
49974,2.029860,-1.668544,9.030373,-0.041730,-0.621492,-1.102412
49975,2.207658,-1.946198,8.994930,-0.102064,-0.600410,-1.098524
49976,2.466078,-2.082893,9.035613,-0.087396,-0.590381,-1.082673
49977,2.740983,-2.226314,9.045324,-0.062185,-0.579633,-1.060413
49978,2.574943,-2.374574,8.719001,0.013497,-0.567505,-1.032256
49979,2.322596,-2.357589,8.593832,0.097849,-0.581215,-1.007547
49980,2.320330,-2.356977,8.478991,0.179217,-0.595738,-0.992189
49981,2.590850,-2.436870,8.493657,0.271561,-0.599733,-0.974315
49982,2.750786,-2.487473,8.592617,0.412034,-0.580294,-0.959874
49983,2.770922,-2.320247,8.829316,0.562016,-0.552464,-0.936495
49984,2.739948,-2.006060,8.947138,0.653476,-0.531558,-0.899944
49985,2.841793,-1.640753,9.068175,0.662561,-0.522923,-0.865248
49986,2.940857,-1.471716,9.044264,0.599066,-0.508414,-0.826925
49987,2.986269,-1.438257,9.070607,0.539639,-0.495716,-0.779742
49988,3.074321,-1.320312,9.099291,0.492987,-0.466895,-0.734306
49989,3.094362,-1.271398,9.205998,0.411489,-0.436138,-0.680853
49990,3.079161,-1.349347,9.103241,0.338717,-0.410212,-0.625324
49991,3.064495,-1.418928,9.180337,0.302816,-0.379589,-0.572820
49992,3.078489,-1.480274,9.246915,0.287528,-0.359099,-0.516406
49993,3.101795,-1.503305,9.383939,0.288555,-0.331870,-0.455373
49994,3.083329,-1.449733,9.552432,0.309277,-0.301979,-0.393077
49995,3.101015,-1.246634,9.531825,0.306960,-0.261777,-0.339358
49996,3.072293,-1.194729,9.598378,0.304622,-0.240074,-0.282364
49997,3.084979,-0.957876,9.623473,0.292042,-0.221089,-0.226709
49998,3.126444,-0.804627,9.595219,0.255198,-0.204598,-0.181208
49999,3.222366,-0.765305,9.640020,0.189983,-0.187273,-0.136012
50000,3.308852,-0.830245,9.806739,0.137388,-0.159027,-0.084533
50001,3.341977,-0.902802,9.993182,0.116570,-0.134236,-0.037862
50002,3.473269,-0.915415,10.055150,0.115845,-0.101471,0.015742
50003,3.565261,-0.868765,10.095801,0.130215,-0.061881,0.056629
50004,3.537037,-0.778735,10.147391,0.123401,-0.019937,0.110206
50005,3.425945,-0.593444,10.161430,0.105811,0.020326,0.157807
50006,3.421763,-0.404052,10.160198,0.050710,0.054315,0.196399
50007,3.424240,-0.275135,10.085285,-0.032196,0.089395,0.237840
50008,3.422312,-0.325416,9.985130,-0.127339,0.120376,0.277003
50009,3.477215,-0.416937,9.947110,-0.202134,0.141123,0.317179
50010,3.519798,-0.426954,9.926175,-0.254184,0.169342,0.351339
50011,3.452762,-0.225379,9.861922,-0.302112,0.196911,0.372308
50012,3.435152,-0.143060,9.953712,-0.409997,0.206991,0.396966
50013,3.455952,-0.204393,9.918799,-0.514804,0.225227,0.429921
50014,3.627628,-0.460762,10.034581,-0.617930,0.256096,0.466306
50015,3.977932,-0.806185,10.144644,-0.673533,0.317365,0.511479
50016,4.199413,-1.091157,10.028901,-0.711138,0.401241,0.588609
50017,4.156692,-1.641162,9.766980,-0.783865,0.470695,0.692177
50018,3.851357,-2.361168,9.599387,-0.747865,0.510180,0.802129
50019,3.756549,-2.683991,9.629373,-0.533515,0.556754,0.887173
50020,3.945168,-2.602122,9.796861,-0.334237,0.605618,0.973422
50021,4.172741,-2.314942,9.973193,-0.192467,0.670736,1.052269
50022,4.275111,-1.880725,10.061487,-0.145020,0.752289,1.130769
50023,4.253678,-1.544941,10.097144,-0.233436,0.833873,1.201394
50024,4.080744,-1.277650,9.903415,-0.396859,0.903718,1.266467
50025,3.597754,-1.184157,9.628666,-0.630338,0.942002,1.319563
50026,2.995960,-1.549808,9.442004,-0.866755,0.956073,1.363274
50027,2.660272,-2.314309,9.294004,-0.997935,0.928207,1.398035
50028,2.693329,-3.099524,9.303180,-0.950415,0.904223,1.428285
50029,3.098969,-3.451946,9.313238,-0.743245,0.901658,1.450239
50030,3.596222,-3.229452,9.550830,-0.553797,0.934971,1.477239
50031,3.927583,-2.762649,9.553641,-0.488247,0.984597,1.510307
50032,3.518842,-2.246083,9.313802,-0.537691,1.044646,1.546417
50033,2.410848,-2.157412,9.024117,-0.696632,1.055580,1.588099
50034,1.449066,-2.647260,8.796566,-0.837044,0.998557,1.605496
50035,1.314672,-3.236036,8.627220,-0.848000,0.928931,1.597217
50036,1.780033,-3.625376,8.657011,-0.742388,0.883479,1.563513
50037,2.183979,-3.567669,8.821576,-0.577013,0.876749,1.540269
50038,2.310822,-3.093712,9.209792,-0.503958,0.883884,1.516667
50039,1.878372,-2.632399,9.291588,-0.536364,0.923586,1.508881
50040,1.057916,-2.337117,9.130866,-0.662304,0.921446,1.503598
50041,0.366874,-2.559305,8.900991,-0.862190,0.878012,1.491608
50042,-0.003991,-2.923724,8.448511,-0.952068,0.820769,1.456125
50043,-0.039060,-3.439751,8.297178,-1.011417,0.739414,1.414553
50044,0.258938,-3.899263,8.040447,-0.930077,0.678567,1.365207
50045,0.261422,-3.671248,8.099880,-0.776272,0.651671,1.303066
50046,0.258633,-3.459599,8.189901,-0.745307,0.624031,1.239472
50047,0.083545,-3.113044,8.148047,-0.728544,0.617426,1.177882
50048,-0.601142,-2.926787,8.132842,-0.804995,0.602128,1.123579
50049,-1.396833,-3.063330,8.024516,-0.913956,0.545429,1.081000
50050,-2.169197,-3.084167,7.826573,-0.943430,0.480194,1.013031
50051,-2.483522,-3.394960,7.888171,-1.047625,0.358618,0.938688
50052,-2.168026,-3.835580,7.767978,-0.998274,0.268383,0.842391
50053,-1.757702,-3.859722,7.872197,-0.939695,0.207137,0.738814
50054,-1.396082,-3.873788,7.860408,-0.925019,0.169965,0.648512
50055,-1.368615,-3.505512,7.658525,-0.923623,0.143839,0.563221
50056,-1.750810,-3.241687,7.594019,-1.022422,0.108115,0.497224
50057,-2.369836,-3.081354,7.278630,-1.107943,0.055328,0.426341
50058,-2.952963,-2.970293,7.306352,-1.237634,-0.011959,0.343271
50059,-3.397381,-3.308533,7.297472,-1.397433,-0.116646,0.266123
50060,-3.340935,-3.605444,7.290782,-1.454179,-0.226148,0.169846
50061,-2.868765,-4.189362,7.250590,-1.552359,-0.331047,0.074436
50062,-2.496315,-4.610320,7.126617,-1.482024,-0.393791,-0.024474
50063,-2.276810,-4.594507,7.084713,-1.407306,-0.434235,-0.131553
50064,-2.133418,-4.561585,7.081000,-1.379470,-0.460418,-0.237332
50065,-2.035389,-4.411645,6.945610,-1.365244,-0.478324,-0.340457
50066,-2.068363,-4.136665,6.741749,-1.366069,-0.496510,-0.447179
50067,-2.219367,-4.154018,6.636008,-1.452628,-0.526182,-0.567729
50068,-2.236422,-4.292250,6.497177,-1.509702,-0.571636,-0.687200
50069,-2.092737,-4.291843,6.223089,-1.559597,-0.626318,-0.827614
50070,-2.092826,-4.233772,5.988123,-1.609995,-0.684423,-0.974565
50071,-2.042825,-4.118141,5.672029,-1.680224,-0.764638,-1.129013
50072,-1.707479,-3.916278,5.374735,-1.766094,-0.861464,-1.279559
50073,-1.226998,-3.899983,5.401883,-1.943795,-0.933982,-1.421963
50074,-0.817361,-4.253607,5.582610,-2.075855,-0.968022,-1.563262
50075,-0.704409,-4.838936,5.682066,-2.157699,-0.966868,-1.723305
50076,-0.741278,-5.805751,5.842369,-2.176006,-0.968768,-1.863908
50077,-0.738648,-6.854748,5.802564,-1.983036,-0.956932,-2.010172
50078,-0.510127,-7.435794,5.990729,-1.597288,-0.956831,-2.155176
50079,-0.102076,-7.387606,6.307121,-1.287217,-0.953319,-2.255904
50080,0.319511,-7.250628,6.624876,-1.180625,-0.963682,-2.310454
50081,0.795547,-7.485572,6.706488,-1.171728,-0.971126,-2.324967
50082,1.151700,-7.786342,6.509642,-1.137926,-0.975422,-2.308083
50083,1.292325,-7.653296,6.295998,-1.047879,-0.975550,-2.293065
50084,1.344088,-7.340782,6.257389,-1.002187,-0.983162,-2.275916
50085,1.285918,-7.287415,6.070282,-0.977015,-1.000674,-2.266726
50086,1.428090,-7.529876,6.123646,-0.964298,-1.021700,-2.262244
50087,1.678272,-7.738255,6.149610,-0.900852,-1.030712,-2.255662
50088,1.895113,-7.654823,6.187700,-0.839667,-1.029320,-2.244997
50089,2.125043,-7.343839,6.190883,-0.833080,-1.029859,-2.228037
50090,2.532383,-7.063812,6.009451,-0.862645,-0.998931,-2.211240
50091,2.479109,-6.839343,5.819651,-0.880462,-0.986120,-2.196842
50092,2.659832,-6.906667,5.727947,-0.895844,-1.009819,-2.171187
50093,3.018381,-7.044288,5.622038,-0.840117,-1.006031,-2.161331
50094,3.384330,-7.029890,5.625690,-0.756531,-0.982947,-2.166439
50095,3.663831,-7.238350,5.766595,-0.725084,-0.954156,-2.163031
50096,3.983610,-7.513237,5.740190,-0.680278,-0.917123,-2.160069
50097,4.036779,-7.251670,5.705331,-0.671199,-0.889365,-2.193944
50098,4.371321,-7.439340,5.927245,-0.875907,-0.889854,-2.174718
50099,4.951678,-7.789412,5.921573,-1.113598,-0.883813,-2.133196
50100,5.395215,-7.790042,5.594916,-1.327852,-0.876867,-2.096242
50101,5.525964,-7.854952,5.267611,-1.556983,-0.869965,-2.059702
50102,5.605982,-8.082743,4.879654,-1.685979,-0.871393,-2.027025
50103,5.773578,-8.068770,4.499286,-1.705539,-0.866780,-1.998719
50104,5.681554,-7.761713,4.152244,-1.659100,-0.869427,-1.980934
50105,5.578044,-7.334022,4.063600,-1.611530,-0.866218,-1.962928
50106,5.765945,-7.440133,4.166807,-1.651156,-0.884693,-1.937515
50107,6.254682,-8.028685,4.160964,-1.664788,-0.869886,-1.889073
50108,6.746323,-8.398772,4.006955,-1.527291,-0.839156,-1.845395
50109,6.922203,-8.553174,3.833840,-1.337544,-0.797076,-1.817651
50110,6.897809,-8.461336,3.553202,-1.074697,-0.755253,-1.799564
50111,6.787935,-8.206049,3.317164,-0.805191,-0.728149,-1.795035
50112,6.653570,-7.708302,3.203809,-0.544648,-0.709573,-1.802782
50113,6.541292,-7.060801,3.191591,-0.346518,-0.712989,-1.824399
50114,6.618819,-6.414087,3.373562,-0.256287,-0.718863,-1.849559
50115,6.966840,-5.916846,3.672384,-0.335161,-0.727108,-1.860451
50116,7.358727,-5.523273,3.930406,-0.511451,-0.720579,-1.843667
50117,7.653403,-5.350563,4.035600,-0.821186,-0.695986,-1.803407
50118,7.727465,-5.694839,3.571284,-1.075352,-0.656704,-1.773446
50119,7.559071,-5.862988,3.103172,-1.191710,-0.599980,-1.766099
50120,7.258435,-5.473007,2.463287,-1.242983,-0.584502,-1.763787
50121,7.143068,-4.768587,2.224733,-1.368825,-0.623658,-1.759973
50122,7.627511,-4.165710,2.217880,-1.698736,-0.675462,-1.752618
50123,8.474302,-4.341843,2.441559,-2.057901,-0.689742,-1.735510
50124,9.248788,-5.911402,2.258526,-2.202442,-0.667592,-1.743321
50125,9.683763,-8.566424,1.496395,-1.807975,-0.611076,-1.758111
50126,9.578286,-10.180734,0.839117,-0.744722,-0.528939,-1.783336
50127,9.294593,-9.413195,0.844597,0.328813,-0.487159,-1.792794
50128,9.066244,-7.306397,0.890688,1.047723,-0.484993,-1.795338
50129,9.074809,-5.151702,1.242264,1.308797,-0.527131,-1.787690
50130,9.383708,-3.655974,1.486986,1.138482,-0.587529,-1.755341
50131,9.774148,-2.826688,1.848019,0.777869,-0.617814,-1.721059
50132,9.933734,-2.718708,2.105478,0.281029,-0.623333,-1.681795
50133,9.935907,-3.124259,2.096508,-0.061931,-0.627951,-1.643189
50134,10.154710,-3.582464,2.159284,-0.326580,-0.612544,-1.610467
50135,10.828814,-3.823170,2.026899,-0.474278,-0.579920,-1.574437
50136,11.297962,-3.637314,1.803310,-0.555531,-0.516940,-1.531157
50137,11.285317,-3.218458,1.628630,-0.650386,-0.453112,-1.481167
50138,11.114388,-2.753860,1.449758,-0.769353,-0.417387,-1.424168
50139,11.068704,-2.291324,1.328286,-0.938562,-0.390043,-1.367034
50140,11.073253,-1.892540,1.346720,-1.163071,-0.384934,-1.299580
50141,11.180400,-1.675655,1.588851,-1.443050,-0.379889,-1.215829
50142,10.884642,-2.664852,1.390849,-1.841981,-0.329894,-1.131912
50143,10.657382,-3.773263,1.150832,-1.734672,-0.292264,-1.085544
50144,10.538108,-3.862035,1.191236,-1.434173,-0.237306,-1.050434
50145,10.823249,-3.735717,1.045451,-1.261067,-0.192196,-1.001191
50146,11.012442,-3.613666,0.981228,-1.094074,-0.133756,-0.942094
50147,10.994235,-3.240919,0.739248,-0.923345,-0.073575,-0.886400
50148,10.813813,-3.229869,0.520105,-0.873047,-0.028115,-0.830313
50149,10.771429,-3.109189,0.244144,-0.680803,-0.017401,-0.759229
50150,10.566982,-3.157127,0.124490,-0.583572,-0.000887,-0.695596
50151,10.563369,-2.881576,0.093193,-0.374724,-0.025063,-0.617634
50152,10.601578,-2.470742,0.177417,-0.328928,-0.031758,-0.541858
50153,10.436278,-2.143997,0.150054,-0.308823,-0.044796,-0.470211
50154,10.274530,-1.787781,0.194890,-0.342105,-0.055239,-0.422020
50155,10.141605,-1.662368,0.234973,-0.441951,-0.082003,-0.375762
50156,10.012264,-1.557288,0.363381,-0.490357,-0.086060,-0.342928
50157,9.907611,-1.683326,0.411994,-0.575542,-0.093703,-0.315392
50158,9.852960,-2.075169,0.170512,-0.574334,-0.097768,-0.299472
50159,9.785676,-2.379516,-0.025192,-0.490262,-0.100155,-0.290588
50160,9.726276,-2.527608,-0.166178,-0.350486,-0.096662,-0.275885
50161,9.686567,-2.122290,-0.155473,-0.212018,-0.092828,-0.268307
50162,9.691866,-1.975322,-0.079606,-0.198820,-0.096818,-0.259251
50163,9.601988,-1.539980,0.139048,-0.106259,-0.088940,-0.251334
50164,9.708924,-1.270069,0.400705,-0.227438,-0.102316,-0.244406
50165,9.747390,-1.367355,0.482313,-0.315213,-0.087967,-0.238932
50166,9.920386,-0.942297,0.743726,-0.385260,-0.090678,-0.223492
50167,10.087433,-1.277810,0.634266,-0.661797,-0.068117,-0.204607
50168,10.115500,-1.998789,0.336752,-0.672382,-0.042101,-0.186426
50169,10.101513,-2.119104,0.206347,-0.568027,-0.013779,-0.171287
50170,10.158456,-2.012864,0.157058,-0.469209,-0.005355,-0.153383
50171,10.032071,-2.108284,0.080117,-0.385538,0.014836,-0.131742
50172,9.926160,-1.946925,0.077017,-0.238758,0.016660,-0.120277
50173,9.883680,-1.785130,0.126444,-0.150274,0.015463,-0.102734
50174,9.914589,-1.602780,0.177115,-0.083323,0.011012,-0.092276
50175,9.876031,-1.542192,0.118455,-0.042524,0.013082,-0.086218
50176,9.848740,-1.518787,0.131210,0.013080,0.000488,-0.086422
50177,9.853075,-1.522215,0.007631,0.047561,-0.003589,-0.083712
50178,9.864415,-1.629016,-0.120386,0.098585,-0.015355,-0.086389
50179,9.767606,-1.614025,-0.017106,0.175389,-0.020822,-0.090937
50180,9.824896,-1.490346,0.266893,0.235975,-0.037981,-0.103426
50181,9.887677,-1.358919,0.410296,0.287025,-0.036953,-0.106452
50182,9.952635,-1.155847,0.522477,0.307351,-0.028088,-0.105421
50183,10.006207,-1.052323,0.486228,0.288161,-0.013989,-0.104655
50184,9.941222,-1.041271,0.333213,0.263336,0.010051,-0.102462
50185,9.870980,-0.962964,0.183286,0.240236,0.019739,-0.093338
50186,9.800558,-0.886461,0.033565,0.195986,0.028267,-0.084320
50187,9.765611,-0.845320,-0.039567,0.140580,0.023547,-0.070227
50188,9.728288,-0.822605,-0.097163,0.102556,0.018606,-0.077073
50189,9.683215,-0.820697,0.000836,0.066360,0.009182,-0.073845
50190,9.718435,-0.949503,0.004437,0.035008,0.000405,-0.072245
50191,9.792772,-0.991143,0.142534,0.023327,-0.003561,-0.070302
50192,9.794420,-1.088880,0.174119,0.011298,-0.006416,-0.065546
50193,9.833156,-1.097635,0.234413,0.024459,-0.006047,-0.067726
50194,9.833324,-1.038975,0.218224,0.004732,-0.001709,-0.062946
50195,9.760355,-1.056595,0.219239,0.013067,0.001461,-0.053731
50196,9.765966,-1.068282,0.201581,0.004252,-0.013557,-0.046805
50197,9.780068,-1.184076,0.181310,0.008088,-0.015350,-0.035405
50198,9.809350,-1.195450,0.168041,0.042251,-0.017612,-0.032082
50199,9.880396,-1.134544,0.166525,0.067844,-0.017831,-0.027486
50200,9.899655,-1.093971,0.065138,0.077959,-0.013574,-0.025927
50201,9.918642,-1.072816,0.087055,0.070566,-0.010756,-0.025392
50202,9.958468,-1.015536,0.115261,0.062048,0.001181,-0.021055
50203,9.888084,-1.071208,0.116906,0.059379,0.007160,-0.023465
50204,9.842956,-1.054862,0.091751,0.061078,0.017408,-0.026021
50205,9.835191,-1.001119,0.111540,0.054141,0.016594,-0.026997
50206,9.839775,-0.963094,0.080437,0.041935,0.018809,-0.024793
50207,9.853182,-1.028351,0.048105,0.027848,0.019032,-0.025972
50208,9.811018,-1.046458,0.022828,0.032539,0.018946,-0.025585
50209,9.814217,-1.078584,0.024437,0.027696,0.015102,-0.020578
50210,9.804164,-1.043139,0.060234,0.039769,0.012167,-0.020738
50211,9.830513,-0.918329,0.124006,0.027669,0.011873,-0.017235
50212,9.823310,-0.918002,0.158877,0.010732,0.007753,-0.008715
50213,9.841222,-0.845817,0.165560,0.002301,0.007039,-0.019225
50214,9.894079,-0.856332,0.159820,-0.022428,0.012367,-0.025095
50215,9.902453,-0.904790,0.143502,-0.042363,0.015091,-0.029281
50216,9.821875,-1.029675,0.105646,-0.038478,0.016305,-0.034317
50217,9.828252,-1.095203,0.106128,-0.039891,0.017331,-0.032828
50218,9.820346,-1.144481,0.050772,-0.028311,0.011628,-0.024766
50219,9.779113,-1.112095,0.113971,0.000171,0.003649,-0.018505
50220,9.821621,-1.089648,0.142011,0.003226,0.006437,-0.015858
50221,9.867162,-1.101659,0.169813,0.014023,0.005260,-0.016564
50222,9.814624,-1.087393,0.177060,0.031975,0.003066,-0.017056
50223,9.853264,-1.081402,0.115503,0.045356,0.001630,-0.020001
50224,9.822392,-1.082337,0.144597,0.057556,-0.000598,-0.022210
50225,9.823604,-1.132013,0.161187,0.063167,-0.007979,-0.024848
50226,9.793755,-1.184607,0.206544,0.085944,0.000321,-0.023988
50227,9.842672,-1.108351,0.184961,0.109267,-0.000770,-0.019994
50228,9.868775,-1.086331,0.174731,0.117468,0.001450,-0.021860
50229,9.867269,-1.083559,0.069819,0.124365,0.002188,-0.020934
50230,9.887139,-0.992716,0.060206,0.129276,0.003416,-0.024700
50231,9.897544,-0.919940,0.101376,0.107354,0.013293,-0.027218
50232,9.892573,-0.899896,0.120810,0.111228,0.017624,-0.035661
50233,9.825839,-0.867498,0.074246,0.080517,0.021521,-0.039133
50234,9.815088,-1.003220,0.071356,0.071941,0.013657,-0.040854
50235,9.833968,-0.980029,0.095589,0.074279,0.015180,-0.042365
50236,9.808515,-0.995733,0.109342,0.061019,0.014137,-0.038100
50237,9.843680,-0.971429,0.172387,0.064166,0.014409,-0.034173
50238,9.879718,-0.878022,0.201587,0.055484,0.015803,-0.030833
50239,9.831326,-0.827484,0.176191,0.041190,0.017861,-0.031248
50240,9.829485,-0.841786,0.194949,0.015653,0.014881,-0.032421
50241,9.818700,-0.857209,0.140897,-0.002505,0.018958,-0.031159
50242,9.811520,-0.855035,0.176096,-0.016575,0.012838,-0.025554
50243,9.796602,-0.905994,0.154815,-0.029807,0.005080,-0.027628
50244,9.834538,-0.969155,0.127020,-0.039767,0.011388,-0.028233
50245,9.856450,-0.981842,0.149806,-0.037553,0.009077,-0.024292
50246,9.856668,-0.979585,0.150228,-0.032755,0.006491,-0.022592
50247,9.835188,-0.962351,0.128428,-0.041436,0.007887,-0.019249
50248,9.814960,-0.997021,0.123486,-0.038619,0.005774,-0.022241
50249,9.776583,-0.998806,0.185965,-0.031019,0.007828,-0.017164
50250,9.812495,-1.080384,0.174684,-0.023396,0.003148,-0.018449
50251,9.816012,-1.113053,0.174606,-0.008983,-0.001395,-0.016712
50252,9.819487,-1.146207,0.174356,0.005764,-0.003527,-0.008039
50253,9.841997,-1.091329,0.162826,0.034577,0.000488,-0.004956
50254,9.853718,-1.002965,0.185399,0.046171,0.001221,-0.003614
50255,9.853749,-1.002510,0.186213,0.050498,0.005472,-0.003801
50256,9.811135,-0.902400,0.109287,0.051068,0.009220,-0.001001
50257,9.816536,-0.918920,0.093596,0.036436,0.005668,-0.004976
50258,9.786149,-0.852250,0.088599,0.027296,-0.002368,0.000267
50259,9.751701,-0.820356,0.116717,0.009635,-0.005548,-0.009710
50260,9.766078,-0.834903,0.172092,-0.011085,-0.004791,-0.015954
50261,9.850252,-0.842061,0.136640,-0.019257,-0.007448,-0.027221
50262,9.908766,-0.867918,0.112890,-0.047245,-0.000012,-0.038381
50263,9.902949,-0.968706,0.073923,-0.060374,0.005955,-0.042941
50264,9.915588,-1.049743,0.057277,-0.060023,0.007949,-0.049147
50265,9.924326,-1.165516,0.074678,-0.030862,0.010817,-0.048886
50266,9.915995,-1.109817,0.092303,-0.010136,0.010089,-0.042634
50267,9.832406,-1.096918,0.128199,0.010228,0.013700,-0.036949
50268,9.840133,-1.040858,0.185296,0.031199,0.007986,-0.028056
50269,9.848264,-0.916032,0.208352,0.032010,0.006742,-0.022614
50270,9.898357,-0.822161,0.169185,0.025791,0.007178,-0.019448
50271,9.869330,-0.805791,0.181742,0.013712,0.010070,-0.019307
50272,9.900649,-0.800475,0.154260,-0.003258,0.008101,-0.025177
50273,9.880604,-0.834878,0.150052,-0.024143,0.014874,-0.023010
50274,9.875483,-0.867857,0.078430,-0.037718,0.011388,-0.025681
50275,9.837268,-0.921378,0.051896,-0.042650,0.013264,-0.025333
50276,9.815338,-0.973188,0.064042,-0.051417,0.007210,-0.026301
50277,9.831808,-0.969253,0.103100,-0.054000,0.004298,-0.020683
50278,9.778669,-1.025112,0.142849,-0.053190,0.003050,-0.015241
50279,9.797007,-1.004668,0.164865,-0.037028,0.003100,-0.011424
