// Start Time: Unknown
// Update Rate: 100.0Hz
// Filter Profile: human (46.1)
// Firmware Version: 4.3.5
PacketCounter,Acc_X,Acc_Y,Acc_Z,Gyr_X,Gyr_Y,Gyr_Z
11576,9.716419,0.781379,1.681735,0.010609,0.006294,-0.017056
11577,9.694890,0.734486,1.668814,-0.002965,0.003156,-0.013619
11578,9.704191,0.709285,1.615893,-0.012468,-0.007004,-0.015480
11579,9.712550,0.659643,1.563531,-0.008420,-0.001310,-0.013092
11580,9.717936,0.685967,1.597101,0.002304,0.003171,-0.009548
11581,9.702925,0.688480,1.616815,0.020594,0.006230,-0.013658
11582,9.653711,0.692649,1.640886,0.024454,0.002863,-0.008850
11583,9.688793,0.716795,1.635693,0.002339,-0.000325,-0.012877
11584,9.709018,0.742201,1.649772,-0.001659,-0.000298,-0.014237
11585,9.679141,0.745982,1.688765,-0.003563,0.006552,-0.015039
11586,9.658682,0.722967,1.675027,-0.026578,-0.001038,-0.012434
11587,9.700324,0.647155,1.619259,-0.018506,-0.003472,-0.014195
11588,9.734434,0.646945,1.614886,0.005785,0.004164,-0.014085
11589,9.720351,0.674178,1.633838,0.015267,0.005114,-0.016582
11590,9.714696,0.650504,1.601041,0.005831,0.009886,-0.013058
11591,9.675794,0.652362,1.572015,0.006422,0.006490,-0.011641
11592,9.700412,0.678710,1.620722,0.006416,0.001882,-0.013820
11593,9.701230,0.704298,1.620166,0.002294,0.003175,-0.009551
11594,9.651121,0.683589,1.644841,-0.000388,-0.000252,-0.011527
11595,9.666827,0.708113,1.624738,0.007093,0.000714,-0.014704
11596,9.669292,0.661796,1.660746,0.007817,0.005268,-0.014559
11597,9.718189,0.660472,1.637516,0.003695,0.006560,-0.010290
11598,9.717996,0.661802,1.638125,0.017892,0.007437,-0.013459
11599,9.686281,0.738079,1.641097,0.041440,0.015151,-0.011319
11600,9.695754,0.766313,1.710051,0.033523,0.017427,-0.016345
11601,9.673385,0.816340,1.660731,0.014012,0.015411,-0.016102
11602,9.641413,0.771690,1.702380,0.007296,0.015500,-0.016111
11603,9.630392,0.722565,1.636599,-0.007576,0.006566,-0.016413
11604,9.650183,0.574048,1.568701,-0.027289,-0.005634,-0.012591
11605,9.721938,0.495682,1.473995,-0.008630,-0.006895,-0.007345
11606,9.731437,0.469925,1.421229,0.028423,0.007496,-0.005309
11607,9.742856,0.546057,1.488049,0.057307,0.012870,-0.003571
11608,9.720053,0.623925,1.559010,0.066637,0.005889,-0.004792
11609,9.737714,0.750458,1.657714,0.064660,0.007018,-0.006632
11610,9.714896,0.828743,1.728181,0.043884,0.004943,-0.009104
11611,9.713892,0.805813,1.728976,0.010986,-0.001538,-0.011042
11612,9.689120,0.781785,1.680799,-0.003665,0.004302,-0.012755
11613,9.680974,0.684063,1.650571,-0.004468,0.006748,-0.006245
11614,9.699167,0.606941,1.546249,-0.001233,-0.003549,-0.006038
11615,9.659574,0.583715,1.517325,0.029062,0.006343,-0.006207
11616,9.655910,0.608085,1.482552,0.065129,0.006043,-0.000743
11617,9.686556,0.684515,1.563896,0.090713,0.017136,-0.001409
11618,9.664431,0.787112,1.634161,0.079269,0.017300,-0.000755
11619,9.685258,0.836894,1.648186,0.051739,0.013062,-0.000919
11620,9.652582,0.887804,1.651586,0.035624,0.013286,0.000418
11621,9.670873,0.863640,1.668108,-0.000599,0.003392,-0.001431
11622,9.690949,0.834263,1.562297,-0.012078,0.001319,0.001545
11623,9.695268,0.835607,1.596967,-0.001751,0.006670,-0.007610
11624,9.708307,0.839401,1.700515,-0.021926,0.009296,-0.003160
11625,9.711668,0.762450,1.616293,-0.041457,0.000409,-0.002762
11626,9.748479,0.713285,1.648404,-0.013276,0.003488,-0.003481
11627,9.729888,0.738197,1.633308,0.000954,0.011225,-0.006798
11628,9.717345,0.813387,1.651002,-0.004986,0.012354,-0.009996
11629,9.665265,0.864389,1.639954,-0.011053,0.014766,-0.007566
11630,9.721011,0.936868,1.649709,-0.019510,0.021519,-0.015186
11631,9.777583,0.912740,1.697826,-0.045803,0.020827,-0.009329
11632,9.987751,0.929479,1.707964,-0.078145,0.023661,-0.002207
11633,10.352487,0.836592,1.598641,-0.106775,0.039392,0.020702
11634,10.705653,0.839963,1.507944,-0.113125,0.070793,0.041744
11635,10.842344,0.905260,1.620218,-0.074300,0.097969,0.052139
11636,10.878270,1.101122,1.865036,-0.033087,0.105233,0.042156
11637,10.824576,1.330555,2.224462,-0.037193,0.097861,0.015805
11638,10.585790,1.567415,2.502711,-0.112221,0.106753,-0.039907
11639,10.289062,1.779970,2.617076,-0.225514,0.117217,-0.103185
11640,10.025629,1.940681,2.610036,-0.353764,0.124889,-0.154504
11641,10.009062,2.017515,2.527390,-0.508379,0.143912,-0.182108
11642,9.982251,1.921864,2.418869,-0.680985,0.155810,-0.194186
11643,9.931767,1.555773,2.178724,-0.804554,0.176739,-0.198531
11644,9.835367,1.120445,1.993967,-0.833285,0.210390,-0.204184
11645,9.724932,0.664980,1.824028,-0.778247,0.248618,-0.215859
11646,9.627057,0.335400,1.719549,-0.641176,0.275218,-0.222538
11647,9.693902,0.198667,1.808709,-0.437896,0.324633,-0.231809
11648,9.812939,0.305732,2.041209,-0.228225,0.379486,-0.230325
11649,9.873900,0.633224,2.394817,-0.122526,0.423217,-0.230027
11650,9.844075,0.892842,2.585117,-0.132589,0.435127,-0.217452
11651,9.766532,0.986912,2.480459,-0.216597,0.413370,-0.197557
11652,9.757869,0.955283,2.365055,-0.299985,0.400870,-0.188989
11653,9.776474,0.770640,2.364159,-0.385067,0.413601,-0.173960
11654,9.707951,0.534666,2.351999,-0.448805,0.437525,-0.148712
11655,9.598367,0.348198,2.240736,-0.469335,0.452803,-0.113420
11656,9.540777,0.135349,2.105641,-0.465898,0.452685,-0.072949
11657,9.581084,-0.064143,2.118865,-0.450299,0.456582,-0.018540
11658,9.692519,-0.172604,2.167622,-0.393356,0.473554,0.040420
11659,9.734341,-0.236373,2.225178,-0.326861,0.491752,0.085951
11660,9.679082,-0.140722,2.438899,-0.248880,0.521625,0.117982
11661,9.573512,-0.029004,2.745394,-0.217499,0.548584,0.151836
11662,9.491878,-0.081847,2.867137,-0.289951,0.538395,0.203227
11663,9.452972,-0.224367,2.754042,-0.370551,0.521039,0.269593
11664,9.432283,-0.422972,2.651366,-0.389888,0.511203,0.324351
11665,9.412766,-0.655998,2.613703,-0.366139,0.512839,0.390928
11666,9.427776,-0.848753,2.612218,-0.337390,0.508527,0.455953
11667,9.441347,-1.050494,2.644156,-0.303831,0.505839,0.534803
11668,9.400803,-1.262601,2.726906,-0.294766,0.496908,0.612935
11669,9.355586,-1.494042,2.668204,-0.303746,0.500043,0.700607
11670,9.427282,-1.745370,2.694652,-0.250831,0.501015,0.790592
11671,9.450525,-1.815749,2.827583,-0.161235,0.518453,0.869908
11672,9.338461,-1.784070,2.937388,-0.134712,0.540398,0.938462
11673,9.297575,-1.713257,3.053203,-0.131548,0.528413,1.012488
11674,9.309821,-1.630976,3.189508,-0.158657,0.536255,1.085058
11675,9.334134,-1.647677,3.231003,-0.222802,0.544583,1.162985
11676,9.328352,-1.813556,3.204344,-0.324175,0.545640,1.249312
11677,9.374019,-2.119236,3.164064,-0.415230,0.540098,1.339979
11678,9.438911,-2.473106,3.189012,-0.439344,0.557276,1.440966
11679,9.434383,-2.756847,3.219630,-0.426010,0.574664,1.532912
11680,9.364484,-2.946368,3.294170,-0.371550,0.589666,1.628296
11681,9.316575,-3.055528,3.434896,-0.318740,0.592342,1.714874
11682,9.278596,-3.080135,3.624364,-0.293019,0.601337,1.787498
11683,9.260241,-3.143796,3.656253,-0.289060,0.607833,1.856568
11684,9.232630,-3.199521,3.602877,-0.275435,0.612690,1.919846
11685,9.333995,-3.356936,3.640604,-0.262144,0.609848,1.982205
11686,9.401647,-3.439441,3.669484,-0.254285,0.606153,2.042617
11687,9.464513,-3.623639,3.634390,-0.265175,0.593097,2.103060
11688,9.441550,-3.720471,3.634929,-0.252801,0.582811,2.152378
11689,9.370559,-3.856099,3.623408,-0.230988,0.557792,2.188584
11690,9.333441,-3.951068,3.603024,-0.217573,0.535869,2.202956
11691,9.311201,-4.022845,3.709833,-0.217421,0.517984,2.200147
11692,9.248119,-4.189382,3.832695,-0.227763,0.516000,2.193570
11693,9.191529,-4.283864,3.983121,-0.227579,0.521289,2.177603
11694,9.102407,-4.411002,4.106936,-0.203770,0.530175,2.156347
11695,8.923749,-4.470309,4.257591,-0.172688,0.533107,2.147783
11696,8.744279,-4.523277,4.283508,-0.169739,0.532224,2.136212
11697,8.759597,-4.727183,4.171183,-0.171383,0.507788,2.140610
11698,8.788271,-4.863574,3.963099,-0.134948,0.498262,2.148638
11699,8.702038,-5.082430,3.776681,-0.043222,0.489550,2.152174
11700,8.541347,-5.188681,3.694462,0.075317,0.465467,2.148154
11701,8.361198,-5.264310,3.700417,0.168921,0.431464,2.135432
11702,8.165918,-5.277755,3.777934,0.208473,0.405230,2.124237
11703,7.992950,-5.232627,3.844524,0.222741,0.389835,2.106595
11704,7.859506,-5.228014,4.111012,0.212078,0.382667,2.096894
11705,7.860044,-5.315115,4.349095,0.144628,0.367483,2.103244
11706,7.805289,-5.427984,4.227117,0.070220,0.361355,2.113174
11707,7.655601,-5.582539,4.056196,0.040356,0.360287,2.111204
11708,7.374436,-5.762369,3.916380,0.036598,0.329710,2.096215
11709,7.144589,-5.921929,3.699237,0.096217,0.280516,2.074069
11710,6.990739,-6.023775,3.667353,0.196772,0.235609,2.026893
11711,6.957283,-6.093707,3.763438,0.297628,0.210885,1.985811
11712,6.859908,-6.035533,4.025520,0.359329,0.200657,1.956765
11713,6.778576,-6.016672,4.165758,0.371340,0.207552,1.942745
11714,6.573924,-5.937033,4.321215,0.353182,0.202127,1.941192
11715,6.301236,-5.981397,4.200565,0.336990,0.177716,1.939382
11716,6.052290,-5.973300,4.100668,0.347820,0.152741,1.917965
11717,5.995914,-6.011317,4.183339,0.351281,0.121775,1.887789
11718,6.020716,-6.139755,4.362895,0.319936,0.090085,1.851914
11719,6.123341,-6.289885,4.420064,0.280904,0.082513,1.823368
11720,6.082732,-6.616504,4.425283,0.244268,0.095177,1.816266
11721,5.823987,-7.062630,4.248720,0.219749,0.093598,1.847768
11722,5.400818,-7.459922,3.953408,0.298861,0.044311,1.868515
11723,5.155196,-7.599048,3.849721,0.564054,-0.048360,1.819010
11724,5.136729,-7.122757,4.225498,0.858746,-0.095114,1.702663
11725,5.123408,-6.356293,4.751895,1.006612,-0.074936,1.551453
11726,5.031023,-5.520086,5.374850,0.986165,-0.008020,1.413787
11727,4.848103,-5.035223,5.630104,0.756290,0.023904,1.335327
11728,4.408369,-5.122868,5.013670,0.421738,-0.047485,1.309184
11729,4.046019,-5.739845,4.033141,0.332231,-0.149673,1.274917
11730,4.033977,-6.188925,3.628996,0.628958,-0.203010,1.223849
11731,4.308349,-6.121387,4.280390,1.015711,-0.204807,1.174218
11732,4.519601,-5.919546,5.161222,1.200749,-0.159335,1.142282
11733,4.209586,-6.035396,5.768039,1.233760,-0.153010,1.121521
11734,3.963777,-6.418109,6.022602,1.290641,-0.222926,1.080935
11735,4.069589,-6.733418,5.624089,1.472862,-0.280426,1.049454
11736,4.080064,-6.772431,5.564260,1.863616,-0.232915,1.012670
11737,3.852288,-6.429952,6.104841,2.158927,-0.234114,0.949140
11738,3.806347,-5.970493,6.290649,2.239610,-0.265910,0.877360
11739,3.985466,-5.871785,6.472307,2.276003,-0.247781,0.819822
11740,3.932029,-6.232396,6.750654,2.404675,-0.236080,0.780288
11741,3.846018,-6.812866,6.709364,2.586616,-0.273818,0.756107
11742,3.713723,-7.315607,6.121932,2.888794,-0.299845,0.711489
11743,3.651087,-7.358892,5.530883,3.349535,-0.306659,0.639875
11744,3.644087,-7.010535,5.519365,3.786455,-0.276457,0.556345
11745,3.463157,-6.460596,5.544689,4.030258,-0.276120,0.498143
11746,3.432936,-6.075859,5.229856,4.158220,-0.299562,0.456106
11747,3.340818,-5.480466,4.916606,4.360192,-0.289834,0.425196
11748,3.232467,-4.616544,4.874210,4.566382,-0.293323,0.389628
11749,3.353389,-3.314274,5.119343,4.679469,-0.245689,0.330121
11750,3.237533,-1.919973,5.793242,4.734898,-0.134471,0.263494
11751,3.066488,-0.723880,6.927394,4.520544,-0.113012,0.256449
11752,3.027046,0.315479,7.896398,3.823399,-0.195110,0.288382
11753,2.863352,0.816417,8.503813,2.820884,-0.284283,0.310679
11754,2.652089,0.391988,8.606829,1.910965,-0.382734,0.317157
11755,3.023897,-0.378901,8.324082,1.391593,-0.440139,0.306070
11756,3.420237,-1.052485,8.210308,1.241347,-0.381168,0.294409
11757,3.289897,-1.341426,8.098285,1.279030,-0.326184,0.274007
11758,3.177548,-1.445945,8.307563,1.214652,-0.341952,0.249887
11759,3.164370,-1.507692,8.273160,1.089282,-0.345226,0.203148
11760,3.208933,-1.575984,8.410325,1.096210,-0.321148,0.161859
11761,3.579493,-1.608551,8.679501,1.130747,-0.292002,0.146348
11762,3.604164,-1.659940,8.874235,1.158924,-0.259132,0.153801
11763,3.723460,-1.479478,8.978075,1.231867,-0.234206,0.139380
11764,3.735364,-1.005038,9.095249,1.322405,-0.185270,0.113560
11765,3.710917,-0.251229,9.284934,1.310002,-0.147531,0.075482
11766,3.606787,0.383182,9.425686,1.078009,-0.127907,0.036153
11767,3.547076,0.619874,9.404998,0.613585,-0.153588,0.010443
11768,3.738016,0.356759,9.232718,0.205394,-0.151785,-0.001089
11769,3.666100,-0.170153,9.224620,-0.045002,-0.125359,0.001852
11770,3.528596,-0.620236,9.169501,-0.268013,-0.129929,-0.001025
11771,3.712005,-0.884437,8.951427,-0.402117,-0.106033,-0.025016
11772,3.826784,-1.005519,9.084454,-0.384977,-0.017717,-0.042120
11773,3.641261,-0.834033,9.431468,-0.467902,0.018132,-0.055880
11774,3.683049,-0.804224,9.371799,-0.655407,0.003163,-0.066484
11775,3.723584,-1.014884,9.247644,-0.789228,0.021584,-0.076735
11776,3.692462,-0.996408,8.885569,-0.948368,0.037457,-0.104431
11777,3.692902,-0.772008,8.488034,-1.168178,0.065583,-0.162670
11778,3.751835,-0.328407,8.336130,-1.393948,0.120142,-0.221725
11779,3.656409,0.061886,8.430324,-1.760800,0.155377,-0.271467
11780,3.545405,0.078581,8.612797,-2.308093,0.151666,-0.287341
11781,3.497807,-0.556396,8.674668,-2.868360,0.123028,-0.259586
11782,3.461217,-1.564657,8.575798,-3.348011,0.078027,-0.192162
11783,3.554921,-2.729296,8.282823,-3.799527,0.032571,-0.121980
11784,3.728743,-3.885818,7.595801,-4.038872,0.027879,-0.082222
11785,3.755631,-4.862752,7.044266,-3.783695,0.104141,-0.080178
11786,3.650491,-5.170716,6.934049,-3.333943,0.174770,-0.096239
11787,3.504818,-4.843902,7.517104,-3.147591,0.205747,-0.121783
11788,3.453713,-4.736794,7.660591,-3.323017,0.149054,-0.126012
11789,3.582921,-5.162893,7.392840,-3.472133,0.110936,-0.110265
11790,3.517297,-5.591180,7.225009,-3.377775,0.148590,-0.099902
11791,3.467045,-5.871057,7.312888,-3.255760,0.157160,-0.090614
11792,3.518675,-6.104982,7.215703,-3.274198,0.143807,-0.092019
11793,3.539439,-6.291761,6.695015,-3.323013,0.156008,-0.103048
11794,3.524187,-6.476861,6.399603,-3.168623,0.183915,-0.120208
11795,3.442828,-6.396635,6.523572,-3.038139,0.186210,-0.138668
11796,3.484195,-6.433881,6.401880,-3.132642,0.149615,-0.139833
11797,3.498692,-6.725783,6.110433,-3.181114,0.128402,-0.137423
11798,3.540925,-6.930213,5.727981,-3.135482,0.146674,-0.152247
11799,3.437092,-6.979553,5.663942,-2.986870,0.183837,-0.171893
11800,3.306034,-6.846150,5.752927,-2.913524,0.194029,-0.190487
11801,3.262179,-7.011521,5.531055,-2.938180,0.166343,-0.222455
11802,3.209045,-7.395015,5.265610,-2.891303,0.165089,-0.241929
11803,3.224201,-7.885910,5.080271,-2.758650,0.169760,-0.264213
11804,3.231323,-8.514482,4.822340,-2.524903,0.163310,-0.273604
11805,3.321497,-9.069147,4.409911,-2.143963,0.181256,-0.284738
11806,3.459342,-9.304438,4.236971,-1.616563,0.219079,-0.321631
11807,3.599131,-8.857518,4.506950,-1.121488,0.291824,-0.354776
11808,3.689773,-8.222409,4.655152,-0.845835,0.328766,-0.394777
11809,3.684453,-7.706879,4.723723,-0.676649,0.372947,-0.412807
11810,3.656997,-7.314439,4.749970,-0.546017,0.388126,-0.427721
11811,3.742321,-7.227358,4.694515,-0.549680,0.352436,-0.420815
11812,3.823542,-7.492448,4.437645,-0.537959,0.336851,-0.412641
11813,3.935453,-7.713272,4.239730,-0.419297,0.355675,-0.413942
11814,3.922424,-7.660684,4.269232,-0.299728,0.372440,-0.425001
11815,3.984759,-7.492320,4.227513,-0.234336,0.392157,-0.447661
11816,4.065271,-7.178001,4.329274,-0.194740,0.432050,-0.475483
11817,4.075700,-6.687423,4.392866,-0.175476,0.495505,-0.536620
11818,4.138347,-6.248247,4.690380,-0.207533,0.547181,-0.603410
11819,4.223878,-5.932281,4.858966,-0.327153,0.584674,-0.665043
11820,4.300787,-5.848852,4.909310,-0.467338,0.612861,-0.727659
11821,4.312270,-5.826830,4.886337,-0.571851,0.618549,-0.783705
11822,4.433709,-6.010752,4.713571,-0.677300,0.593946,-0.833606
11823,4.421642,-6.287802,4.193043,-0.731587,0.590890,-0.895815
11824,4.456243,-6.463287,3.801677,-0.667224,0.602009,-0.998566
11825,4.555129,-6.272159,3.697464,-0.535819,0.635780,-1.117848
11826,4.555203,-5.866458,3.880968,-0.429211,0.650026,-1.250661
11827,4.664162,-5.617137,4.175587,-0.420321,0.630452,-1.359366
11828,4.855271,-5.819179,4.271226,-0.494441,0.606048,-1.412060
11829,4.973088,-6.273217,4.258023,-0.521609,0.613826,-1.430281
11830,4.879397,-6.718758,4.026380,-0.430567,0.616434,-1.408464
11831,4.794438,-6.956282,3.714582,-0.236908,0.581448,-1.401779
11832,4.857149,-6.874154,3.493856,0.030193,0.538654,-1.423377
11833,5.103832,-6.386503,3.426161,0.275695,0.504356,-1.494396
11834,5.444540,-5.707228,3.687441,0.412953,0.481280,-1.607957
11835,5.761413,-5.183009,3.806963,0.388245,0.448388,-1.728452
11836,6.200308,-5.092986,4.102758,0.238025,0.425803,-1.811210
11837,6.576885,-5.539205,4.314905,0.037808,0.431897,-1.844832
11838,6.642312,-6.273142,4.457861,-0.045337,0.447413,-1.832470
11839,6.515795,-6.856386,4.423950,0.025592,0.443778,-1.813289
11840,6.361261,-6.951137,4.161164,0.181474,0.401966,-1.810465
11841,6.363606,-6.689260,3.860702,0.313647,0.330874,-1.839321
11842,6.599950,-6.319673,3.451536,0.368726,0.214690,-1.893253
11843,6.905581,-5.947512,3.138016,0.431940,0.157122,-2.003456
11844,7.389917,-5.634501,3.306522,0.465910,0.125452,-2.115286
11845,7.777777,-5.380280,3.780199,0.419168,0.116207,-2.219916
11846,8.055683,-5.461948,4.338083,0.274639,0.149520,-2.273104
11847,8.026426,-5.832047,4.633241,0.126092,0.193546,-2.277400
11848,7.791823,-6.173423,4.720793,0.112284,0.214831,-2.272918
11849,7.519508,-6.199298,4.592093,0.222473,0.184817,-2.263969
11850,7.354355,-6.010092,4.271940,0.331922,0.081331,-2.246365
11851,7.608903,-5.762605,3.829419,0.397416,-0.052015,-2.256887
11852,7.911292,-5.577717,3.406305,0.499592,-0.166869,-2.299793
11853,8.271108,-5.344570,3.375955,0.665929,-0.217858,-2.375341
11854,8.328658,-4.983326,3.907915,0.827340,-0.175450,-2.466324
11855,7.969090,-4.754096,4.357176,0.855653,-0.156747,-2.547292
11856,7.742859,-4.633510,4.264351,0.808952,-0.228981,-2.581117
11857,7.907734,-4.518625,4.347435,0.846740,-0.318924,-2.598132
11858,8.104662,-4.312350,4.574657,0.903210,-0.383701,-2.577445
11859,8.234537,-4.161628,4.437920,0.920040,-0.453099,-2.538384
11860,8.206972,-4.079184,4.167353,0.918350,-0.497999,-2.512054
11861,8.072795,-4.145225,4.190927,0.979442,-0.526305,-2.512595
11862,7.815252,-4.195891,4.096837,1.027539,-0.523318,-2.524355
11863,7.530430,-4.089426,3.861674,1.039793,-0.538652,-2.508042
11864,7.816976,-4.004219,3.560414,1.025722,-0.611265,-2.449382
11865,8.635946,-4.013731,3.284500,1.100847,-0.676440,-2.372013
11866,9.289327,-3.844361,3.389654,1.252348,-0.714319,-2.316601
11867,9.609025,-3.484385,3.712763,1.283838,-0.734784,-2.266759
11868,9.486368,-3.212544,3.741059,1.187197,-0.751374,-2.209333
11869,8.788839,-3.077522,3.333508,1.086258,-0.781669,-2.179748
11870,8.038629,-2.774439,3.100736,1.145971,-0.846683,-2.182368
11871,7.923875,-2.324074,3.394007,1.231254,-0.943961,-2.144541
11872,8.486942,-1.954655,3.417920,1.129287,-1.053841,-2.038040
11873,9.552108,-1.840365,3.340689,0.898127,-1.099915,-1.890256
11874,10.419246,-1.822953,3.305194,0.695525,-1.081185,-1.745059
11875,10.795641,-1.922369,3.336485,0.526675,-1.035735,-1.610193
11876,10.660005,-2.076318,3.297729,0.405013,-0.992524,-1.512119
11877,10.282120,-2.089391,3.192846,0.385873,-0.986329,-1.447609
11878,9.868366,-1.811475,3.334669,0.496173,-0.980501,-1.412286
11879,9.637565,-1.241483,3.917062,0.724307,-0.944230,-1.378687
11880,9.301664,-0.403623,4.628022,0.872030,-0.850292,-1.322012
11881,9.105693,0.318693,4.985219,0.671262,-0.785983,-1.212591
11882,9.065011,0.536259,4.944438,0.134450,-0.774909,-1.055371
11883,9.156126,0.097929,4.309912,-0.322181,-0.796716,-0.887979
11884,9.292716,-0.494894,3.271174,-0.368196,-0.810940,-0.744696
11885,9.528088,-0.603608,2.680227,-0.025422,-0.793232,-0.656568
11886,9.774039,-0.191695,2.989698,0.367522,-0.730226,-0.603236
11887,9.714885,0.350110,3.311506,0.449247,-0.688746,-0.535051
11888,9.720747,0.580445,3.315293,0.329170,-0.697424,-0.469420
11889,10.015404,0.654147,3.285366,0.241676,-0.674121,-0.394597
11890,10.207954,0.687170,3.220629,0.200708,-0.606569,-0.307007
11891,10.164707,0.614991,3.226883,0.160856,-0.564134,-0.213749
11892,10.099815,0.580474,3.186767,0.124982,-0.537825,-0.133286
11893,9.979209,0.558740,3.031216,0.124983,-0.493533,-0.063307
11894,9.771552,0.695685,2.849247,0.169465,-0.465383,-0.020031
11895,9.736742,0.866769,2.944895,0.206054,-0.430407,0.015401
11896,9.751087,1.040531,2.921416,0.152455,-0.402865,0.048028
11897,9.808553,1.216491,2.605987,0.106884,-0.371552,0.080530
11898,9.773624,1.257605,2.364074,0.095581,-0.344038,0.088255
11899,9.707038,1.295526,2.263318,0.139202,-0.330970,0.067432
11900,9.960346,1.338812,2.391805,0.180464,-0.350521,0.047235
11901,10.155522,1.378903,2.329470,0.210034,-0.348164,0.066937
11902,10.233965,1.406442,2.358575,0.298798,-0.308790,0.105683
11903,10.212961,1.398470,2.430024,0.352644,-0.259350,0.149375
11904,10.099523,1.428096,2.457621,0.336115,-0.234895,0.194267
11905,10.027692,1.531835,2.396651,0.375952,-0.245735,0.212853
11906,10.011316,1.812478,2.327757,0.464570,-0.250571,0.202726
11907,9.959232,2.167565,2.325584,0.573526,-0.219784,0.195925
11908,9.857061,2.477623,2.567898,0.621301,-0.179969,0.195722
11909,9.769632,2.670947,2.882721,0.494044,-0.167317,0.187884
11910,9.666897,2.506603,2.816272,0.230954,-0.189627,0.187760
11911,9.694638,2.116273,2.405859,0.130656,-0.234062,0.162762
11912,9.834994,1.884709,2.068069,0.196844,-0.224337,0.122958
11913,9.775006,1.892647,1.855593,0.244554,-0.221211,0.077356
11914,9.771344,2.028293,1.598988,0.189593,-0.230374,0.045391
11915,9.731220,2.094790,1.504861,0.149135,-0.213536,0.034856
11916,9.676809,2.095016,1.625591,0.104375,-0.189939,0.036536
11917,9.692686,1.930070,1.838266,-0.009369,-0.185201,0.056691
11918,9.636885,1.602422,1.893122,-0.101146,-0.177127,0.089597
11919,9.680945,1.326554,1.937876,-0.118923,-0.185680,0.104983
11920,9.641102,1.138371,1.881033,-0.075541,-0.174616,0.111561
11921,9.615063,1.119927,1.711836,0.000932,-0.167053,0.098017
11922,9.523914,1.227275,1.681637,0.087521,-0.159074,0.094983
11923,9.570111,1.393896,1.671572,0.120349,-0.149654,0.101071
11924,9.624092,1.437382,1.666945,0.085284,-0.135806,0.121555
11925,9.570492,1.445811,1.604881,0.091939,-0.137693,0.130854
11926,9.632910,1.516298,1.703036,0.089284,-0.129701,0.128666
11927,9.624858,1.506571,1.742221,0.047399,-0.139187,0.128610
11928,9.631840,1.446660,1.730420,0.018976,-0.137983,0.116099
11929,9.635688,1.436284,1.717595,0.034646,-0.120254,0.108895
11930,9.616993,1.423295,1.655965,0.028307,-0.117054,0.103150
11931,9.619000,1.438532,1.643508,0.034567,-0.111133,0.097286
11932,9.707391,1.408547,1.608169,0.023710,-0.095414,0.097814
11933,9.682212,1.275910,1.607697,-0.005938,-0.092969,0.095264
11934,9.687581,1.143128,1.569315,0.012946,-0.097999,0.098588
11935,9.695880,1.179910,1.470442,0.078297,-0.081018,0.092893
11936,9.712156,1.421404,1.536075,0.139546,-0.047019,0.086632
11937,9.654113,1.616076,1.699976,0.129646,-0.038243,0.078426
11938,9.715478,1.716205,1.804909,0.067854,-0.032236,0.073678
11939,9.758645,1.639475,1.835467,-0.047587,-0.034769,0.070735
11940,9.753394,1.378766,1.672713,-0.130712,-0.045389,0.067888
11941,9.829637,1.244653,1.512400,-0.106043,-0.031006,0.058061
11942,9.768297,1.262856,1.586499,-0.044907,-0.006278,0.056368
11943,9.727815,1.327089,1.553092,-0.039259,0.001825,0.050233
11944,9.791281,1.371380,1.509715,-0.041778,-0.002831,0.049409
11945,9.755860,1.396139,1.669570,-0.002432,0.016568,0.044697
11946,9.713784,1.301251,1.888647,-0.021778,0.014854,0.043623
11947,9.679441,1.046003,1.799864,-0.086418,-0.026990,0.047731
11948,9.750987,0.738538,1.542189,-0.083999,-0.056580,0.053557
11949,9.844109,0.633062,1.393852,0.059377,-0.025078,0.055568
11950,9.725105,0.749237,1.452009,0.224321,0.017383,0.061555
11951,9.705960,0.943518,1.496361,0.251535,0.014836,0.063153
11952,9.729577,0.936860,1.388709,0.255297,0.012832,0.066790
11953,9.704465,1.004073,1.334401,0.311340,0.019112,0.065802
11954,9.698223,1.272927,1.353279,0.363627,0.029644,0.049664
11955,9.594512,1.593304,1.448029,0.353940,0.040775,0.036840
11956,9.573965,1.726455,1.614281,0.243758,0.028277,0.023458
11957,9.555964,1.701464,1.598973,0.074352,-0.003316,0.009127
11958,9.661529,1.446642,1.376906,-0.003443,-0.014808,0.007163
11959,9.696815,1.322887,1.346263,0.018802,0.012269,0.010906
11960,9.693337,1.205512,1.441834,0.028386,0.003426,0.012213
11961,9.672615,1.152302,1.394930,0.012195,-0.007516,0.005631
11962,9.740411,1.178657,1.385460,0.046197,0.004882,0.003572
11963,9.701499,1.199907,1.353567,0.042058,0.009361,0.004290
11964,9.700550,1.224441,1.352270,0.049404,0.007301,0.004642
11965,9.686069,1.301000,1.401324,0.076755,0.019511,0.002526
11966,9.644404,1.381849,1.523072,0.044340,0.018320,-0.006589
11967,9.645890,1.334485,1.526931,-0.000747,0.001899,-0.014053
11968,9.685268,1.305093,1.403057,-0.007201,-0.003109,-0.023069
11969,9.739969,1.261697,1.418088,0.012175,0.009908,-0.029167
11970,9.702489,1.236586,1.389814,0.008993,0.006562,-0.022188
11971,9.665195,1.210782,1.360946,0.000109,-0.003877,-0.017035
11972,9.753487,1.192056,1.370334,0.013037,0.004495,-0.018416
11973,9.670928,1.243778,1.428707,0.031662,0.019961,-0.017972
11974,9.619844,1.270262,1.450983,0.029913,0.012848,-0.025273
11975,9.625712,1.302107,1.518447,0.008398,0.004190,-0.024627
11976,9.666925,1.323876,1.425750,-0.016447,-0.003191,-0.014886
11977,9.650659,1.249743,1.415524,-0.019948,0.002722,-0.003681
11978,9.666886,1.224606,1.398676,-0.021267,0.002789,0.000431
11979,9.720121,1.226922,1.410972,-0.037873,0.004593,0.001390
11980,9.642518,1.154132,1.477360,-0.032015,0.007059,0.001105
11981,9.636154,1.124690,1.411209,-0.020618,0.002760,-0.001629
11982,9.668523,1.174306,1.404910,-0.006818,0.005539,0.000885
11983,9.615139,1.171199,1.394339,-0.010415,0.013495,0.002846
11984,9.634810,1.248035,1.439939,0.007190,0.002574,0.002475
11985,9.682485,1.282977,1.572418,0.016642,0.015392,-0.000238
11986,9.663355,1.281208,1.558232,-0.026694,0.006041,-0.000430
11987,9.659828,1.178663,1.496886,-0.041160,0.003298,-0.000893
11988,9.674301,1.102405,1.449214,-0.017489,0.007408,-0.002935
11989,9.634350,1.147915,1.416425,0.006231,0.010402,-0.003785
11990,9.632314,1.197041,1.414014,0.030120,0.008942,0.000119
11991,9.655438,1.277148,1.493793,0.024035,0.012049,-0.005548
11992,9.656062,1.253690,1.496660,0.002622,0.018184,-0.008699
11993,9.668466,1.226875,1.446733,-0.017786,0.015376,-0.004396
11994,9.629628,1.148079,1.387946,-0.016209,0.008630,-0.001375
11995,9.685312,1.177926,1.433379,0.018659,0.014187,-0.005208
11996,9.617136,1.251956,1.471349,0.006798,0.012600,-0.008222
11997,9.648542,1.227411,1.436084,-0.016215,0.008279,-0.015117
11998,9.683508,1.205561,1.434858,0.006304,0.007829,-0.015148
11999,9.650452,1.257176,1.470757,0.011862,0.018268,-0.016879
12000,9.685340,1.235582,1.469853,-0.006217,0.006271,-0.016109
12001,9.681447,1.234656,1.436696,-0.001277,0.015628,-0.014595
