// Start Time: Unknown
// Update Rate: 100.0Hz
// Filter Profile: human (46.1)
// Firmware Version: 4.3.5
PacketCounter,Acc_X,Acc_Y,Acc_Z,Gyr_X,Gyr_Y,Gyr_Z
19087,9.716696,-0.915031,1.626892,0.000281,0.009036,-0.016976
19088,9.756057,-0.933249,1.660005,0.004813,0.007863,-0.013638
19089,9.728571,-0.930264,1.640107,0.007576,0.011250,-0.009961
19090,9.744976,-0.893835,1.679347,0.009387,0.004446,-0.013311
19091,9.756905,-0.910586,1.691368,0.005609,0.007128,-0.009829
19092,9.760456,-0.875344,1.690191,0.006917,0.006301,-0.007557
19093,9.749411,-0.837298,1.708402,0.000189,0.007637,-0.015042
19094,9.742231,-0.904500,1.713006,-0.007702,0.010001,-0.014502
19095,9.752353,-0.958747,1.667578,-0.003358,0.010873,-0.018450
19096,9.711173,-0.933946,1.696017,0.000754,0.011191,-0.015510
19097,9.741218,-0.918777,1.687311,-0.000178,0.012772,-0.014372
19098,9.711034,-0.930774,1.698553,0.004261,0.015045,-0.020260
19099,9.752975,-0.933342,1.701597,0.005430,0.015064,-0.013037
19100,9.725449,-0.930177,1.682121,0.010100,0.013050,-0.014646
19101,9.727173,-0.932216,1.623955,0.011456,0.015867,-0.011301
19102,9.726004,-0.908552,1.714165,0.011456,0.015868,-0.011302
19103,9.727697,-0.910730,1.656178,0.009636,0.016785,-0.012039
19104,9.740293,-0.908600,1.698131,0.012764,0.015044,-0.009030
19105,9.775651,-0.862850,1.628297,0.006834,0.015640,-0.012710
19106,9.805589,-0.847798,1.620166,-0.006102,0.019255,-0.013983
19107,9.873443,-0.731523,1.627475,-0.018104,0.021291,-0.016396
19108,9.857687,-0.746979,1.620172,-0.039592,0.028198,-0.010653
19109,9.858709,-0.867712,1.639580,-0.060657,0.027730,-0.008597
19110,9.839308,-0.918993,1.634197,-0.066501,0.030771,0.001024
19111,9.778590,-0.947933,1.655901,-0.057492,0.024792,0.006641
19112,9.756570,-0.857102,1.721680,-0.045071,0.021266,0.009458
19113,9.775856,-0.789710,1.759892,-0.053717,0.017270,0.014318
19114,9.823129,-0.864379,1.806417,-0.070203,0.013396,0.016686
19115,9.918030,-0.912560,1.792545,-0.078183,0.008481,0.015047
19116,10.047368,-0.992957,1.901397,-0.075747,0.014768,0.016391
19117,10.161800,-0.972426,1.925049,-0.076776,0.020831,0.023548
19118,10.154682,-1.026766,1.959172,-0.084807,0.029918,0.033103
19119,10.108853,-1.043824,1.990227,-0.086693,0.028208,0.046518
19120,10.076253,-1.043642,2.090235,-0.100595,0.023680,0.068639
19121,9.964396,-1.164211,2.083857,-0.101022,0.037932,0.091664
19122,9.894924,-1.132846,2.120514,-0.098635,0.009699,0.111101
19123,9.854730,-1.248283,2.104527,-0.109871,0.026024,0.138894
19124,9.831429,-1.434527,2.172438,-0.084283,0.017827,0.175787
19125,9.930222,-1.572045,2.142174,-0.059356,0.017652,0.211031
19126,10.092032,-1.611844,2.209823,-0.018235,0.017026,0.249725
19127,10.332095,-1.758224,2.136649,0.001282,0.035865,0.296925
19128,10.185767,-1.755732,2.184625,0.018582,0.052289,0.354026
19129,10.485544,-1.749136,2.107611,-0.016971,0.021694,0.414668
19130,10.262651,-2.155507,2.060836,-0.069535,0.082466,0.492838
19131,10.313524,-2.502621,2.001598,-0.070132,0.049233,0.591954
19132,10.611587,-2.648251,2.039481,-0.066824,0.037699,0.698364
19133,10.768713,-2.772938,2.060288,-0.079689,0.042682,0.811691
19134,10.839305,-2.496001,2.168871,-0.103709,0.032096,0.951058
19135,10.778444,-2.550376,2.194349,-0.233727,0.034587,1.079845
19136,10.652855,-2.800406,2.232398,-0.297746,0.034589,1.191657
19137,10.472798,-3.224765,2.294078,-0.268686,0.049232,1.273275
19138,10.412280,-3.433302,2.352499,-0.187191,0.032975,1.364424
19139,10.468632,-3.746653,2.399618,-0.107483,0.020491,1.452151
19140,10.522020,-4.179792,2.354013,0.014552,0.025225,1.539023
19141,10.445937,-4.502692,2.297008,0.183507,0.033654,1.611971
19142,10.305271,-4.685387,2.333205,0.373967,0.062851,1.678346
19143,10.216831,-4.671478,2.314441,0.528762,0.090450,1.755115
19144,10.089878,-4.507039,2.234458,0.613472,0.130070,1.817812
19145,9.936258,-4.352411,2.166723,0.634963,0.166380,1.868569
19146,9.800119,-4.362235,2.219639,0.596445,0.198982,1.913856
19147,9.688990,-4.477002,2.230474,0.525678,0.231959,1.946281
19148,9.585030,-4.630357,2.324402,0.439790,0.268990,1.978439
19149,9.472291,-4.852858,2.503867,0.362274,0.306832,1.994618
19150,9.251558,-5.125131,2.694464,0.299678,0.350741,2.020285
19151,9.029081,-5.472793,2.894637,0.278996,0.396964,2.039043
19152,8.800228,-5.648837,3.034069,0.293055,0.451115,2.049116
19153,8.511650,-5.760066,3.049403,0.312511,0.499483,2.052109
19154,8.266918,-5.856135,2.967466,0.299195,0.526214,2.069331
19155,7.990555,-5.982509,2.977477,0.286714,0.550311,2.080914
19156,7.781328,-6.298817,3.072751,0.271228,0.575966,2.086407
19157,7.686048,-6.681764,3.266463,0.283007,0.608928,2.092785
19158,7.456066,-6.983019,3.469733,0.341321,0.649976,2.090357
19159,7.209008,-7.191345,3.628902,0.407625,0.686217,2.093150
19160,6.951657,-7.156580,3.753068,0.459365,0.718082,2.093114
19161,6.805264,-7.045650,3.847626,0.473293,0.747031,2.089934
19162,6.726102,-6.954204,3.999982,0.440751,0.776405,2.083512
19163,6.726861,-6.948883,4.159243,0.372665,0.811410,2.080309
19164,6.700662,-7.093235,4.225124,0.291157,0.851822,2.078322
19165,6.606152,-7.258737,4.255285,0.207683,0.896997,2.072674
19166,6.346314,-7.568254,4.167837,0.153468,0.935476,2.065910
19167,6.141839,-7.916582,3.979975,0.132892,0.959086,2.060343
19168,5.964992,-8.068664,3.915233,0.139000,0.966993,2.056093
19169,5.862264,-8.193489,3.957019,0.136872,0.970199,2.057878
19170,5.923610,-8.164173,4.204715,0.073191,0.964921,2.076222
19171,5.920549,-7.943600,4.411808,-0.064601,0.968872,2.103160
19172,5.783753,-7.812815,4.428293,-0.249013,0.957640,2.133133
19173,5.505930,-8.226156,4.323418,-0.396460,0.930828,2.159596
19174,5.187320,-9.110447,4.019954,-0.427785,0.896415,2.165302
19175,4.779874,-9.982485,3.669839,-0.275791,0.855725,2.150088
19176,4.530034,-10.532065,3.624670,0.031135,0.821264,2.117960
19177,4.398681,-10.613431,3.723159,0.390706,0.811337,2.077000
19178,4.403785,-10.281826,3.934960,0.708123,0.819771,2.018816
19179,4.442570,-9.765112,4.159026,0.937137,0.846804,1.957611
19180,4.395485,-9.252189,4.293694,1.050610,0.892971,1.897902
19181,4.152522,-8.827717,4.303956,1.076308,0.930594,1.839276
19182,3.919091,-8.482172,4.269484,1.022073,0.952498,1.776322
19183,3.863527,-8.177383,4.208837,0.901804,0.952982,1.706794
19184,3.822899,-7.915249,4.172517,0.734923,0.945600,1.627891
19185,3.808667,-7.887381,4.156373,0.558358,0.928868,1.546916
19186,3.900448,-8.191886,4.312282,0.425860,0.905096,1.456305
19187,3.882517,-8.712501,4.369814,0.384327,0.891517,1.375366
19188,3.948300,-9.138072,4.456033,0.450251,0.883835,1.292540
19189,4.028381,-9.263920,4.475720,0.593038,0.896048,1.211324
19190,4.037886,-8.954226,4.488352,0.722903,0.915007,1.133424
19191,3.934803,-8.479418,4.419023,0.771964,0.931261,1.056996
19192,3.789624,-8.009813,4.406540,0.737744,0.928180,0.989863
19193,3.676128,-7.822925,4.349178,0.661903,0.912487,0.912832
19194,3.578725,-7.899637,4.406612,0.588946,0.892359,0.832645
19195,3.468096,-7.918347,4.454045,0.561154,0.872425,0.751950
19196,3.376206,-7.987417,4.547991,0.594593,0.862008,0.665448
19197,3.249547,-8.005450,4.692291,0.635195,0.847644,0.572246
19198,3.181223,-7.906044,4.741115,0.708349,0.841591,0.478151
19199,3.120669,-7.746157,4.803801,0.779430,0.833788,0.380352
19200,3.198605,-7.533153,4.990866,0.840019,0.835298,0.284925
19201,3.314318,-7.236815,5.064538,0.886804,0.848738,0.183524
19202,3.315614,-6.912450,5.052486,0.899179,0.865879,0.088457
19203,3.196910,-6.566258,4.888398,0.862098,0.865893,0.001770
19204,3.012348,-6.341215,4.826039,0.769439,0.843659,-0.067558
19205,2.947118,-6.230176,4.834483,0.636537,0.811203,-0.131008
19206,3.056490,-6.163020,5.068994,0.494003,0.786708,-0.194505
19207,3.145114,-6.184696,5.272379,0.346354,0.774899,-0.243252
19208,3.277466,-6.371228,5.355626,0.233310,0.741203,-0.269686
19209,3.402977,-6.444639,5.299395,0.184323,0.748726,-0.304606
19210,3.279863,-6.567175,5.032719,0.191899,0.758364,-0.339688
19211,3.211603,-6.621058,4.859501,0.239643,0.746224,-0.371358
19212,3.044819,-6.696578,4.766144,0.326911,0.730964,-0.390114
19213,2.954984,-6.717410,4.839894,0.427211,0.689416,-0.407567
19214,2.872668,-6.718627,5.097130,0.526250,0.659923,-0.417920
19215,2.929040,-6.726796,5.137209,0.630229,0.623551,-0.406058
19216,2.986126,-6.729322,5.184541,0.730180,0.612302,-0.401111
19217,2.858427,-6.575799,5.136454,0.853977,0.603327,-0.394297
19218,2.667251,-6.227565,5.110490,0.954059,0.579160,-0.386580
19219,2.453712,-5.823190,5.213324,0.981659,0.547652,-0.378457
19220,2.266106,-5.486903,5.374915,0.941149,0.520719,-0.373135
19221,2.172631,-5.382034,5.668540,0.845292,0.476167,-0.356316
19222,2.155037,-5.530682,5.790362,0.726938,0.425614,-0.321161
19223,2.224813,-5.745074,5.969200,0.619479,0.389254,-0.274757
19224,2.242809,-5.887987,6.001356,0.557099,0.375772,-0.230885
19225,2.193394,-5.797887,5.889077,0.504975,0.362401,-0.177606
19226,2.106696,-5.641261,5.849589,0.446369,0.345592,-0.126132
19227,1.905552,-5.524610,5.906432,0.354536,0.320035,-0.074473
19228,1.817339,-5.600091,5.923268,0.271988,0.302019,-0.022117
19229,1.661038,-5.830116,5.929100,0.204193,0.273351,0.012450
19230,1.578591,-6.131863,6.121429,0.203563,0.247472,0.043429
19231,1.543845,-6.284031,6.190144,0.277970,0.213515,0.069803
19232,1.557696,-6.316410,6.255588,0.376974,0.183616,0.083953
19233,1.473262,-6.221941,6.206932,0.471067,0.163353,0.097995
19234,1.330725,-6.128312,6.170266,0.548515,0.134243,0.116009
19235,1.145678,-6.076902,6.224587,0.607671,0.090256,0.120296
19236,1.073834,-6.131187,6.280486,0.673533,0.043548,0.126377
19237,1.169160,-6.295056,6.366598,0.778505,0.007488,0.120805
19238,1.207133,-6.514551,6.362467,0.936315,-0.014952,0.124297
19239,1.218373,-6.562535,6.344736,1.143632,-0.041574,0.131728
19240,1.235187,-6.463485,6.380476,1.357416,-0.059374,0.136501
19241,1.190984,-6.276167,6.600748,1.562960,-0.061689,0.125573
19242,1.170889,-6.051155,6.782543,1.738981,-0.070544,0.110395
19243,1.016407,-5.896178,6.894155,1.909622,-0.067946,0.093793
19244,0.935909,-5.893261,6.882004,2.087176,-0.083061,0.077549
19245,0.934754,-5.959733,6.968541,2.279369,-0.078887,0.056303
19246,1.088588,-6.207336,7.081983,2.506212,-0.086419,0.034398
19247,1.195778,-6.456780,7.237172,2.849478,-0.080443,0.010018
19248,1.242512,-6.570288,7.597062,3.314058,-0.052879,-0.011875
19249,1.156109,-6.121796,7.738059,3.858018,-0.057490,-0.029177
19250,1.091186,-4.991299,7.900838,4.310071,-0.082843,-0.023205
19251,1.020658,-3.599421,8.182053,4.517050,-0.110355,-0.011338
19252,1.029020,-2.830653,8.621053,4.474283,-0.134016,0.023480
19253,0.993631,-2.463000,8.453208,4.469805,-0.156622,0.029771
19254,1.131718,-2.467575,8.559363,4.434616,-0.179288,0.043482
19255,1.185693,-2.812069,8.496514,4.603834,-0.155475,0.071906
19256,1.275527,-3.074441,8.475437,4.852631,-0.143685,0.079347
19257,1.469354,-2.780507,8.537917,5.202594,-0.103475,0.090470
19258,1.064222,-1.558856,8.207157,5.470014,-0.079465,0.080394
19259,0.880366,-0.028202,8.260337,5.513010,-0.131178,0.088701
19260,1.041861,1.232857,8.580327,5.296865,-0.159428,0.098292
19261,1.115142,1.816362,8.728319,4.955998,-0.177268,0.137366
19262,1.130915,2.185023,8.801540,4.670262,-0.218802,0.179259
19263,1.113476,2.313645,8.512145,4.495721,-0.219952,0.218811
19264,1.001857,2.188348,8.214824,4.411481,-0.236632,0.227347
19265,1.130414,2.139372,8.236415,4.428746,-0.284087,0.209925
19266,1.365737,2.310545,8.216178,4.508991,-0.302762,0.218306
19267,1.434622,2.553252,8.106687,4.603779,-0.332558,0.246401
19268,1.473507,3.218463,7.753282,4.716300,-0.373173,0.287435
19269,1.656857,4.253894,7.765879,4.723785,-0.394160,0.330036
19270,1.711789,5.718659,7.714121,4.556509,-0.391993,0.356067
19271,1.662576,7.611933,7.688599,4.103965,-0.369930,0.346331
19272,1.564289,8.347062,7.844332,3.362843,-0.327275,0.337798
19273,1.723914,7.484205,7.985458,2.752102,-0.276121,0.297395
19274,1.897997,5.853162,8.001705,2.505416,-0.235202,0.273254
19275,2.048815,4.909578,7.470371,2.655938,-0.214492,0.250846
19276,2.092623,5.107334,7.136265,2.910683,-0.227546,0.279189
19277,2.137068,6.236291,7.027784,3.019220,-0.238889,0.315116
19278,2.149707,7.668960,7.147984,2.880507,-0.218813,0.358785
19279,2.014201,8.921106,6.919102,2.479231,-0.165235,0.370006
19280,1.755901,9.350736,6.748599,1.904719,-0.131417,0.367502
19281,1.839306,8.722764,6.973257,1.362937,-0.121201,0.355305
19282,1.954537,7.787956,6.856959,1.061439,-0.112761,0.312921
19283,1.877624,7.153382,6.681883,1.005674,-0.127548,0.276006
19284,2.094303,7.219705,6.791066,1.045010,-0.145289,0.270249
19285,2.238282,8.070224,6.985747,0.992406,-0.132648,0.263081
19286,2.153594,9.084739,7.122688,0.714225,-0.095865,0.268838
19287,2.177226,9.522989,7.276792,0.230952,-0.053207,0.262710
19288,2.306030,9.637538,7.170138,-0.279839,-0.024998,0.238190
19289,2.379452,9.687356,7.275633,-0.774671,0.015497,0.209117
19290,2.291302,9.778669,7.338967,-1.293324,0.031892,0.167181
19291,2.082969,10.123841,7.325211,-1.884591,0.029368,0.123657
19292,2.007519,10.481023,7.450174,-2.566997,0.018555,0.073641
19293,2.055554,10.766372,7.571169,-3.391779,0.021412,0.035048
19294,2.060196,10.612172,7.768068,-4.284017,0.042230,-0.002593
19295,2.193867,9.881309,7.923324,-5.120341,0.070280,-0.040297
19296,2.278812,8.702582,8.033822,-5.770883,0.126458,-0.080150
19297,2.321055,7.212695,8.120701,-6.175464,0.179623,-0.120489
19298,2.272770,5.806282,8.020676,-6.327113,0.234766,-0.152249
19299,2.216827,4.733542,8.022170,-6.333781,0.268593,-0.178365
19300,2.043578,4.106213,8.228868,-6.252853,0.294023,-0.192820
19301,2.061371,3.720642,8.375243,-6.215739,0.323346,-0.214324
19302,2.064048,3.371261,8.518915,-6.260961,0.367295,-0.207211
19303,2.058865,2.711087,8.447598,-6.353429,0.396412,-0.204099
19304,2.126032,1.613183,8.422482,-6.397457,0.434638,-0.208168
19305,2.086846,0.282815,8.509860,-6.259767,0.473155,-0.222508
19306,2.049183,-0.735450,8.496335,-5.942463,0.515980,-0.238513
19307,1.855384,-1.080448,8.419554,-5.663541,0.531357,-0.244384
19308,1.682698,-0.712426,8.495458,-5.539878,0.534949,-0.239554
19309,1.630677,-0.059365,8.469040,-5.681916,0.540757,-0.243113
19310,1.532830,-0.343655,8.391159,-6.063743,0.546953,-0.219189
19311,1.563208,-1.452773,8.287556,-6.360798,0.526640,-0.217769
19312,1.771832,-3.148515,7.988919,-6.408822,0.542422,-0.216566
19313,1.749484,-4.773103,7.649570,-6.169755,0.585378,-0.207905
19314,1.597898,-5.494941,7.430331,-5.731750,0.616293,-0.209323
19315,1.426308,-5.196557,7.080117,-5.397624,0.628080,-0.224306
19316,1.398938,-4.504668,7.053124,-5.287136,0.624047,-0.243630
19317,1.526881,-4.265768,6.664188,-5.378839,0.636003,-0.252666
19318,1.409538,-4.784879,6.164248,-5.498107,0.623070,-0.276037
19319,1.369154,-5.989327,5.717599,-5.469866,0.596655,-0.306683
19320,1.316601,-7.807333,5.108022,-5.121715,0.591184,-0.322211
19321,1.079365,-9.454371,4.781022,-4.408729,0.553975,-0.354555
19322,1.092646,-10.146281,4.823054,-3.452981,0.493405,-0.370830
19323,1.181350,-9.505060,5.085840,-2.623315,0.459279,-0.364352
19324,1.182392,-7.990459,5.192099,-2.168380,0.433044,-0.329252
19325,1.210166,-6.339589,5.150431,-2.179191,0.386623,-0.311506
19326,1.278414,-5.521191,4.991623,-2.488546,0.372280,-0.309988
19327,1.305959,-6.139372,4.848405,-2.768754,0.381081,-0.344189
19328,1.268970,-7.939987,4.479870,-2.769088,0.396418,-0.381672
19329,1.174491,-9.891215,4.130202,-2.365498,0.402252,-0.424166
19330,1.101467,-10.746945,3.830032,-1.633234,0.404622,-0.462553
19331,1.084379,-10.315601,3.745836,-0.927328,0.387479,-0.490429
19332,1.134333,-9.499017,3.830879,-0.459136,0.340516,-0.511411
19333,1.298235,-8.991441,3.902696,-0.223874,0.292574,-0.500748
19334,1.397649,-8.912141,3.900426,-0.109022,0.244663,-0.476686
19335,1.392363,-9.034694,3.833427,-0.027342,0.193293,-0.435194
19336,1.444270,-9.213275,3.982867,0.033361,0.141188,-0.372719
19337,1.499209,-9.193381,4.005775,0.094237,0.099080,-0.308114
19338,1.597342,-9.050322,4.116430,0.106754,0.063932,-0.247458
19339,1.639875,-8.864938,4.206523,0.088535,0.035613,-0.185080
19340,1.711388,-8.706828,4.211768,0.036326,0.011024,-0.127309
19341,1.763011,-8.627841,4.147898,-0.016902,-0.016396,-0.072911
19342,1.726699,-8.624294,4.139862,-0.060258,-0.047507,-0.025096
19343,1.802339,-8.550218,4.050981,-0.082636,-0.096402,0.028962
19344,1.883602,-8.376216,3.975739,-0.107858,-0.142455,0.093666
19345,1.958042,-8.179966,3.960977,-0.155224,-0.197779,0.159219
19346,2.084269,-8.090139,4.002366,-0.209549,-0.244642,0.225731
19347,2.211428,-8.123366,4.009642,-0.269462,-0.278207,0.286671
19348,2.336809,-8.149154,3.841426,-0.290392,-0.318429,0.348258
19349,2.505077,-8.078225,3.579189,-0.305117,-0.356421,0.410593
19350,2.539053,-8.040110,3.468587,-0.320998,-0.397954,0.466221
19351,2.596007,-7.848819,3.262772,-0.320176,-0.458648,0.535533
19352,2.695963,-7.430304,3.027479,-0.334593,-0.547402,0.631385
19353,2.640760,-7.094165,3.035383,-0.412642,-0.618384,0.692781
19354,2.292023,-7.230161,3.297765,-0.486734,-0.655130,0.715023
19355,2.171649,-7.355740,3.334205,-0.508085,-0.708478,0.740170
19356,2.453467,-7.598401,3.204127,-0.460643,-0.762829,0.734618
19357,2.870199,-7.712763,3.023048,-0.390756,-0.795693,0.728483
19358,3.141347,-7.802507,2.999217,-0.311408,-0.823366,0.752534
19359,3.232168,-7.774068,2.979279,-0.256673,-0.847476,0.772610
19360,3.135118,-7.825590,2.998052,-0.214443,-0.867767,0.790862
19361,2.924837,-7.867531,3.007339,-0.183193,-0.905125,0.791560
19362,2.937577,-7.882568,3.032435,-0.141772,-0.950298,0.775645
19363,2.862926,-7.898263,2.904520,-0.094404,-0.985201,0.758626
19364,2.735373,-7.845123,2.874144,-0.056610,-1.022944,0.714338
19365,2.725911,-7.835146,3.031897,-0.023858,-1.057381,0.679516
19366,2.778453,-7.816598,3.090484,0.002972,-1.072656,0.631352
19367,2.916018,-7.692126,3.066902,0.007722,-1.081219,0.575019
19368,2.954643,-7.522139,3.040803,-0.024339,-1.089432,0.518136
19369,2.764665,-7.521346,2.993783,-0.101278,-1.087731,0.448803
19370,2.480289,-7.562972,2.940346,-0.180150,-1.105794,0.364779
19371,2.041031,-7.672032,2.923007,-0.230119,-1.135336,0.269666
19372,1.702857,-7.921990,3.140133,-0.260490,-1.176471,0.163395
19373,1.565586,-8.189062,3.365242,-0.227413,-1.189057,0.050453
19374,1.598568,-8.426658,3.404562,-0.147509,-1.178250,-0.065157
19375,1.856568,-8.467571,3.448822,-0.070466,-1.157374,-0.180519
19376,2.122642,-8.427802,3.285075,-0.005729,-1.103200,-0.286180
19377,2.231222,-8.345600,3.077497,0.013829,-1.050815,-0.390886
19378,2.332526,-8.311479,2.960523,-0.050920,-1.033928,-0.481929
19379,2.306300,-8.223207,3.063918,-0.131084,-1.029809,-0.572647
19380,2.109936,-8.162566,3.183955,-0.253843,-1.039855,-0.667653
19381,1.902525,-8.219780,3.453202,-0.392463,-1.052186,-0.758666
19382,1.901123,-8.508136,3.858433,-0.518971,-1.069315,-0.851524
19383,2.079156,-8.911928,3.916876,-0.549411,-1.035247,-0.937464
19384,2.096951,-9.211530,3.560872,-0.500160,-0.993159,-1.029314
19385,2.269246,-9.279834,3.260730,-0.421147,-0.958993,-1.114210
19386,2.449366,-9.129513,2.900235,-0.323790,-0.906711,-1.198326
19387,2.571477,-9.010021,2.634453,-0.288469,-0.891226,-1.282126
19388,2.670891,-8.994209,2.794378,-0.298273,-0.878334,-1.356956
19389,2.583051,-9.127536,3.014681,-0.300503,-0.860989,-1.423812
19390,2.458884,-9.239145,3.439640,-0.293629,-0.841189,-1.502292
19391,2.415900,-9.192964,3.601401,-0.245212,-0.816529,-1.572055
19392,2.499376,-8.928600,3.440592,-0.222729,-0.796336,-1.645528
19393,2.646401,-8.606293,3.121735,-0.239292,-0.776660,-1.713947
19394,2.798239,-8.408546,2.821470,-0.262105,-0.756397,-1.795745
19395,2.911695,-8.449579,2.617071,-0.278053,-0.746574,-1.885270
19396,2.904511,-8.435884,2.309579,-0.215962,-0.746411,-1.988823
19397,2.742575,-8.287382,2.024628,-0.102036,-0.779591,-2.107582
19398,2.757363,-8.403054,1.955764,0.019409,-0.816487,-2.204371
19399,2.900185,-8.950066,2.212464,0.152087,-0.845537,-2.267107
19400,3.580965,-9.660158,3.081793,0.278560,-0.837720,-2.296484
19401,4.372748,-9.888419,3.837182,0.444875,-0.777754,-2.311874
19402,4.817659,-9.108702,4.239286,0.537361,-0.727773,-2.332289
19403,5.099345,-7.937495,4.261005,0.418774,-0.703854,-2.350837
19404,5.416817,-7.223254,4.087491,0.126550,-0.669964,-2.354100
19405,5.739958,-7.387264,3.770278,-0.243003,-0.625629,-2.336782
19406,6.003357,-8.318096,3.326227,-0.469560,-0.593892,-2.327892
19407,6.308330,-9.439096,2.873276,-0.493372,-0.569469,-2.298480
19408,6.618983,-9.990329,2.730137,-0.344110,-0.535517,-2.261238
19409,6.845407,-9.964505,2.812548,-0.128343,-0.496752,-2.219613
19410,6.939826,-9.561530,3.083232,0.036925,-0.462593,-2.159022
19411,7.005085,-9.125902,3.274495,0.127700,-0.430972,-2.086427
19412,7.122690,-8.818837,3.368635,0.155529,-0.400437,-2.013960
19413,7.143153,-8.605308,3.437345,0.154375,-0.382966,-1.945755
19414,7.140626,-8.488150,3.294151,0.156722,-0.363588,-1.887100
19415,7.033128,-8.157129,3.085674,0.139593,-0.358491,-1.823373
19416,6.998792,-7.685824,2.907238,0.096126,-0.362951,-1.777293
19417,7.043269,-7.304263,2.735658,-0.001608,-0.379761,-1.734402
19418,7.226666,-7.225059,2.631245,-0.097827,-0.380476,-1.706956
19419,7.425285,-7.284439,2.672614,-0.176168,-0.382637,-1.679401
19420,7.684543,-7.388605,2.674460,-0.206912,-0.401055,-1.636697
19421,8.031195,-7.313812,2.733076,-0.201758,-0.390043,-1.603398
19422,8.163476,-7.190878,2.789230,-0.173925,-0.367042,-1.568671
19423,8.226631,-7.068929,2.806230,-0.139676,-0.348520,-1.521284
19424,8.266451,-7.046381,2.704436,-0.084763,-0.327768,-1.480261
19425,8.299628,-6.902476,2.580294,-0.005208,-0.303427,-1.436675
19426,8.282291,-6.674677,2.426117,0.084425,-0.285348,-1.398591
19427,8.250191,-6.279265,2.387186,0.176228,-0.263868,-1.377025
19428,8.321234,-5.833709,2.313440,0.228758,-0.253494,-1.368324
19429,8.484242,-5.359329,2.361024,0.223668,-0.251286,-1.360206
19430,8.684617,-4.965999,2.443262,0.166747,-0.236830,-1.349377
19431,8.692419,-4.652833,2.491833,0.050209,-0.217782,-1.345969
19432,8.752971,-4.510598,2.520761,-0.077539,-0.201760,-1.336752
19433,8.800573,-4.465779,2.482885,-0.193701,-0.177365,-1.346118
19434,8.886032,-4.440965,2.444768,-0.283173,-0.153626,-1.333354
19435,8.933641,-4.361365,2.420031,-0.364128,-0.123402,-1.332945
19436,8.990529,-4.277252,2.245025,-0.419332,-0.096401,-1.323133
19437,9.018527,-4.179476,2.108567,-0.471111,-0.074387,-1.322860
19438,9.161557,-4.090705,1.996341,-0.504403,-0.051389,-1.319353
19439,9.436824,-4.170809,2.127675,-0.512494,-0.021454,-1.323425
19440,9.604627,-4.366570,2.373376,-0.479681,0.016532,-1.315819
19441,9.743994,-4.343151,2.782288,-0.444580,0.061346,-1.293804
19442,9.852336,-4.042699,2.977560,-0.414597,0.121772,-1.279341
19443,9.656136,-3.729840,2.533149,-0.349921,0.152017,-1.258541
19444,9.587076,-3.413362,1.787403,-0.324365,0.137544,-1.232090
19445,9.547471,-3.179569,1.025203,-0.327714,0.121430,-1.202169
19446,9.586627,-3.074166,0.565878,-0.345174,0.084485,-1.174270
19447,9.755655,-3.236195,0.441270,-0.356597,0.052125,-1.137122
19448,9.897505,-3.353164,0.650685,-0.322621,0.033681,-1.097003
19449,10.050765,-3.297875,1.017184,-0.272463,0.014359,-1.038238
19450,10.120158,-3.297679,1.303017,-0.198357,0.031234,-0.981425
19451,10.106594,-3.105480,1.529225,-0.122599,0.048442,-0.925455
19452,10.212063,-2.644706,1.653888,-0.071775,0.061376,-0.882878
19453,10.080271,-2.417559,1.553326,-0.077897,0.083165,-0.849247
19454,9.940346,-2.284159,1.463237,-0.113982,0.083797,-0.807929
19455,9.865149,-2.242007,1.434154,-0.173897,0.076550,-0.769395
19456,9.885698,-1.979586,1.507427,-0.244948,0.064269,-0.728519
19457,9.931424,-2.113011,1.558083,-0.322501,0.065876,-0.702115
19458,9.961371,-2.249332,1.685033,-0.378130,0.056933,-0.655293
19459,9.931285,-2.534779,1.655397,-0.391514,0.066418,-0.616331
19460,9.981039,-2.332594,1.726570,-0.370819,0.060663,-0.568987
19461,9.944217,-2.240515,1.682744,-0.399263,0.061799,-0.528372
19462,9.852188,-2.199404,1.725716,-0.394380,0.071585,-0.500120
19463,9.848652,-2.067538,1.676104,-0.383533,0.059015,-0.463195
19464,9.895310,-1.980775,1.607061,-0.403325,0.048695,-0.423073
19465,9.904367,-2.257245,1.531548,-0.413369,0.051843,-0.405346
19466,9.857670,-2.543707,1.441714,-0.336580,0.055580,-0.379139
19467,9.914422,-2.496701,1.352529,-0.255169,0.048742,-0.341257
19468,9.937420,-2.093377,1.470745,-0.192318,0.038461,-0.295356
19469,9.882457,-1.989527,1.451979,-0.199294,0.044139,-0.274859
19470,9.798512,-1.750454,1.498815,-0.197656,0.022124,-0.227441
19471,9.895318,-1.644180,1.566235,-0.246368,0.013583,-0.195316
19472,9.914990,-1.783354,1.734681,-0.300878,0.011620,-0.162642
19473,9.923718,-1.858449,1.675190,-0.316670,0.007621,-0.126869
19474,9.897133,-1.892924,1.555848,-0.301923,0.001913,-0.104345
19475,9.914178,-1.767093,1.528820,-0.327273,-0.006377,-0.076413
19476,9.879237,-1.981401,1.434595,-0.336705,-0.013179,-0.051791
19477,9.795449,-2.230375,1.394232,-0.266979,-0.017015,-0.037955
19478,9.808055,-2.249545,1.396438,-0.152900,-0.027096,-0.028574
19479,9.813215,-1.970440,1.393058,-0.065609,-0.034192,-0.018411
19480,9.852852,-1.749958,1.417952,-0.030805,-0.035194,-0.009838
19481,9.872868,-1.700852,1.428607,-0.014622,-0.040788,-0.001983
19482,9.896720,-1.617842,1.442324,-0.002995,-0.036705,-0.000196
19483,9.892706,-1.667271,1.404394,0.002965,-0.040256,0.010734
19484,9.874792,-1.688163,1.448168,0.025059,-0.043295,0.023690
19485,9.802162,-1.592745,1.418833,0.054669,-0.045826,0.034035
19486,9.769423,-1.492700,1.481694,0.067683,-0.050901,0.040723
19487,9.709029,-1.402860,1.492333,0.076311,-0.050877,0.045327
19488,9.743580,-1.357387,1.483317,0.077457,-0.059013,0.044942
19489,9.766995,-1.399493,1.496673,0.078497,-0.059004,0.041877
19490,9.800560,-1.490132,1.457060,0.095544,-0.055968,0.033673
19491,9.816420,-1.477179,1.465113,0.114700,-0.051374,0.032776
19492,9.821518,-1.428977,1.495928,0.140135,-0.047324,0.023851
19493,9.833954,-1.326423,1.501492,0.147441,-0.040178,0.020330
19494,9.815990,-1.238054,1.515013,0.141562,-0.037086,0.019649
19495,9.769265,-1.134191,1.598235,0.115207,-0.035513,0.020782
19496,9.783516,-1.150072,1.545652,0.079767,-0.030402,0.020167
19497,9.773065,-1.115965,1.565494,0.049713,-0.026403,0.009623
19498,9.762612,-1.081821,1.585452,0.017049,-0.020286,0.009845
19499,9.735680,-1.077437,1.562902,-0.032235,-0.014811,-0.005586
19500,9.768113,-1.180958,1.495367,-0.064311,-0.012830,-0.013150
19501,9.713502,-1.293015,1.453500,-0.087595,-0.011353,-0.021118
19502,9.715678,-1.410140,1.393383,-0.091579,-0.007787,-0.022891
19503,9.730022,-1.424333,1.340968,-0.091352,-0.004743,-0.026587
19504,9.718377,-1.525360,1.331607,-0.092517,-0.002208,-0.030687
19505,9.687634,-1.552922,1.306886,-0.076255,-0.000161,-0.030592
19506,9.680518,-1.497332,1.299270,-0.062999,-0.002174,-0.027624
19507,9.673370,-1.441839,1.291621,-0.067682,-0.003691,-0.027326
19508,9.701070,-1.444780,1.310719,-0.078804,-0.007767,-0.030585
19509,9.719161,-1.545786,1.262014,-0.091981,-0.002158,-0.032274
19510,9.684491,-1.607499,1.234359,-0.093809,0.000922,-0.029866
19511,9.682645,-1.610282,1.292609,-0.080444,0.000429,-0.028734
19512,9.663538,-1.657356,1.277091,-0.066498,0.003495,-0.027812
19513,9.663924,-1.655711,1.276303,-0.048779,-0.000047,-0.021464
19514,9.653505,-1.619565,1.297906,-0.024582,-0.001076,-0.026800
19515,9.711428,-1.607994,1.310429,-0.005624,-0.003595,-0.015055
19516,9.723368,-1.626142,1.318861,0.011729,-0.007660,-0.012157
19517,9.728353,-1.575854,1.352654,0.031633,-0.004086,-0.009277
19518,9.737170,-1.491379,1.389769,0.043670,-0.001530,-0.007227
19519,9.726433,-1.455758,1.412683,0.044251,0.002036,-0.007444
19520,9.727304,-1.439757,1.444661,0.034953,0.002549,-0.005534
19521,9.731224,-1.404620,1.448312,0.029933,0.006115,-0.004237
19522,9.700918,-1.418187,1.456882,0.027195,0.003049,-0.008199
19523,9.704046,-1.397757,1.429349,0.024953,0.007637,-0.006086
19524,9.745203,-1.416504,1.400605,0.021363,0.009667,-0.007527
19525,9.741999,-1.435078,1.430480,0.024978,0.013255,-0.001636
19526,9.707664,-1.361143,1.436347,0.020512,0.014768,-0.005009
19527,9.709036,-1.370949,1.347349,0.007108,0.017308,-0.003014
19528,9.712685,-1.458495,1.352763,0.006189,0.018840,-0.001803
19529,9.670436,-1.453603,1.353381,0.014716,0.017345,0.004630
19530,9.693505,-1.370594,1.372380,0.017539,0.016322,0.002301
19531,9.693241,-1.370598,1.374238,0.012046,0.017843,0.001975
19532,9.700738,-1.424206,1.382386,0.002898,0.017822,-0.001098
19533,9.729316,-1.439522,1.314048,-0.003329,0.016307,0.003776
19534,9.726671,-1.444172,1.375184,0.001399,0.015790,0.000332
19535,9.733542,-1.390425,1.350978,0.001554,0.015263,-0.004650
19536,9.767633,-1.341055,1.347630,-0.023963,0.021326,-0.010547
19537,9.720851,-1.506599,1.315108,-0.031250,0.023863,-0.011599
19538,9.681852,-1.603810,1.288142,-0.022508,0.025412,-0.008837
19539,9.694049,-1.607635,1.330452,0.002869,0.021872,-0.010065
19540,9.704804,-1.519015,1.309873,0.017572,0.023943,-0.005349
19541,9.651671,-1.479089,1.332949,0.017398,0.018852,-0.004817
19542,9.656018,-1.551773,1.369688,0.022107,0.016343,0.003857
19543,9.682903,-1.556548,1.392312,0.034888,0.012291,0.005243
19544,9.667162,-1.449246,1.381163,0.041192,0.007721,0.006202
