// Start Time: Unknown
// Update Rate: 100.0Hz
// Filter Profile: human (46.1)
// Firmware Version: 4.3.5
PacketCounter,Acc_X,Acc_Y,Acc_Z,Gyr_X,Gyr_Y,Gyr_Z
05900,9.025123,-3.734808,1.944502,0.038028,-0.001114,-0.009231
05901,9.041940,-3.726145,1.916203,0.051331,-0.006730,-0.010979
05902,9.044084,-3.755772,1.931237,0.068059,-0.012126,-0.008859
05903,8.925955,-3.854480,1.843627,0.096591,-0.028570,-0.004632
05904,8.890214,-4.066278,1.876120,0.164393,-0.054016,0.000079
05905,8.948722,-4.171150,1.925750,0.255385,-0.080699,0.006591
05906,9.035558,-4.254155,1.977314,0.369667,-0.112399,0.013319
05907,9.238460,-4.287469,2.125199,0.501615,-0.147958,0.024511
05908,9.342868,-4.445938,2.254786,0.681015,-0.188225,0.040042
05909,9.129840,-4.634223,2.312328,0.898783,-0.227658,0.059395
05910,8.831101,-4.551353,2.346006,1.133536,-0.276736,0.062450
05911,8.800884,-4.148769,2.445302,1.342060,-0.312004,0.047025
05912,8.999886,-3.516489,2.952803,1.489870,-0.300631,0.028007
05913,9.220250,-2.431416,3.561445,1.606269,-0.234705,-0.022465
05914,9.725092,-1.607363,4.098402,1.538667,-0.111123,-0.054706
05915,10.017302,-2.137152,3.344444,1.573541,0.130314,-0.122933
05916,9.757853,-1.951493,3.222416,1.533761,0.339710,-0.141372
05917,9.297492,-1.792760,3.533730,1.285233,0.509594,-0.133388
05918,9.261632,-1.495747,3.673018,0.843185,0.615116,-0.171716
05919,9.200813,-1.571325,3.829265,0.239178,0.674199,-0.136441
05920,9.165321,-1.919955,3.778996,-0.387693,0.694955,-0.107423
05921,8.590802,-2.852657,2.989053,-0.941654,0.623998,-0.028720
05922,7.297912,-5.015550,1.188593,-1.186278,0.392111,0.075121
05923,7.107876,-9.310953,1.760608,-0.495178,0.110787,0.173093
05924,8.217186,-13.387239,5.243975,1.192802,-0.068362,0.234265
05925,9.281174,-14.551353,5.857740,3.329325,-0.292801,0.377055
05926,9.990382,-11.377523,4.628205,5.253379,-0.517646,0.606798
05927,10.332414,-6.467476,3.643043,6.341854,-0.605201,0.826122
05928,10.469196,-2.278469,3.427925,6.497233,-0.586469,0.933576
05929,10.950997,1.230038,4.478956,5.891458,-0.473075,0.950666
05930,11.719037,3.841774,6.088502,4.689665,-0.113552,0.890343
05931,11.529213,5.701878,6.263359,3.002380,0.320983,0.794875
05932,11.204135,6.505074,6.241496,1.084881,0.760835,0.673450
05933,10.891795,6.135762,5.787901,-0.857202,1.237824,0.469860
05934,10.006474,4.093463,4.980771,-2.549713,1.646170,0.272562
05935,9.090978,1.215255,4.472166,-3.773574,1.898554,0.178249
05936,8.906770,-1.811554,4.702133,-4.419163,2.083650,0.168725
05937,8.832524,-5.251330,4.113368,-4.442598,2.211887,0.197430
05938,7.433202,-7.749161,1.873086,-3.939057,2.095413,0.263116
05939,5.389546,-9.732249,0.738199,-2.924319,1.763564,0.354644
05940,4.331833,-11.922534,1.222109,-1.444217,1.313672,0.413344
05941,5.383319,-14.082088,3.820696,0.552841,0.862670,0.435323
05942,8.099729,-13.599424,6.587837,2.638959,0.529426,0.474492
05943,10.284312,-9.982446,6.661716,4.212261,0.356185,0.554500
05944,10.338019,-5.809186,6.023111,5.003458,0.308420,0.675731
05945,9.690728,-2.672248,5.224245,5.070444,0.304255,0.730987
05946,9.331007,-0.761875,4.747964,4.713291,0.367500,0.682595
05947,9.461386,-0.409968,4.990889,4.177447,0.597227,0.557445
05948,9.568115,-0.635236,4.982417,3.636505,0.913179,0.368909
05949,10.340365,-0.733275,5.705240,3.212293,1.388631,0.134610
05950,9.989880,1.116709,6.159743,2.622196,1.960524,-0.232390
05951,8.421208,4.125589,7.030038,1.575411,2.380711,-0.638223
05952,7.818972,6.840314,8.695453,-0.069558,2.713272,-0.989697
05953,8.737837,7.298708,8.980739,-2.255786,3.030137,-1.204222
05954,9.993361,5.309376,7.870447,-4.572184,3.333758,-1.228188
05955,10.357567,2.000013,5.936147,-6.497789,3.631952,-1.122814
05956,9.450173,-1.678629,3.112733,-7.754103,3.814781,-0.902900
05957,6.277021,-6.320155,-2.339587,-8.411558,3.599764,-0.414252
05958,2.539408,-11.259944,-3.208241,-7.879096,3.047104,0.069560
05959,0.613864,-16.869569,-0.346285,-5.975493,2.261855,0.252322
05960,1.928387,-21.566340,3.501411,-2.571121,1.372965,0.375409
05961,5.562522,-21.044516,6.400664,1.348207,0.586002,0.646988
05962,8.626921,-15.035528,7.708476,4.408969,0.135794,0.942609
05963,8.989033,-8.855222,7.697473,6.016795,0.049754,1.188454
05964,8.045456,-5.530149,6.971601,6.624670,0.124296,1.307050
05965,6.824193,-3.528986,5.839459,6.721825,0.363682,1.159797
05966,5.480493,-1.257346,4.187666,6.463584,0.685020,0.758174
05967,4.795966,3.171573,3.819343,5.652758,1.038955,0.238761
05968,4.608976,9.196447,6.089490,3.572464,1.294523,-0.277259
05969,5.460255,12.390648,9.628763,0.249307,1.573276,-0.538899
05970,6.622575,9.969097,11.341524,-3.211486,1.995118,-0.624227
05971,7.487483,3.781582,10.097334,-5.753256,2.325681,-0.565429
05972,7.391031,-2.113630,7.911004,-6.972502,2.551404,-0.357886
05973,5.424437,-7.412065,3.839357,-7.196537,2.514337,-0.044442
05974,2.082558,-11.543179,2.563427,-6.316839,2.111816,0.357815
05975,0.571962,-14.832262,5.051089,-4.421476,1.565022,0.574727
05976,2.149581,-18.519067,7.359422,-1.478762,1.007032,0.790424
05977,4.560890,-19.241313,8.893193,2.005511,0.478820,1.082942
05978,5.520429,-16.058425,9.078784,5.049529,0.135507,1.439410
05979,4.844733,-10.743512,9.117206,7.099228,0.041804,1.675901
05980,4.437246,-5.583677,9.285068,7.959588,0.072711,1.769695
05981,4.288359,-0.773328,10.529295,7.759682,0.240854,1.730068
05982,4.249252,2.924416,11.068683,6.705795,0.552235,1.480992
05983,3.937368,4.089995,8.935804,5.127725,0.993098,1.135175
05984,4.346238,5.410366,8.088386,3.452003,1.318909,0.608329
05985,5.290424,7.745173,9.796508,1.555605,1.678065,-0.022447
05986,5.442014,9.075788,11.681254,-0.677967,2.013596,-0.482282
05987,5.275351,7.797134,12.297479,-3.045436,2.305867,-0.692586
05988,5.702061,3.705950,11.524730,-5.023585,2.547331,-0.651184
05989,5.545085,-1.233719,9.591170,-6.172081,2.721711,-0.470883
05990,3.932945,-5.555576,6.262242,-6.491912,2.665346,-0.163580
05991,1.349622,-9.553856,4.111200,-5.995962,2.330177,0.251249
05992,-0.661357,-13.191589,3.950096,-4.653831,1.835441,0.596500
05993,-0.830344,-16.735458,5.984340,-2.375055,1.285739,0.857420
05994,1.600947,-18.446382,8.397922,0.643383,0.782081,1.065410
05995,3.876799,-15.883993,9.096590,3.541370,0.425101,1.311497
05996,4.195603,-10.919108,8.675218,5.495735,0.256709,1.564612
05997,3.886811,-6.181978,8.664951,6.455156,0.259616,1.687499
05998,3.672318,-1.876408,9.233760,6.606373,0.462437,1.568278
05999,2.807575,1.008500,8.555948,6.050070,0.830288,1.229465
06000,2.731381,3.218927,7.325287,5.087013,1.297582,0.704737
06001,3.190106,7.433706,8.353212,3.587589,1.790736,0.032937
06002,3.938209,13.250836,10.598147,1.017928,2.282101,-0.781858
06003,4.370205,15.929469,12.000273,-2.596620,2.799926,-1.309833
06004,4.816546,13.732366,10.717918,-6.331654,3.346281,-1.542267
06005,4.737760,7.174652,7.147504,-9.337372,3.756785,-1.442381
06006,3.598967,-0.101990,2.761768,-11.001364,3.949984,-1.079961
06007,-0.800096,-6.916121,-3.338317,-11.527288,3.670057,-0.470805
06008,-6.774474,-14.347513,-5.142578,-10.672603,2.939159,0.178681
06009,-7.984099,-21.975444,-0.316635,-7.909819,2.067289,0.363556
06010,-3.985580,-26.380778,4.685963,-3.462610,1.245661,0.345971
06011,-0.174668,-22.233535,7.651808,1.074464,0.482405,0.538797
06012,0.626108,-14.919903,8.056918,4.140099,0.009407,0.894706
06013,0.427371,-10.038490,7.434091,5.871648,-0.186886,1.212240
06014,-0.119703,-6.468993,7.425873,6.746447,-0.184512,1.333514
06015,-1.138094,-2.013878,7.917096,6.763568,-0.035562,1.126419
06016,-2.272774,0.567905,6.742182,5.646519,0.204164,0.858911
06017,-0.670164,1.000886,4.145251,4.172724,0.467661,0.500969
06018,0.885415,6.169353,6.700259,2.317450,0.839020,-0.165173
06019,1.814996,11.792770,9.517820,-0.752414,1.272200,-0.771387
06020,1.768894,11.974332,9.809156,-4.469726,1.727537,-0.931419
06021,1.289363,6.500570,7.442082,-7.779703,2.131062,-0.844526
06022,0.145020,-1.417858,3.874425,-9.794245,2.380647,-0.553638
06023,-2.453084,-9.106336,0.247221,-10.286094,2.314691,-0.194838
06024,-5.419184,-15.969172,-1.794732,-9.283612,1.871358,0.117264
06025,-6.423009,-21.181114,-0.579290,-6.810667,1.204858,0.277451
06026,-5.526038,-24.039075,1.157968,-3.352618,0.416493,0.502850
06027,-3.610235,-23.261001,3.439869,0.377356,-0.323841,0.798878
06028,-2.091133,-19.057614,4.603783,3.544906,-0.820852,1.144588
06029,-1.561104,-14.608554,4.520252,5.655871,-1.075796,1.505247
06030,-1.204331,-10.822288,4.451238,6.904723,-1.162832,1.786157
06031,-0.375325,-6.329147,5.987335,7.403875,-1.031414,1.832418
06032,-0.349245,-1.251753,7.131403,6.933279,-0.640176,1.643227
06033,-1.718089,1.384756,4.786623,5.418343,-0.194549,1.371877
06034,-1.817507,3.411096,3.848447,3.435392,0.147614,1.019558
06035,-1.171642,7.401386,6.591144,0.790123,0.369474,0.606939
06036,0.034898,9.395847,8.756436,-2.366543,0.738459,0.287836
06037,0.430087,7.940294,8.671583,-5.454488,1.158124,0.114856
06038,-0.450447,3.590267,5.814269,-7.875388,1.486879,0.087111
06039,-2.187805,-1.306146,2.019870,-9.437134,1.569975,0.173160
06040,-4.803626,-6.084383,-2.010992,-10.257716,1.271729,0.413916
06041,-7.354529,-11.813969,-4.069252,-10.038137,0.760404,0.648095
06042,-8.541079,-19.152686,-3.832284,-8.262705,0.149811,0.672630
06043,-6.738925,-25.381446,1.995549,-4.447241,-0.445988,0.574888
06044,-2.967039,-25.153178,4.503789,0.101523,-1.128734,0.776066
06045,-2.541010,-20.701596,3.324462,3.985541,-1.502244,1.221883
06046,-4.125619,-15.607148,2.003668,6.650641,-1.814120,1.608898
06047,-3.674822,-11.867833,1.177195,8.280526,-2.043358,1.892130
06048,-2.473893,-8.478011,1.602257,9.027023,-2.147861,2.125203
06049,-1.194008,-5.433209,2.603599,8.929374,-2.099735,2.350464
06050,-0.704753,-2.916997,4.558510,8.269586,-1.902303,2.539904
06051,-0.547541,-0.504771,6.299722,7.141269,-1.539583,2.572999
06052,-0.340265,1.698310,6.502137,5.652354,-1.034031,2.429169
06053,-0.393281,4.827409,6.596220,3.804068,-0.537505,2.177294
06054,-0.214298,7.919112,7.589185,1.575771,-0.068276,1.842055
06055,-0.570455,9.286988,8.637942,-0.847103,0.421562,1.525714
06056,-1.827731,7.111596,7.513507,-3.184952,0.699243,1.421587
06057,-3.950833,2.023803,5.360086,-5.065928,0.722535,1.497775
06058,-6.038961,-4.264118,3.177151,-5.970959,0.377730,1.663061
06059,-7.603974,-8.936939,1.894941,-5.870146,-0.299194,1.800242
06060,-6.887865,-12.069421,2.056851,-5.005789,-1.126089,1.883463
06061,-4.188549,-14.915868,2.766423,-3.465344,-1.795231,2.038777
06062,-1.605228,-16.832787,2.721316,-1.359146,-2.342905,2.301691
06063,0.008402,-17.691055,1.194464,1.025457,-2.823716,2.651469
06064,0.870462,-17.705333,-0.566427,3.623013,-3.221829,2.984147
06065,1.645167,-14.442076,-1.057294,5.912368,-3.612101,3.371599
06066,2.838431,-9.522510,-0.676638,7.214697,-3.897560,3.873619
06067,4.769959,-5.552886,1.449248,7.463437,-3.900387,4.455635
06068,6.234053,-3.032524,4.788856,6.951312,-3.526714,5.057661
06069,7.441442,-2.768979,7.536309,6.216931,-2.850429,5.508788
06070,6.243315,-0.050602,7.251023,5.916086,-2.097593,5.582945
06071,3.489560,7.551239,7.706106,5.723989,-1.323855,5.284713
06072,1.273731,15.756458,11.688558,4.875455,-0.292442,4.695856
06073,-0.059154,20.244300,15.945335,2.652026,0.732211,3.935754
06074,0.479628,20.259847,17.047944,0.185444,1.736899,3.129857
06075,-0.044600,17.897231,16.087105,-1.984953,2.626146,2.404376
06076,-0.565872,14.785797,14.065052,-3.769150,3.314094,1.814095
06077,-1.048169,11.323282,11.219247,-5.210367,3.858321,1.362019
06078,-2.767146,7.246136,8.230431,-6.138942,4.176211,1.077614
06079,-4.759323,3.004920,5.725726,-6.503971,4.093329,0.976304
06080,-6.410488,-1.000116,2.339883,-6.559133,3.605552,1.048631
06081,-8.285377,-4.924166,-0.645045,-6.198457,2.720575,1.325639
06082,-10.088837,-8.009662,-1.079690,-5.467085,1.502752,1.667174
06083,-10.387348,-12.318773,1.069013,-3.912804,0.142600,2.027986
06084,-7.534650,-14.268816,4.768351,-1.157400,-1.210725,2.312522
06085,-2.339969,-12.262688,7.427567,1.795573,-2.230519,2.614252
06086,-0.098514,-6.901973,9.245033,4.228518,-2.732614,2.862948
06087,-0.860996,-1.631088,10.590289,5.822167,-2.861819,3.103531
06088,-2.313711,2.140726,12.356096,6.661726,-2.654355,3.243652
06089,-2.940957,4.188463,13.292474,6.719381,-2.223284,3.311369
06090,-3.625055,1.606341,9.926519,6.583685,-1.569418,3.378340
06091,-1.281141,-1.418328,5.594414,6.988341,-1.088881,3.347477
06092,1.629036,5.356373,8.152292,7.829062,-0.461350,2.760266
06093,1.054990,19.324706,13.618469,7.134640,0.171751,1.863833
06094,0.485294,28.913644,16.679250,4.184869,1.019364,1.097201
06095,-0.101694,28.308372,16.980342,0.137424,1.942573,0.467397
06096,-0.698475,20.920058,14.604140,-3.381610,2.667260,0.052148
06097,-1.551593,12.874548,11.857141,-5.786898,3.175366,-0.154986
06098,-2.180635,6.773773,8.608863,-7.393620,3.419254,-0.049451
06099,-4.099818,1.907722,4.192543,-8.598456,3.382819,0.453139
06100,-6.795029,-3.090407,-0.011721,-9.187840,2.967116,1.132113
06101,-8.639056,-8.579630,-2.286330,-8.672013,2.421719,1.622848
06102,-8.559403,-13.269414,-0.412531,-7.015665,1.744422,1.841579
06103,-7.163604,-13.734671,2.140498,-4.305594,0.820612,2.069656
06104,-4.150591,-10.969263,3.540485,-1.752511,-0.061276,2.482698
06105,-2.757822,-7.136158,4.406580,0.145246,-0.587198,2.850950
06106,-3.296221,-3.715029,5.126263,1.342726,-0.937285,3.117558
06107,-3.931540,-1.962275,6.204828,2.132595,-1.122909,3.338917
06108,-4.186610,-0.516945,8.198900,2.900675,-1.146609,3.427193
06109,-3.930106,1.701193,10.255284,3.211643,-1.123936,3.447396
06110,-3.015874,2.605022,9.782445,3.127609,-0.796490,3.386515
06111,-3.009231,3.112628,8.032948,3.217008,-0.448789,3.273402
06112,-1.326224,4.526033,7.562076,3.395138,-0.134736,2.987953
06113,-0.778084,9.915532,9.515148,3.530244,0.271596,2.398097
06114,-1.378979,17.241765,12.084793,2.768588,0.668862,1.759255
06115,-2.008728,21.696590,13.772676,0.776353,1.170610,1.204118
06116,-1.971258,20.761716,13.533327,-1.922526,1.680833,0.794865
06117,-1.928096,16.871375,11.958739,-4.479936,2.053823,0.543041
06118,-2.381384,12.023411,8.653448,-6.749897,2.141052,0.571794
06119,-3.933702,7.689950,5.522104,-8.706708,1.883035,0.886100
06120,-5.762433,4.225981,-0.109973,-10.452419,1.249549,1.203051
06121,-5.426463,1.931618,-1.466192,-10.392749,0.656555,1.454115
06122,-6.218162,-1.828838,-2.781575,-10.745376,-0.212226,1.759283
06123,-4.215622,-10.148109,-1.736921,-9.461048,-0.756017,1.789546
06124,-3.690824,-18.860853,1.532927,-6.309643,-1.304691,1.665714
06125,-2.198640,-21.139981,4.825012,-1.932829,-2.018606,1.552490
06126,-0.877900,-16.016041,7.124758,2.086546,-2.485419,1.572333
06127,-0.557313,-8.524648,9.572173,4.799568,-2.579686,1.715155
06128,-0.339657,-2.713436,11.536113,6.316997,-2.441524,1.807895
06129,-0.591992,1.340159,10.794674,7.016141,-2.174588,1.775444
06130,-1.013954,3.863384,9.762638,7.573832,-1.784372,1.831441
06131,-1.777343,2.155536,6.391564,7.217458,-1.463196,2.018137
06132,-1.249714,2.885386,2.165825,7.717607,-1.037886,1.748266
06133,-0.667680,12.095074,6.008930,8.032826,-0.643265,1.041749
06134,-0.013416,22.477957,11.322635,6.721278,-0.169503,0.422401
06135,0.604927,25.616996,14.763743,3.905575,0.489829,-0.071699
06136,0.534962,22.206384,15.838590,0.974244,1.131565,-0.471265
06137,0.847936,15.909747,15.440473,-1.338697,1.641045,-0.728477
06138,1.410959,9.191533,13.911957,-2.789184,2.134168,-0.817647
06139,0.975805,4.512995,11.628464,-3.539092,2.500585,-0.770853
06140,-0.242271,1.162810,8.535080,-3.959344,2.664110,-0.547778
06141,-2.346261,-1.839062,3.199723,-4.168892,2.467015,-0.139480
06142,-4.919325,-3.363239,-0.293437,-3.894068,1.944372,0.233875
06143,-5.753479,-4.699760,-0.770136,-3.350922,1.281808,0.547348
06144,-5.057778,-5.494765,1.267790,-2.376656,0.628454,0.810817
06145,-3.822482,-5.427557,3.651869,-1.241357,-0.020185,1.091477
06146,-2.960472,-4.859696,4.939737,-0.047896,-0.556227,1.374308
06147,-3.213393,-2.858294,5.999149,1.132167,-0.979479,1.552466
06148,-3.592115,0.617976,7.433004,2.125459,-1.297214,1.592110
06149,-2.955319,4.696156,8.524414,2.562924,-1.497903,1.521515
06150,-2.164843,6.935249,8.860690,2.502072,-1.488819,1.433657
06151,-2.052847,7.619765,7.973865,2.304371,-1.492684,1.319513
06152,-0.967888,8.727309,7.173841,2.271360,-1.461477,1.022625
06153,0.204704,12.023585,9.497293,2.414567,-1.129506,0.447752
06154,0.129859,16.453019,12.932259,2.243432,-0.732767,-0.237845
06155,-0.048316,18.831351,14.938366,1.487436,-0.294643,-0.860426
06156,0.343119,17.206865,15.602776,0.518340,0.204656,-1.407199
06157,1.264816,12.934082,15.263685,-0.314079,0.684262,-1.812783
06158,1.718748,8.446876,13.678171,-0.890548,1.055955,-2.000015
06159,0.794205,5.062899,11.030314,-1.295356,1.239276,-1.989798
06160,-0.781820,2.774186,7.630285,-1.637205,1.125873,-1.789883
06161,-2.111044,1.059821,4.877643,-1.866075,0.800225,-1.561061
06162,-2.622495,-0.088964,3.609877,-1.848978,0.367299,-1.375651
06163,-2.181495,-1.423562,3.571712,-1.517113,-0.067641,-1.170514
06164,-1.517970,-1.986603,4.256069,-0.787952,-0.542329,-0.983436
06165,-0.718223,-0.966874,5.476084,0.035206,-0.948860,-0.850425
06166,-0.360799,0.872362,6.974692,0.692993,-1.230615,-0.788841
06167,-0.468774,3.114136,8.555820,1.165656,-1.385684,-0.807945
06168,-0.614399,5.745247,10.153024,1.369911,-1.449725,-0.927178
06169,-0.387337,6.619794,10.959362,1.321827,-1.328699,-1.112730
06170,-0.745231,5.886986,10.032705,1.359277,-1.238516,-1.326273
06171,-0.129557,5.926090,9.972321,1.805043,-1.055623,-1.683713
06172,-0.389195,9.613689,12.574612,2.460487,-0.671076,-2.336930
06173,-1.445314,13.976152,15.387545,2.602827,-0.203999,-3.057562
06174,-1.689115,15.036262,16.285746,2.138930,0.374047,-3.671208
06175,-1.641762,13.630571,15.148907,1.571833,0.946578,-4.253841
06176,-2.025712,11.706737,13.331128,1.105926,1.480384,-4.836094
06177,-2.785414,9.722237,10.948641,0.682490,1.891106,-5.323109
06178,-3.487093,7.313516,8.164299,0.190603,2.118801,-5.582718
06179,-3.936832,3.032259,5.738004,-0.291578,2.211948,-5.564935
06180,-5.518599,-2.311309,1.171389,-0.546015,1.967714,-5.242646
06181,-8.149029,-5.609292,-1.498915,-0.193248,1.278936,-4.864942
06182,-9.429123,-6.704764,-1.787493,0.399012,0.353894,-4.486620
06183,-9.072750,-6.136608,-0.562308,1.018251,-0.648217,-4.008434
06184,-6.865743,-4.207953,2.186802,1.355758,-1.527256,-3.492143
06185,-4.306568,-3.581205,5.121015,1.425031,-2.116115,-2.949587
06186,-2.554758,-4.438718,7.616881,1.620357,-2.437452,-2.442371
06187,-1.821395,-5.293140,9.630473,2.128385,-2.593983,-1.964111
06188,-1.825250,-4.428325,11.495063,2.884905,-2.576310,-1.584034
06189,-2.079544,-3.121323,11.362648,3.596486,-2.424254,-1.297469
06190,-3.236767,-1.893513,9.076269,4.222827,-2.291975,-1.043716
06191,-3.602027,1.143377,6.219135,4.555202,-2.259701,-0.872189
06192,-2.475387,7.317750,7.451504,4.502701,-2.009588,-1.147787
06193,-1.393738,15.673145,11.642448,3.810500,-1.497590,-1.779541
06194,-0.956740,20.673347,15.074662,2.084077,-0.755366,-2.388816
06195,-1.092087,19.162752,15.736830,-0.109018,0.055328,-2.934228
06196,-1.385276,13.711260,14.899606,-1.725733,0.770990,-3.481170
06197,-1.455036,8.571099,13.552785,-2.567138,1.350466,-3.988548
06198,-1.619212,5.337769,11.775392,-3.030827,1.792623,-4.371439
06199,-2.673365,3.140573,8.921138,-3.611394,1.987319,-4.406746
06200,-4.708814,1.033235,5.360768,-4.281145,1.850589,-4.126027
06201,-7.163315,-2.244306,1.650800,-4.812126,1.425533,-3.613906
06202,-9.376901,-6.389077,-0.481617,-4.645174,0.727127,-3.166043
06203,-9.830367,-9.673210,0.815946,-3.418008,-0.092545,-2.795020
06204,-8.184388,-11.777088,4.523340,-1.445186,-0.947837,-2.407619
06205,-5.585916,-13.528882,7.108482,1.118695,-1.698103,-1.975092
06206,-5.147038,-12.762042,8.154183,4.041595,-2.364271,-1.576189
06207,-5.514493,-8.846229,8.897084,6.558459,-2.802131,-1.229267
06208,-5.529182,-4.131657,9.548761,8.240645,-2.922509,-0.993107
06209,-5.513647,-1.152184,9.349999,8.944346,-2.862113,-0.791342
06210,-5.994767,0.419633,6.006911,8.938908,-2.712297,-0.665379
06211,-4.325439,5.069281,4.812118,8.640629,-2.423305,-0.956812
06212,-2.937133,15.184627,8.672366,7.537102,-1.991220,-1.757356
06213,-0.676368,24.903762,13.901457,4.856672,-1.285375,-2.718283
06214,1.388726,27.095819,15.834915,0.832435,-0.305723,-3.519181
06215,2.409391,20.957705,14.327033,-3.076598,0.606769,-4.038345
06216,2.281670,12.051304,12.017977,-5.785812,1.335955,-4.369034
06217,2.368744,4.622935,9.512340,-7.186139,1.935854,-4.554481
06218,1.865619,-0.563809,6.264246,-7.655787,2.303666,-4.534824
06219,-0.700603,-4.232902,1.835451,-7.723890,2.301908,-4.171119
06220,-4.844292,-7.641270,-2.865034,-7.359147,1.846226,-3.556794
06221,-8.504495,-12.133712,-4.870960,-6.083257,1.061505,-3.016855
06222,-8.960106,-15.371647,-0.713848,-3.321315,0.195287,-2.870219
06223,-4.566256,-16.271869,4.057741,0.304271,-0.739339,-2.649714
06224,-0.521358,-14.596640,6.357988,3.774687,-1.436474,-2.147218
06225,-0.069856,-11.242629,7.013436,6.414290,-1.946165,-1.476103
06226,-0.963292,-7.368304,7.896181,8.177928,-2.170096,-0.882132
06227,-2.196122,-2.945587,8.504752,9.071470,-2.179090,-0.518586
06228,-4.422729,-0.412210,7.592618,9.142168,-2.051865,-0.335218
06229,-6.634076,-0.249706,3.935899,8.779757,-1.960829,-0.310507
06230,-4.655475,2.458689,0.911610,8.268824,-1.815504,-0.519268
06231,-2.139271,11.748973,5.111543,7.008988,-1.548068,-1.205448
06232,0.098126,21.377873,11.087721,4.169111,-0.922200,-2.115367
06233,2.436194,24.105440,12.896741,-0.051353,-0.144074,-2.746489
06234,3.776871,19.162773,11.616891,-4.174763,0.595383,-3.092874
06235,3.703561,11.357322,9.349741,-7.242972,1.185698,-3.299062
06236,3.190234,4.671644,7.027173,-9.031896,1.678828,-3.391802
06237,1.242676,-0.093779,4.008570,-9.851839,1.955950,-3.356950
06238,-2.129353,-3.347905,0.211974,-10.048822,1.843152,-3.042125
06239,-6.801756,-6.180449,-2.393422,-9.669274,1.423329,-2.646667
06240,-10.222183,-11.423785,-2.852016,-8.279611,0.805799,-2.310881
06241,-10.181717,-19.078976,0.335421,-5.005022,0.131455,-2.196900
06242,-5.822469,-22.222271,5.427079,-0.141214,-0.700301,-2.191373
06243,-1.281224,-18.306229,7.258343,4.336351,-1.333262,-1.889793
06244,-1.003944,-12.491761,6.681265,7.397167,-1.781760,-1.347867
06245,-1.968274,-7.845018,5.342528,9.280793,-2.126573,-0.795385
06246,-2.972362,-3.164381,5.679668,10.236460,-2.254930,-0.505886
06247,-4.969640,-0.681342,6.015870,10.369249,-2.072452,-0.458227
06248,-6.274373,-0.029553,4.238779,10.105098,-1.940980,-0.574743
06249,-3.709781,4.415992,3.597418,9.439787,-1.855532,-0.963042
06250,-0.815443,15.440715,7.833733,7.139081,-1.588435,-1.692276
06251,2.947788,24.352276,13.001337,2.504578,-1.102277,-2.331530
06252,5.435554,25.453506,14.342352,-3.416155,-0.082745,-2.727350
06253,6.636195,18.106989,10.593358,-8.393880,0.817295,-2.921002
06254,5.538660,9.075670,5.697123,-11.534181,1.480534,-2.936998
06255,3.702215,2.491867,2.454956,-13.092904,1.898203,-2.812780
06256,2.223833,-2.227908,0.226629,-13.690368,2.156813,-2.597371
06257,-0.705824,-6.588661,-3.269314,-13.549364,2.226175,-2.264486
06258,-6.149263,-12.423147,-5.405668,-12.337169,2.004852,-1.891339
06259,-12.339184,-21.786286,-4.388906,-9.116237,1.384739,-1.781512
06260,-13.063065,-29.793481,0.565606,-3.492766,0.292004,-2.021593
06261,-5.030229,-26.414125,5.578810,2.848415,-0.713036,-2.265179
06262,-0.539176,-16.414034,7.266022,7.119286,-1.264306,-2.213953
06263,-1.332329,-10.280108,6.569673,9.310959,-1.677432,-1.905522
06264,-2.107805,-6.554461,7.822855,10.386962,-1.963270,-1.587710
06265,-2.328791,-3.369004,9.552995,10.673100,-1.929725,-1.380793
06266,-4.701737,-2.462995,9.243294,10.241346,-1.761835,-1.366464
06267,-7.272751,-2.155040,4.886985,9.425445,-1.803334,-1.545542
06268,-5.036508,4.363897,4.454417,8.087092,-1.878822,-2.013062
06269,-0.282954,16.688413,11.958022,4.844301,-1.519939,-2.813643
06270,4.629923,23.799518,16.325781,-0.537178,-0.698537,-3.326983
06271,7.050450,20.095504,14.214893,-6.027968,0.303330,-3.403039
06272,7.547996,10.161795,10.231481,-9.948115,1.124398,-3.276412
06273,5.765926,0.180479,6.478494,-11.910395,1.759504,-3.074238
06274,1.880799,-6.635147,1.713787,-12.342225,1.976863,-2.899598
06275,-4.402340,-12.405611,-1.328184,-11.538592,1.819604,-2.563663
06276,-10.090591,-20.756224,1.464648,-8.893294,1.564021,-2.502581
06277,-9.517058,-31.269621,4.787283,-3.787659,1.011393,-2.714212
06278,-2.939550,-31.858830,8.107948,2.668588,0.179661,-2.850731
06279,0.864028,-22.455133,8.441686,7.395936,-0.390974,-2.584565
06280,-0.490846,-14.717548,6.379477,9.793255,-0.789084,-2.162761
06281,-1.080490,-9.994040,4.398528,10.738084,-1.190437,-1.762876
06282,-1.079321,-6.234195,3.912260,10.581386,-1.507303,-1.512620
06283,-0.379726,-2.470758,6.656993,9.676924,-1.509628,-1.379410
06284,0.005974,3.173956,8.016656,7.768611,-1.294173,-1.526503
06285,0.372308,8.371274,9.548100,4.584296,-0.860004,-1.606375
06286,1.748806,10.832588,10.993860,0.560490,-0.336920,-1.729936
06287,3.810749,10.410839,11.131801,-3.367952,0.229529,-1.817614
06288,2.787506,5.272106,8.310893,-6.779298,0.729812,-1.621654
06289,0.277182,-4.054588,4.161147,-8.810172,0.851095,-1.028456
06290,-3.270691,-16.371601,2.408278,-8.450037,0.865075,-0.592182
06291,-5.722536,-30.393014,3.715475,-4.885708,0.613182,-0.484072
06292,-5.593197,-39.954515,2.829821,1.741250,-0.219311,-0.321230
06293,-1.496196,-32.579143,3.185370,8.708648,-1.289659,0.177869
06294,2.608283,-18.499618,2.777308,12.554791,-1.920385,0.924797
06295,4.494372,-9.242956,2.455720,13.578032,-2.095042,1.737002
06296,4.896634,-2.428359,3.878139,12.896849,-1.985042,2.396387
06297,5.573760,2.345400,6.705972,10.957847,-1.592176,2.931015
06298,4.772597,5.626524,10.190649,8.343853,-0.754537,3.228728
06299,1.160670,6.259927,9.658660,5.674658,0.146536,3.116779
06300,-0.681003,6.098025,8.052239,3.256437,0.674792,2.797104
06301,0.059381,7.017820,9.500285,1.098947,1.027746,2.274026
06302,0.534714,9.211391,12.228845,-0.911440,1.345341,1.670318
06303,-0.526944,10.088482,12.878299,-3.004987,1.552589,1.221787
06304,-1.776135,7.382498,11.539262,-4.983722,1.639277,1.082127
06305,-3.188329,2.160167,9.043642,-6.322652,1.571051,1.122574
06306,-4.818491,-3.577885,7.742935,-6.582898,1.314669,1.282947
06307,-4.558628,-8.187536,9.667968,-5.515415,0.962096,1.366502
06308,-2.451202,-12.604340,11.062470,-3.379146,0.672235,1.452509
06309,-0.546776,-13.881288,11.373950,-0.492559,0.291108,1.627599
06310,1.056713,-11.118015,10.993078,2.106209,-0.105217,1.985986
06311,2.660554,-8.302720,10.786029,3.847407,-0.223666,2.450699
06312,4.380624,-5.359201,10.693437,4.843443,-0.180550,2.857621
06313,5.303751,-2.252261,9.803311,5.026065,-0.022696,3.265425
06314,5.868535,-0.231061,9.346668,4.463563,0.194861,3.657112
06315,6.760424,2.106555,11.230009,3.601143,0.496326,3.890167
06316,7.020798,5.080771,13.757538,2.530382,0.985643,3.906929
06317,5.964843,6.424487,14.774116,1.244827,1.555264,3.903603
06318,5.233311,6.579219,14.999462,0.178222,2.060882,3.871957
06319,4.117961,6.270691,14.643610,-0.673066,2.535319,3.745991
06320,2.853166,6.479941,13.468974,-1.291138,2.813004,3.542167
06321,1.474685,8.483421,12.916138,-1.999755,2.988727,3.276570
06322,0.146388,9.971659,12.637730,-3.000926,3.193511,2.956982
06323,-0.868212,10.380925,12.276292,-4.096913,3.377628,2.630970
06324,-1.605587,9.206524,11.007607,-5.121952,3.551105,2.338275
06325,-2.764672,7.117021,9.542263,-5.839704,3.627300,2.116426
06326,-4.433415,4.628271,7.821045,-6.119636,3.528016,1.984923
06327,-6.009783,2.557978,7.074514,-5.895328,3.255518,1.902658
06328,-7.078884,-0.690791,6.270196,-5.287703,2.852927,1.924592
06329,-7.522336,-4.645738,6.063660,-3.868295,2.334979,1.950910
06330,-6.940293,-7.779282,6.390300,-1.774131,1.769507,1.941184
06331,-5.927091,-9.731616,6.112829,0.792537,1.173641,1.962198
06332,-5.255667,-8.566815,6.127076,3.416568,0.492531,2.063218
06333,-4.240723,-5.950495,5.877756,5.466086,-0.168838,2.278321
06334,-2.424425,-2.636334,6.364694,6.783088,-0.681013,2.515537
06335,-0.840003,0.755986,7.169826,7.228118,-0.956759,2.681082
06336,-0.156500,4.277297,8.374223,6.961830,-0.973889,2.768540
06337,-0.322333,7.414281,9.038629,6.162408,-0.744289,2.732408
06338,-1.008975,9.597901,8.783519,4.964761,-0.389873,2.531764
06339,-0.806151,11.527473,9.278642,3.678630,0.055999,2.077180
06340,0.014921,13.432045,10.850696,2.248820,0.581218,1.463919
06341,0.921240,14.466811,12.371714,0.650949,1.146540,0.824137
06342,1.082420,13.830447,12.722554,-0.941343,1.731658,0.242290
06343,0.716134,11.476409,12.080364,-2.294538,2.257337,-0.261540
06344,0.307356,9.105913,10.997732,-3.374276,2.690316,-0.677145
06345,0.061134,6.798995,9.640574,-4.214308,3.048695,-0.972514
06346,-0.467179,3.792449,7.460831,-4.806867,3.326664,-1.059289
06347,-1.950710,0.973770,5.205524,-5.069183,3.407550,-0.956006
06348,-3.934400,-1.153889,2.749880,-5.148856,3.225340,-0.708773
06349,-6.101223,-3.463454,0.604465,-5.066091,2.814352,-0.307831
06350,-7.820537,-6.461455,-1.072433,-4.683660,2.184611,0.146098
06351,-8.152681,-9.744743,-1.125070,-3.669535,1.334459,0.628542
06352,-6.799311,-12.036813,0.251493,-2.091584,0.355451,1.086901
06353,-4.088502,-12.850873,2.541277,-0.190842,-0.557865,1.600116
06354,-1.837255,-12.068486,4.067937,1.640277,-1.261208,2.173505
06355,-1.190893,-9.392681,5.114004,3.210013,-1.716203,2.681426
06356,-1.559827,-4.673902,6.670528,4.324137,-1.858768,3.015750
06357,-2.102623,-0.524796,7.725401,4.881279,-1.669777,3.161850
06358,-2.924592,2.139270,6.276228,5.048516,-1.310292,3.150078
06359,-2.513827,6.047307,5.074501,5.024312,-0.878662,2.832279
06360,-1.303034,13.157740,7.002979,4.450206,-0.210937,2.011988
06361,0.347470,19.942448,10.008210,2.798156,0.599407,0.955934
06362,2.191149,23.239651,11.577859,0.119856,1.466106,-0.111230
06363,3.517734,21.853502,11.494429,-2.971455,2.256523,-0.968568
06364,4.058859,17.348858,10.592930,-5.767050,3.030261,-1.600516
06365,3.485714,11.779649,8.421221,-7.916619,3.753394,-2.082903
06366,2.201291,7.269072,4.306921,-9.432147,4.239218,-2.291498
06367,-2.083468,3.437792,-1.024802,-10.762048,4.320054,-1.951608
06368,-7.835845,-0.569827,-7.052174,-11.819953,3.907121,-1.265456
06369,-15.183865,-6.484598,-11.498242,-12.082103,2.906270,-0.400071
06370,-18.624166,-11.582789,-7.185700,-10.519992,1.478243,0.115108
06371,-10.147057,-17.268690,0.444284,-7.585175,-0.089257,0.456719
06372,-0.787570,-23.907412,5.327085,-3.693122,-1.175742,1.121395
06373,-0.515294,-26.105721,5.562731,0.965007,-2.122669,1.844162
06374,-3.175350,-19.339596,5.025786,5.045570,-2.994095,2.503013
06375,-3.475770,-9.418129,6.287583,7.310461,-3.461922,3.056664
06376,-4.814795,-2.481629,7.276864,7.820142,-3.378804,3.408298
06377,-6.731512,-0.299746,5.825475,7.484126,-3.057213,3.574877
06378,-6.107126,1.379469,4.074589,7.184721,-2.568635,3.602747
06379,-4.052110,7.858809,6.615923,6.569929,-2.042860,3.332125
06380,-1.289983,15.355289,12.404275,4.674080,-1.195364,2.796209
06381,-0.134877,19.507975,17.448401,1.854829,-0.130658,2.205694
06382,-0.877675,18.856691,19.423911,-1.133115,0.962429,1.598884
06383,-1.944640,14.086572,18.078090,-3.429403,1.943785,0.959153
06384,-3.462939,9.040915,15.233590,-4.762521,2.689345,0.421321
06385,-4.291138,6.102926,12.404586,-5.526524,3.222363,-0.000563
06386,-5.141561,4.501868,9.020512,-6.291467,3.586270,-0.187086
06387,-6.608107,2.617109,4.871268,-7.213024,3.675389,-0.036949
06388,-9.480571,-0.601804,-0.175614,-8.133193,3.337857,0.389312
06389,-12.013265,-4.240693,-3.026444,-8.246747,2.569645,0.880253
06390,-12.247084,-7.616561,-2.012336,-7.313091,1.560814,1.230371
06391,-9.285839,-12.104756,-0.799708,-5.413812,0.504295,1.669502
06392,-6.480441,-17.990047,0.182805,-2.509926,-0.386191,2.143257
06393,-5.266151,-19.525671,0.613800,1.066633,-1.480996,2.550956
06394,-3.974126,-14.140587,1.120212,4.074671,-2.463177,2.955818
06395,-2.601756,-6.860513,2.262029,5.576910,-3.105888,3.355003
06396,-1.265429,-1.150619,4.410130,5.847899,-3.335866,3.666049
06397,-0.854763,2.906845,6.480628,5.483490,-3.238743,3.844165
06398,-0.964252,5.736560,8.426026,4.850643,-2.890066,3.919445
06399,-1.311912,8.893373,9.236491,4.241082,-2.418321,3.807582
06400,-1.429191,10.534246,7.909315,3.428465,-1.854757,3.541231
06401,-1.326947,11.434421,7.663990,2.806617,-1.368187,3.093462
06402,-0.518636,13.276695,9.716135,2.196627,-0.864855,2.426877
06403,-0.143021,16.187222,13.941426,1.436213,-0.197188,1.529346
06404,-0.736243,18.513783,17.309620,0.192381,0.617461,0.602756
06405,-1.183563,17.403972,18.390596,-1.496361,1.503436,-0.167944
06406,-0.942877,12.560109,17.289511,-3.083476,2.338985,-0.706497
06407,-1.198182,7.199302,14.509501,-4.288121,2.960731,-0.948760
06408,-1.950566,2.229122,11.659531,-5.330529,3.277788,-0.725888
06409,-2.705409,-4.414738,8.477012,-6.275517,3.372051,0.057109
06410,-5.157447,-11.481975,4.064047,-6.636418,3.041498,1.058390
06411,-7.933207,-13.954815,2.070983,-6.047707,2.179212,1.866963
06412,-9.306582,-10.770504,1.754369,-5.037732,1.055452,2.453316
06413,-7.281859,-5.820466,3.700569,-4.008381,0.256402,2.833000
06414,-3.289702,-4.928602,5.683990,-3.293266,-0.136934,3.274510
06415,-1.747558,-7.906851,6.179077,-2.432695,-0.453885,3.793765
06416,-2.986096,-9.701510,6.043330,-1.082590,-0.862610,4.227446
06417,-4.307034,-7.694772,6.928022,0.349265,-1.249449,4.519420
06418,-3.791524,-2.759798,8.612269,1.495222,-1.444049,4.638704
06419,-2.911706,2.165607,9.431415,2.058341,-1.414037,4.697482
06420,-2.182798,4.867010,9.306351,2.294244,-1.169485,4.648643
06421,-2.037421,7.989120,8.434367,2.532575,-0.871572,4.443442
06422,-2.119069,10.266168,6.739062,2.549732,-0.583237,4.091046
06423,-2.008928,13.406605,6.841597,2.437726,-0.337245,3.474056
06424,-2.009254,18.066948,9.395576,1.795684,-0.023821,2.651240
06425,-1.565524,20.994240,11.658624,0.359659,0.335783,1.820118
06426,-1.406872,21.178182,12.265642,-1.401614,0.757079,1.038480
06427,-1.478288,18.749742,11.288455,-2.929327,1.061358,0.378566
06428,-1.274009,13.754948,9.023807,-3.805850,1.263961,-0.124931
06429,-0.980884,8.019252,7.214891,-3.859264,1.372091,-0.453635
06430,-0.377184,2.195965,6.123768,-3.238871,1.361655,-0.623650
06431,-0.390732,-3.478276,5.548506,-2.096135,1.207733,-0.604004
06432,-0.953205,-6.334933,5.646976,-0.521288,0.748241,-0.419588
06433,-0.447149,-4.567135,6.324800,0.877937,0.131125,-0.247422
06434,0.694403,0.282437,6.667367,1.691622,-0.359711,-0.135433
06435,2.003910,5.052795,7.133185,1.781711,-0.610427,-0.121734
06436,2.430587,6.993894,8.016291,1.298895,-0.679531,-0.099197
06437,1.908339,7.436182,8.658323,0.651496,-0.773795,-0.105538
06438,1.127225,7.402581,9.001826,0.005601,-0.842619,-0.222451
06439,0.553761,6.414268,8.215680,-0.426886,-0.931338,-0.461243
06440,0.864023,5.629103,7.793218,-0.445437,-0.954202,-0.819179
06441,0.570226,6.073588,8.298049,-0.161558,-0.918573,-1.340005
06442,-0.180715,7.731841,10.015021,0.160147,-0.754288,-1.961564
06443,-1.080125,8.945200,11.183275,0.215790,-0.502099,-2.572290
06444,-2.302292,8.596726,10.468112,-0.083018,-0.238468,-3.043753
06445,-3.904244,6.273837,8.583110,-0.618861,-0.024574,-3.336718
06446,-5.736804,2.535941,6.738593,-1.199135,0.036986,-3.395768
06447,-6.847020,-1.877300,5.817999,-1.647390,-0.035656,-3.200452
06448,-7.328499,-6.010168,5.400513,-1.728792,-0.211990,-2.873337
06449,-7.625829,-7.218818,5.537479,-1.353630,-0.486893,-2.600685
06450,-6.258844,-5.734557,6.276957,-0.813138,-0.768529,-2.364132
06451,-3.863963,-4.083108,7.216596,-0.429460,-0.882805,-2.065817
06452,-2.305556,-3.891230,7.657634,-0.223177,-0.921346,-1.717253
06453,-2.428969,-3.522432,7.375055,0.004649,-1.012552,-1.432099
06454,-3.210834,-1.450921,7.364412,0.245732,-1.142942,-1.321550
06455,-3.659913,0.631680,7.416605,0.351251,-1.220334,-1.353472
06456,-3.792399,1.551474,7.158529,0.463695,-1.270005,-1.446582
06457,-3.466205,2.090528,7.262286,0.688691,-1.300411,-1.582476
06458,-2.884811,3.130955,7.882778,0.925176,-1.271122,-1.834071
06459,-2.270731,5.071240,9.227770,1.023784,-1.142934,-2.190376
06460,-1.710112,6.889446,10.655518,0.778484,-0.936097,-2.563505
06461,-1.203782,7.403460,11.523220,0.211561,-0.670162,-2.916355
06462,-0.796409,6.123504,11.596298,-0.469104,-0.379684,-3.210880
06463,-0.593336,3.861832,10.748379,-1.099921,-0.110455,-3.438671
06464,-0.529901,1.864759,9.360873,-1.648025,0.059360,-3.510117
06465,-0.383789,-0.960162,7.715950,-2.114186,0.138445,-3.446345
06466,-0.766367,-2.634079,6.126547,-2.336762,0.022600,-3.359207
06467,-1.170884,-4.362604,5.148027,-2.385694,-0.184394,-3.269658
06468,-1.621630,-6.544888,4.696441,-2.067032,-0.482778,-3.176771
06469,-2.007314,-8.214809,4.871023,-1.356457,-0.923952,-3.087652
06470,-2.596293,-8.266909,5.722813,-0.451173,-1.442143,-3.019853
06471,-2.640601,-7.161393,7.110028,0.382637,-1.928763,-2.961033
06472,-2.663561,-5.719446,8.504960,1.102570,-2.275310,-2.912953
06473,-2.958740,-3.647752,9.654605,1.728472,-2.524331,-2.917923
06474,-3.394886,-1.566528,10.417526,2.197955,-2.628847,-2.987708
06475,-4.109232,-0.719109,9.997619,2.535462,-2.597831,-3.109792
06476,-4.722825,-0.199221,8.677011,2.792336,-2.586159,-3.258479
06477,-4.199958,1.889139,9.048689,2.789027,-2.557057,-3.523282
06478,-1.833969,4.823700,12.225551,2.046621,-2.375039,-3.873536
06479,1.218242,6.629219,15.104856,0.249479,-1.975882,-4.129732
06480,2.888297,6.819838,15.492756,-2.179224,-1.340636,-4.347979
06481,3.269778,2.409064,14.389577,-4.514591,-0.457656,-4.445673
06482,2.568652,-3.258516,10.308946,-6.306713,0.178120,-4.349592
06483,1.559496,-6.629346,5.829744,-7.564850,0.488544,-4.033690
06484,0.758226,-10.278565,2.723715,-8.215441,0.672914,-3.622620
06485,0.579783,-14.776067,0.824023,-8.032819,0.649923,-3.105504
06486,-0.399707,-18.839689,0.550242,-6.981391,0.349067,-2.650692
06487,-1.011293,-21.625160,1.455903,-5.076592,-0.329757,-2.177762
06488,0.269465,-21.368305,4.553172,-2.623086,-1.107347,-1.789627
06489,2.324446,-19.715504,6.364798,-0.249216,-1.734867,-1.381401
06490,2.425297,-17.200549,6.287112,1.721292,-2.208408,-0.982257
06491,1.134157,-13.572152,5.582873,3.115783,-2.632070,-0.656390
06492,0.810756,-8.763415,5.839711,3.959416,-2.911958,-0.473010
06493,0.619485,-4.529997,6.610947,4.311790,-2.924183,-0.442543
06494,-0.194564,-2.834790,6.956152,4.395731,-2.813751,-0.438642
06495,-0.667984,-2.397553,6.959325,4.389838,-2.676284,-0.443631
06496,-0.691630,-0.654969,7.182278,4.247053,-2.518619,-0.566046
06497,0.059293,3.517493,8.451699,3.668064,-2.306112,-0.870518
06498,1.060612,8.134924,10.483938,2.347089,-1.963248,-1.263178
06499,1.691740,10.324937,11.784191,0.391131,-1.556424,-1.689198
06500,2.357821,9.250682,11.613047,-1.748801,-1.099223,-2.155163
06501,3.136121,6.568915,10.233410,-3.733578,-0.688240,-2.558888
06502,3.196732,3.793828,7.699542,-5.616943,-0.440356,-2.784404
06503,3.393867,-0.296665,5.313852,-7.231483,-0.311612,-2.743285
06504,4.116307,-6.325517,3.210951,-7.996133,-0.198986,-2.645917
06505,4.352841,-12.623647,2.205939,-7.392323,-0.188029,-2.543476
06506,4.575416,-17.033588,3.068596,-5.354655,-0.438191,-2.531390
06507,6.076938,-19.261917,4.177360,-2.586761,-0.962847,-2.347535
06508,8.143820,-19.105320,4.793811,0.296013,-1.566230,-1.996192
06509,9.277543,-16.817632,4.785510,2.681983,-2.076810,-1.537569
06510,9.337238,-13.969448,4.205073,4.343571,-2.463434,-1.003354
06511,8.787384,-11.379157,4.131940,5.197783,-2.787450,-0.410974
06512,8.360755,-7.816759,4.953111,5.483619,-3.041038,0.053745
06513,7.759473,-3.748938,7.723552,5.143980,-3.035562,0.297995
06514,6.532515,-0.354568,9.943852,4.467748,-2.803438,0.282578
06515,5.136604,2.483007,10.871137,3.455819,-2.495920,0.206860
06516,3.485579,4.293074,10.286994,2.156074,-2.136704,0.064611
06517,1.600373,4.071548,8.160715,0.748772,-1.875233,-0.153590
06518,1.100691,2.852418,6.024599,-0.470095,-1.778485,-0.528244
06519,2.596686,2.343707,6.273039,-1.220674,-1.666934,-1.103867
06520,4.419716,4.419494,9.093880,-1.938849,-1.407247,-1.712237
06521,6.376915,4.190473,10.410836,-3.030470,-1.002984,-2.097448
06522,7.516880,0.048573,9.335747,-3.943377,-0.519430,-2.287537
06523,7.545228,-5.490678,6.978390,-4.419250,-0.273834,-2.238096
06524,7.288519,-9.493066,5.462697,-4.369437,-0.329944,-2.005786
06525,7.153344,-13.248330,4.060257,-3.790551,-0.492937,-1.672546
06526,7.826026,-15.096149,4.143812,-2.270418,-0.875777,-1.425364
06527,9.801148,-13.746694,4.962899,-0.363060,-1.308345,-1.161175
06528,12.095615,-10.193108,6.551514,1.368702,-1.711253,-0.760831
06529,14.665289,-7.086150,9.144516,2.478799,-1.742565,-0.240781
06530,14.809711,-7.935099,9.833046,2.963893,-1.558821,0.493145
06531,11.879675,-8.747734,8.455049,3.532785,-1.553898,1.140276
06532,8.707411,-4.152617,6.824798,3.966718,-1.789835,1.354597
06533,7.019957,1.426913,6.293976,3.672598,-1.900115,1.293530
06534,5.474692,6.473311,7.842469,2.870512,-1.783209,0.922912
06535,4.052147,8.742722,9.166918,1.546284,-1.484284,0.506432
06536,3.535768,7.010619,8.536089,0.120195,-1.212763,0.129410
06537,4.575016,3.628960,6.935619,-0.842370,-0.932054,-0.361391
06538,5.349302,-0.315271,5.329747,-1.329744,-0.666716,-0.876691
06539,6.289208,-1.647138,4.359559,-1.420782,-0.605789,-1.407699
06540,6.327188,0.981399,5.390231,-1.779110,-0.578963,-1.876615
06541,6.959275,2.395886,5.636637,-2.820282,-0.550374,-2.141567
06542,8.495129,-1.313598,5.034957,-3.854739,-0.274187,-2.137038
06543,9.238033,-8.142096,4.028467,-4.035265,-0.061600,-1.936790
06544,9.545500,-12.253092,4.360773,-3.167210,-0.142359,-1.635694
06545,10.350209,-12.964785,4.614163,-1.839497,-0.290112,-1.345785
06546,10.636845,-10.246580,4.832492,-0.473583,-0.481227,-1.123519
06547,11.036752,-4.308569,4.653656,0.429123,-0.708411,-0.969254
06548,11.140836,1.471600,3.726036,0.569097,-0.865882,-0.857999
06549,10.810111,3.765880,2.348202,0.115004,-0.906206,-0.684296
06550,9.360083,3.607548,1.523387,-0.438550,-0.943834,-0.657488
06551,7.902641,2.258733,1.952611,-0.819896,-0.962785,-0.815667
06552,6.983377,1.494428,2.636897,-1.015968,-1.087737,-1.031310
06553,7.139435,0.577861,3.280861,-1.215147,-1.152936,-1.326816
06554,7.072078,-0.133621,3.138703,-1.317213,-1.187435,-1.633539
06555,7.554420,-0.460311,3.243229,-1.442363,-1.188743,-1.937086
06556,8.314112,-2.440685,2.569654,-1.539106,-1.077441,-2.155128
06557,9.322200,-4.472112,2.664993,-1.407240,-0.997107,-2.331066
06558,10.179965,-4.876348,2.970862,-1.171833,-0.940101,-2.468241
06559,10.508026,-2.359139,3.777801,-1.093846,-0.934447,-2.629490
06560,11.011059,-0.088722,4.742154,-1.415033,-0.852081,-2.646358
06561,11.790097,0.715849,4.779356,-1.930585,-0.733244,-2.525031
06562,12.615202,-0.260795,4.362919,-2.295681,-0.578926,-2.264281
06563,12.921216,-2.742142,3.989136,-2.210228,-0.420615,-1.912439
06564,12.139518,-4.666278,3.518103,-1.614388,-0.398930,-1.537384
06565,11.452045,-4.729202,3.356874,-0.745108,-0.488392,-1.154523
06566,11.392564,-3.386422,3.511466,0.014624,-0.575431,-0.822477
06567,11.557636,-2.086510,3.596510,0.472200,-0.590640,-0.514667
06568,11.483335,-0.992819,3.620295,0.629168,-0.546277,-0.276068
06569,11.194906,-0.487752,3.594456,0.538813,-0.454585,-0.080674
06570,10.790230,-0.006213,3.484086,0.277092,-0.357038,0.055538
06571,10.404452,0.086636,3.337035,-0.058682,-0.252813,0.137181
06572,9.885156,0.281977,3.167721,-0.377053,-0.189350,0.178426
06573,9.464115,0.860918,3.165563,-0.700667,-0.167504,0.167579
06574,9.409876,0.714570,3.451165,-1.054132,-0.101177,0.151718
06575,9.266818,-0.115625,3.339954,-1.276866,-0.033368,0.125541
06576,9.245456,-0.858705,3.386018,-1.365857,-0.004434,0.093330
06577,9.222322,-1.677214,3.297225,-1.341084,0.041041,0.099452
06578,9.231771,-2.129415,3.269856,-1.236684,0.063572,0.111756
06579,9.315230,-2.330499,3.243717,-1.094423,0.091151,0.130174
06580,9.449209,-2.350784,3.250121,-0.935874,0.117843,0.149702
06581,9.449447,-2.008580,3.178843,-0.788350,0.125814,0.175453
06582,9.587022,-1.808753,3.163989,-0.665671,0.129534,0.225388
06583,9.670527,-1.701683,3.030204,-0.561704,0.137977,0.273985
06584,9.538193,-1.366072,2.899430,-0.477208,0.119537,0.300921
06585,9.566502,-1.086519,2.928776,-0.474059,0.116783,0.316416
06586,9.682004,-1.139773,2.915227,-0.513232,0.124736,0.349126
06587,9.793622,-1.208617,2.825286,-0.589332,0.134206,0.391643
06588,9.823822,-1.352187,2.747672,-0.672707,0.169792,0.424471
06589,9.764975,-1.355221,2.610541,-0.738915,0.185440,0.457553
06590,9.695233,-1.181174,2.540266,-0.810312,0.177081,0.495340
06591,9.789892,-1.163140,2.527285,-0.896509,0.180917,0.545629
06592,9.886395,-1.351031,2.500602,-0.982716,0.182205,0.600027
06593,9.921868,-1.634794,2.548751,-1.044571,0.185815,0.654155
06594,9.906415,-1.826256,2.578686,-1.102410,0.190693,0.713703
06595,9.823087,-2.046407,2.576609,-1.145533,0.188816,0.781395
06596,9.779151,-2.302348,2.553935,-1.174616,0.186234,0.852472
06597,9.790418,-2.572279,2.478339,-1.171611,0.187182,0.926213
06598,9.820845,-2.774983,2.443532,-1.127669,0.196072,0.983578
06599,9.694739,-2.766399,2.417263,-1.052493,0.186672,1.037539
06600,9.648725,-2.571972,2.399286,-1.000219,0.162852,1.082781
06601,9.416770,-2.324505,2.196747,-0.966414,0.142836,1.108313
06602,9.071650,-1.705188,2.092918,-0.972840,0.092577,1.076393
06603,8.847194,-1.319091,2.172375,-1.042033,0.054230,1.007591
06604,8.793541,-1.349887,2.235106,-1.140432,0.034770,0.922725
06605,8.788141,-1.685527,2.346837,-1.223787,0.027941,0.832165
06606,8.715689,-2.105374,2.460926,-1.267281,0.038566,0.737350
06607,8.693174,-2.473255,2.476440,-1.266932,0.050913,0.645585
06608,8.705616,-2.837448,2.446134,-1.240574,0.074390,0.557223
06609,8.700893,-3.034022,2.366283,-1.163648,0.086416,0.474155
06610,8.767117,-3.260090,2.281228,-1.033014,0.089788,0.410278
06611,8.783792,-3.412163,2.174955,-0.863035,0.088220,0.352614
06612,8.802960,-3.483811,2.113148,-0.654393,0.073431,0.298068
06613,8.860886,-3.461587,2.115434,-0.433097,0.054935,0.252147
06614,9.007916,-3.498843,2.106406,-0.207942,0.043762,0.201990
06615,9.033663,-3.376162,2.126638,-0.001181,0.028258,0.161445
06616,9.057048,-3.102348,2.211460,0.149833,0.007130,0.130938
06617,9.090179,-2.915150,2.221968,0.236311,-0.004659,0.098838
06618,9.132691,-2.827062,2.233462,0.283787,-0.015224,0.071230
06619,9.148405,-2.765846,2.326457,0.306040,-0.018889,0.047083
06620,9.128764,-2.607484,2.346219,0.297841,-0.021566,0.024086
06621,9.160610,-2.530720,2.329847,0.257330,-0.017799,-0.001855
06622,9.146412,-2.524710,2.365272,0.193619,-0.013065,-0.025574
06623,9.138396,-2.593128,2.382152,0.129591,-0.005677,-0.044266
06624,9.162807,-2.688181,2.355514,0.071866,-0.003596,-0.073078
06625,9.178833,-2.857530,2.342214,0.030292,0.010648,-0.094721
06626,9.137025,-2.937400,2.340332,0.016358,0.009794,-0.117861
06627,9.080768,-3.006354,2.292844,0.010647,0.013041,-0.137931
06628,9.056473,-3.002767,2.223081,0.004238,0.012537,-0.151758
06629,8.988905,-2.919632,2.209724,-0.008227,0.009001,-0.165809
06630,8.914946,-2.929827,2.152682,-0.015563,0.004741,-0.176222
06631,8.776343,-2.955084,2.139700,-0.016339,-0.008692,-0.197826
06632,8.697722,-2.898085,2.174193,-0.005598,-0.032945,-0.204468
06633,8.744488,-2.990889,2.187120,-0.005991,-0.049089,-0.231085
06634,8.803119,-3.113808,2.241228,0.016520,-0.068599,-0.254795
06635,8.904085,-3.194928,2.314876,0.036882,-0.078338,-0.276165
06636,8.953842,-3.341410,2.419364,0.061214,-0.081839,-0.290826
06637,9.067408,-3.440345,2.459523,0.090404,-0.085950,-0.304716
06638,9.201666,-3.512406,2.472740,0.133555,-0.079905,-0.307582
06639,9.356783,-3.567649,2.536529,0.161439,-0.063538,-0.305359
06640,9.464830,-3.535019,2.583556,0.186075,-0.033243,-0.289651
06641,9.582231,-3.403628,2.622473,0.184627,0.004715,-0.269783
06642,9.658509,-3.263035,2.627374,0.163932,0.044150,-0.227639
06643,9.813334,-3.066336,2.617354,0.095611,0.091273,-0.180570
06644,9.896779,-2.928454,2.518752,0.006571,0.135883,-0.116224
06645,9.895824,-2.800490,2.344932,-0.092540,0.176567,-0.040361
06646,9.749749,-2.606399,2.182099,-0.188970,0.201093,0.042865
06647,9.672052,-2.389106,2.052732,-0.293389,0.205617,0.123316
06648,9.563471,-2.304298,1.961255,-0.401568,0.204263,0.189221
06649,9.512838,-2.405965,1.813145,-0.478141,0.194961,0.247002
06650,9.455146,-2.607782,1.827448,-0.513726,0.170801,0.287366
06651,9.413937,-2.850274,1.901779,-0.506793,0.141850,0.308645
06652,9.293631,-3.130767,1.989596,-0.465722,0.112956,0.306157
06653,9.182274,-3.361869,2.080733,-0.390140,0.079770,0.286801
06654,9.042942,-3.539636,2.216519,-0.296768,0.054016,0.253328
06655,8.985193,-3.773409,2.313032,-0.176736,0.039610,0.217428
06656,8.943079,-3.930535,2.423497,-0.054568,0.035139,0.183019
06657,8.892488,-4.036047,2.420862,0.080915,0.040323,0.154111
06658,8.834300,-3.801401,2.396600,0.179054,0.047435,0.121287
06659,8.816506,-3.414377,2.342936,0.227846,0.054485,0.096018
06660,8.809530,-3.197182,2.248358,0.233383,0.071158,0.066545
06661,8.895660,-3.102586,2.175656,0.223737,0.080874,0.043588
06662,9.004235,-3.021831,2.171426,0.212471,0.088167,0.030162
06663,9.052950,-2.853747,2.179109,0.174249,0.106446,0.025418
06664,9.098417,-2.738722,2.202049,0.115886,0.111823,0.027660
06665,9.143655,-2.695372,2.182708,0.036897,0.121769,0.032395
06666,9.173074,-2.725282,2.151896,-0.041192,0.127579,0.041780
06667,9.211183,-2.791356,2.161850,-0.112258,0.132389,0.058890
06668,9.222681,-2.908423,2.194135,-0.158216,0.130574,0.072699
06669,9.208970,-3.065054,2.172189,-0.187069,0.128787,0.088135
