// Start Time: Unknown
// Update Rate: 100.0Hz
// Filter Profile: human (46.1)
// Firmware Version: 4.3.5
PacketCounter,Acc_X,Acc_Y,Acc_Z,Gyr_X,Gyr_Y,Gyr_Z
05900,9.830581,-0.998077,0.454236,0.057725,0.008174,-0.001418
05901,9.864177,-0.939127,0.483795,0.062307,0.006578,0.000324
05902,9.874446,-0.888605,0.537405,0.058648,0.009327,0.000529
05903,9.885001,-0.841226,0.639959,0.053764,0.013056,-0.001116
05904,9.939033,-0.855292,0.714304,0.035751,0.024921,-0.007879
05905,10.036203,-0.927613,0.712725,0.041589,0.045415,-0.009311
05906,10.170170,-1.040119,0.710640,0.066070,0.065027,-0.003624
05907,10.397533,-1.122601,0.665210,0.108600,0.111345,-0.003288
05908,10.323228,-1.221904,0.750506,0.154835,0.209145,-0.028083
05909,10.114577,-1.381518,0.866035,0.191540,0.290489,-0.092997
05910,9.914547,-1.316519,1.220525,0.298128,0.316923,-0.143569
05911,9.896019,-0.904232,1.425077,0.408005,0.318436,-0.144725
05912,9.850027,-0.567124,1.476996,0.399954,0.335336,-0.125847
05913,9.635702,-0.492617,1.097293,0.288633,0.349156,-0.096351
05914,9.331163,-0.771012,0.404565,0.181556,0.332951,-0.062629
05915,8.975885,-0.869329,-0.286779,0.164541,0.251090,-0.020587
05916,9.010984,-0.695854,-0.554204,0.096992,0.119552,0.014336
05917,9.135487,-0.433126,-0.510048,0.011024,0.004384,0.024836
05918,9.533197,-0.139659,0.216797,-0.095012,-0.060991,0.017804
05919,10.070049,-0.062728,0.984633,-0.220159,-0.024414,0.010183
05920,10.382867,-0.255744,1.644882,-0.338851,0.079348,0.016333
05921,10.490290,-0.609051,2.131146,-0.407453,0.176225,0.020562
05922,10.970000,-0.859453,3.251688,-0.416629,0.278883,0.005992
05923,11.779758,-0.993526,4.458515,-0.465986,0.534661,-0.035846
05924,11.917669,-1.744153,4.450047,-0.477984,0.929718,-0.061809
05925,11.377599,-2.743827,3.704649,-0.159203,1.318849,-0.065888
05926,10.440389,-2.921571,2.897960,0.425620,1.564602,-0.133185
05927,10.121817,-2.594582,2.659271,0.872893,1.574315,-0.227229
05928,10.290261,-2.191125,2.581813,1.209098,1.480952,-0.286577
05929,10.418718,-1.102951,2.422107,1.359371,1.452650,-0.325784
05930,9.791646,-0.239399,1.450594,1.297822,1.421541,-0.334843
05931,9.001348,0.448646,0.255911,1.206912,1.246737,-0.304891
05932,8.580216,1.087597,-0.819670,0.976337,0.965455,-0.275429
05933,8.434796,1.479982,-1.451293,0.527915,0.633646,-0.240860
05934,8.633654,1.609333,-1.408126,-0.021768,0.350754,-0.187157
05935,8.997409,1.459169,-0.528025,-0.593451,0.210855,-0.118139
05936,9.588518,1.100965,0.614915,-1.115380,0.243480,-0.032920
05937,10.013857,0.497151,1.736041,-1.568219,0.385388,0.102589
05938,10.037615,-0.176459,3.164182,-1.874511,0.572692,0.205405
05939,10.340050,-0.586830,5.155833,-2.073869,0.768854,0.246685
05940,11.178742,-1.347169,6.876161,-2.420551,1.044739,0.308287
05941,11.690573,-3.054124,6.800148,-2.552859,1.435752,0.424939
05942,11.044387,-4.945706,5.159420,-2.001557,1.800571,0.570718
05943,9.691800,-5.899765,3.742004,-0.872344,1.891530,0.640496
05944,9.199370,-5.627651,3.457509,0.202119,1.655072,0.598147
05945,9.799733,-4.862253,3.438814,0.937542,1.358672,0.533423
05946,10.285880,-3.428420,3.292270,1.387420,1.235334,0.509109
05947,9.799185,-2.012266,2.457260,1.538763,1.200943,0.504930
05948,8.734571,-0.940603,1.211279,1.640560,1.095869,0.499866
05949,7.797217,0.047586,-0.081856,1.618030,0.833548,0.489555
05950,7.149728,0.807128,-1.111749,1.397219,0.437809,0.465723
05951,6.735149,1.153663,-1.672352,0.951657,-0.040814,0.444722
05952,7.244733,1.147405,-2.040366,0.283378,-0.482320,0.509427
05953,8.471451,0.933871,-1.655142,-0.484222,-0.688029,0.701703
05954,9.563209,0.989936,-0.061037,-1.274833,-0.604401,0.910060
05955,10.139671,0.995011,1.633818,-2.161485,-0.351338,1.064866
05956,10.013522,0.983115,2.909670,-2.949252,-0.096417,1.134520
05957,9.984302,1.158868,5.926014,-3.706915,0.086286,1.104097
05958,11.088848,0.933375,9.965520,-4.814872,0.321528,1.053272
05959,12.040461,-0.175297,10.940631,-5.996202,0.849597,1.060660
05960,11.134384,-3.480386,8.362659,-6.207575,1.385356,1.033112
05961,9.621381,-7.689962,5.488969,-5.076844,1.592427,1.050496
05962,9.137909,-9.901924,4.337294,-3.123337,1.374453,1.144620
05963,9.243725,-10.582938,3.559131,-1.563318,1.081632,1.184374
05964,8.814912,-10.837652,2.081775,-0.208236,0.858255,1.124285
05965,7.703633,-9.444468,0.806593,1.111022,0.725475,1.047890
05966,6.515704,-8.215895,-0.762316,2.204911,0.536049,1.018074
05967,5.786711,-7.042854,-2.133422,3.086439,0.208550,1.074119
05968,5.407119,-5.789859,-2.484287,3.578955,-0.235530,1.139938
05969,5.815896,-4.342611,-1.885399,3.655130,-0.683444,1.151999
05970,7.007114,-2.440382,-0.733890,3.233333,-0.961478,1.168327
05971,8.609787,-0.255322,0.898463,2.522571,-0.926805,1.145060
05972,10.144608,2.137387,3.039409,1.520654,-0.546082,1.073241
05973,10.706098,3.738255,5.668264,0.133659,-0.050082,1.004063
05974,11.338562,4.492247,9.784919,-1.594976,0.413160,0.943055
05975,12.123794,3.839223,11.623518,-3.658370,1.044900,0.947239
05976,11.054366,1.242472,9.241725,-4.794021,1.684451,0.942007
05977,9.381803,-2.031498,7.046274,-4.987323,2.012773,0.952014
05978,8.334673,-5.823771,6.100006,-4.748907,2.030877,1.040766
05979,7.799334,-9.454716,5.478337,-4.014485,1.894643,1.175806
05980,7.226631,-12.156709,4.369139,-2.878930,1.776849,1.300226
05981,6.336023,-14.088941,2.985187,-1.428041,1.618601,1.385552
05982,5.439499,-14.374749,1.207299,0.358224,1.365926,1.483161
05983,4.936835,-13.143413,-0.792248,2.112825,1.020223,1.626009
05984,4.805304,-11.358316,-2.241536,3.457117,0.559689,1.732809
05985,5.411361,-9.373788,-2.415848,4.278056,0.011975,1.784553
05986,6.481705,-7.182523,-1.879502,4.648940,-0.453190,1.770571
05987,7.942277,-4.552069,-0.163512,4.461993,-0.682740,1.695532
05988,9.559684,-1.613914,2.734219,3.631233,-0.585998,1.612272
05989,10.487237,1.355973,5.308440,2.334143,-0.137304,1.522777
05990,10.053834,3.680837,7.517984,0.771561,0.427315,1.414919
05991,9.394342,4.738406,10.239918,-1.154552,0.889203,1.345958
05992,8.865563,3.534628,11.302561,-3.241481,1.347084,1.336433
05993,8.127771,0.848172,9.969712,-4.741672,1.807062,1.385814
05994,6.761289,-2.924959,6.920629,-5.494847,2.065979,1.493202
05995,5.975681,-7.043225,5.093055,-5.281043,2.038204,1.600023
05996,5.952246,-11.190851,4.331175,-4.600924,1.883333,1.699164
05997,5.777022,-14.830224,3.143301,-3.308366,1.686400,1.760960
05998,4.785426,-16.012480,1.309322,-1.389151,1.441918,1.765396
05999,3.356475,-15.250058,-0.487806,0.622904,1.023738,1.744051
06000,2.441529,-13.642535,-2.375770,2.370999,0.455224,1.721713
06001,2.156333,-11.579369,-3.895203,3.689523,-0.190815,1.693741
06002,2.427369,-9.481663,-4.710292,4.567457,-0.816657,1.622599
06003,3.018502,-7.560578,-4.318620,4.822482,-1.360517,1.559899
06004,4.316750,-5.533018,-2.292513,4.320049,-1.691586,1.567016
06005,6.359654,-2.640584,1.331991,3.191229,-1.580595,1.628525
06006,8.237355,1.093271,5.754730,1.527026,-0.951828,1.695026
06007,8.454324,4.441222,10.425690,-0.621035,-0.161581,1.688659
06008,8.355525,6.295825,15.639285,-3.453139,0.495042,1.646280
06009,8.121863,4.757228,14.101611,-6.565902,1.191838,1.680640
06010,5.120014,-0.323497,7.163592,-7.928954,1.696461,1.620365
06011,3.128115,-5.167822,4.171104,-7.909853,1.657503,1.514173
06012,2.936720,-10.419738,4.321773,-7.696405,1.336072,1.552244
06013,3.450423,-16.391125,3.105940,-6.826331,0.956272,1.705383
06014,3.585349,-20.382623,0.541236,-4.815633,0.706124,1.780611
06015,2.625957,-21.607690,-1.547806,-1.996705,0.465719,1.780700
06016,1.228824,-20.779556,-2.199550,0.961814,0.163522,1.723521
06017,0.555431,-18.350765,-2.957067,3.326448,-0.280769,1.695763
06018,0.430483,-15.451430,-4.819273,5.054833,-0.839390,1.696889
06019,0.673470,-12.764208,-5.757081,6.445826,-1.328951,1.612769
06020,1.795944,-9.979105,-4.220735,7.030382,-1.686619,1.577018
06021,3.673098,-6.194072,-0.266283,6.333618,-1.764696,1.693591
06022,5.167765,-0.765047,3.601909,4.670880,-1.348531,1.743382
06023,5.952737,5.285812,6.941479,2.330692,-0.710439,1.610014
06024,5.941740,8.065439,9.840885,-0.740169,-0.073290,1.490154
06025,5.454972,5.627235,9.982447,-3.755542,0.452138,1.416647
06026,4.279645,1.195810,7.630900,-5.517510,0.866184,1.363176
06027,2.642381,-2.578754,5.725261,-6.531335,1.061830,1.310151
06028,1.130900,-7.826226,3.857680,-6.996176,1.001953,1.275009
06029,0.532406,-13.620216,2.726922,-6.339671,0.730057,1.253527
06030,0.572154,-18.391168,1.482643,-4.776620,0.471582,1.295364
06031,0.351625,-21.403561,-0.574637,-2.384918,0.275642,1.331129
06032,-0.434638,-21.711493,-2.723835,0.671555,0.052366,1.347195
06033,-1.290164,-19.220946,-3.618710,3.482403,-0.331724,1.317484
06034,-1.231165,-15.824609,-3.741992,5.177771,-0.859999,1.283428
06035,-0.422484,-13.274212,-3.847625,5.916242,-1.326366,1.289671
06036,0.450443,-10.888186,-3.513797,6.339654,-1.551174,1.325310
06037,1.011318,-7.366783,-1.741340,6.165239,-1.629882,1.413340
06038,1.432067,-2.983389,0.776269,5.001404,-1.572612,1.487983
06039,1.937026,1.900648,3.206308,2.989924,-1.346565,1.446625
06040,2.662821,5.404608,5.865157,0.212626,-0.995922,1.357364
06041,3.276797,4.737739,8.009249,-2.695660,-0.517684,1.265816
06042,3.644665,1.303607,8.500234,-4.746940,0.058228,1.148513
06043,2.638592,-1.559171,7.397802,-5.827899,0.572933,1.021099
06044,-0.327294,-5.849421,4.075022,-6.403829,0.723263,0.880224
06045,-1.879800,-11.362317,3.042445,-5.789577,0.455735,0.633723
06046,-1.201907,-15.692803,4.408000,-4.712308,0.160902,0.638531
06047,-0.812634,-19.697099,4.237543,-3.027592,0.129234,0.794287
06048,-0.980416,-21.337263,3.007608,-0.399712,0.194212,0.842299
06049,-1.137570,-20.383663,1.543877,2.336015,0.157412,0.822827
06050,-1.025503,-18.270434,0.231518,4.828155,-0.012955,0.747506
06051,-0.871579,-15.222565,-1.303363,6.871893,-0.251028,0.650372
06052,-1.005984,-11.792297,-2.573194,8.283393,-0.535721,0.515313
06053,-1.138310,-8.758615,-2.993637,8.753145,-0.858723,0.399805
06054,-1.063683,-6.418635,-2.312129,8.355010,-1.169019,0.402276
06055,-0.951802,-4.082990,-0.876634,7.304897,-1.353028,0.531436
06056,-0.881254,-0.934383,1.684987,5.642069,-1.388967,0.699809
06057,-0.183617,2.806636,4.862149,3.181910,-1.287902,0.804341
06058,1.137495,5.079518,7.506612,0.190551,-0.949245,0.811398
06059,2.235627,5.128261,9.774415,-2.376223,-0.292449,0.664681
06060,2.747086,3.703918,11.111091,-4.431490,0.376206,0.447014
06061,1.822392,-0.525545,10.182240,-5.903489,0.737784,0.241356
06062,1.273432,-6.437459,8.305619,-6.024967,0.769982,0.041645
06063,1.351536,-12.020683,7.297922,-4.931054,0.904833,0.028868
06064,0.584681,-16.184051,6.682670,-3.154276,0.972284,0.162646
06065,0.246849,-18.791878,5.595566,-1.155217,0.899837,0.165698
06066,-0.182191,-20.555200,4.200721,1.173177,0.791592,-0.004902
06067,-0.805816,-20.299204,3.056186,3.817953,0.633691,-0.236341
06068,-1.487279,-16.611948,1.801328,6.432142,0.469445,-0.407321
06069,-2.562309,-11.200142,1.013145,8.337884,0.337216,-0.530423
06070,-3.705392,-7.492467,0.622740,8.955395,0.189751,-0.494012
06071,-7.955067,-5.251035,-5.184531,7.758530,-0.893478,-0.344019
06072,-6.321721,-4.532811,-8.901399,7.069498,-1.956608,-0.509283
06073,-3.420629,-0.714461,-5.447986,6.100137,-2.113264,-0.479364
06074,-2.305782,2.675044,-0.839523,4.129171,-2.115108,-0.197004
06075,-1.772488,4.902174,1.543649,1.659580,-2.179299,0.034326
06076,-1.467459,6.003577,2.288777,-0.859924,-2.260051,0.220369
06077,-0.667316,5.598170,3.991953,-3.461446,-2.424950,0.406635
06078,0.875438,3.204853,5.302340,-5.814174,-2.477363,0.567368
06079,2.340368,0.076275,5.934042,-7.486218,-2.351895,0.637981
06080,3.398100,-3.556914,6.503191,-8.691797,-2.101153,0.608660
06081,4.975369,-7.911633,8.802778,-9.335329,-1.672598,0.458786
06082,6.582094,-13.061525,12.661028,-9.187521,-0.794287,0.237575
06083,6.160826,-19.750569,14.228589,-8.157206,0.176029,0.055879
06084,3.195213,-26.791013,12.005994,-5.852572,0.738428,0.000454
06085,-0.085570,-30.306163,8.913406,-2.218373,0.576223,0.053793
06086,-0.809187,-28.237787,6.652432,1.662230,0.097479,0.222288
06087,-0.447005,-23.301277,4.827381,4.616129,-0.321815,0.448763
06088,0.113164,-17.504898,3.044431,6.465866,-0.678401,0.647316
06089,0.565084,-12.543111,1.588717,7.365745,-0.867741,0.726477
06090,0.410743,-8.825875,0.976014,7.591517,-0.905759,0.707119
06091,0.051649,-5.930389,1.043708,7.254843,-0.976480,0.615808
06092,-0.116277,-3.078388,1.467571,6.514547,-1.044045,0.492045
06093,-0.531896,-0.182495,1.605136,5.234281,-1.161156,0.367625
06094,-0.731238,1.950692,0.642444,3.539701,-1.298639,0.265905
06095,-0.679112,3.121554,-0.866520,1.879321,-1.411938,0.236660
06096,-0.144888,3.834161,-0.144391,0.317122,-1.524835,0.344540
06097,0.846023,3.599384,2.876455,-1.484951,-1.542124,0.557931
06098,1.731312,1.964982,5.491483,-3.316160,-1.443577,0.779653
06099,2.560181,-0.065698,7.876534,-4.872671,-1.149012,0.899178
06100,2.999085,-3.016727,10.359540,-6.242125,-0.649245,0.926747
06101,3.130985,-7.923187,11.122271,-6.869294,-0.096899,0.929953
06102,2.210146,-13.277187,9.863624,-6.431319,0.173131,0.910263
06103,1.392918,-17.847706,7.195037,-4.921195,0.049830,0.855458
06104,1.579036,-20.431319,5.826225,-2.712800,-0.258418,0.754318
06105,2.026255,-20.657058,5.520672,-0.430281,-0.600945,0.625485
06106,2.162798,-17.842768,5.444768,1.617737,-0.797957,0.550153
06107,1.848120,-13.930222,5.462016,2.975144,-0.868959,0.594452
06108,1.310004,-11.366781,5.086187,3.788918,-0.852642,0.696857
06109,0.569740,-9.517630,4.913299,4.262661,-0.837140,0.836553
06110,0.009220,-8.277880,4.302360,4.352588,-0.875236,0.980875
06111,0.000168,-6.777540,3.411775,4.030428,-1.014817,1.031761
06112,0.435293,-4.990896,2.339789,3.236165,-1.085940,0.927221
06113,0.428134,-2.269199,2.004768,2.112673,-1.042778,0.856402
06114,0.692663,0.192102,2.262261,0.942502,-1.070764,0.842283
06115,0.420270,0.012274,2.795765,-0.214019,-1.168286,0.880174
06116,-0.007336,-1.743404,3.500074,-1.044975,-1.488902,0.905304
06117,0.527950,-3.277542,4.941344,-1.544664,-1.801137,0.884869
06118,1.379621,-5.186506,6.610031,-1.907223,-1.805538,0.822423
06119,1.741365,-7.490038,8.501686,-2.040028,-1.568730,0.774881
06120,2.255689,-9.310849,11.371276,-2.010846,-1.259852,0.831333
06121,2.258672,-10.747541,12.425520,-1.640292,-0.915227,0.896347
06122,2.568279,-11.329186,12.230056,-0.915374,-0.700938,0.916725
06123,2.948320,-11.997016,10.418342,-0.066894,-0.544865,0.875369
06124,3.107812,-11.579777,8.760905,0.944041,-0.526572,0.753978
06125,3.328811,-10.097216,8.414648,1.649682,-0.511867,0.639179
06126,2.791580,-8.856337,8.072300,2.090712,-0.331750,0.551664
06127,1.941022,-7.927194,7.247847,2.358755,-0.136568,0.526984
06128,1.416201,-7.030028,6.552896,2.365742,0.037121,0.574674
06129,1.136480,-6.245063,5.444451,2.149273,0.100144,0.643891
06130,1.105824,-5.486705,4.310645,1.868342,0.079211,0.652837
06131,1.069079,-4.396663,4.438595,1.327429,0.030489,0.599353
06132,1.115937,-3.897742,4.851732,0.737196,0.021219,0.539533
06133,0.339390,-3.956380,4.532843,0.438295,-0.094989,0.479171
06134,-0.743214,-3.960818,4.140261,0.283832,-0.440042,0.436214
06135,-1.280686,-3.678593,3.597854,0.224272,-0.758625,0.378080
06136,-1.593856,-3.053096,3.319990,0.176955,-0.990496,0.298749
06137,-1.760642,-2.752501,3.280370,0.029286,-1.207927,0.235448
06138,-1.442333,-2.588018,4.581212,-0.322886,-1.401935,0.239372
06139,-0.643118,-2.505834,6.632725,-1.009901,-1.459080,0.297641
06140,0.343491,-3.013843,8.114157,-1.708331,-1.334920,0.323664
06141,1.744984,-4.356565,9.835531,-2.232370,-1.051974,0.300278
06142,3.179513,-6.528896,11.778116,-2.513982,-0.638998,0.301490
06143,4.120407,-9.221351,11.976320,-2.427331,-0.217086,0.338589
06144,4.042781,-11.892194,10.491573,-1.722147,0.019373,0.352925
06145,3.466623,-12.981476,8.514762,-0.548052,0.029046,0.242507
06146,3.039389,-11.671069,7.539611,0.573407,-0.040172,0.035414
06147,2.855601,-9.929301,7.640621,1.169308,-0.088249,-0.130414
06148,2.917040,-8.790250,7.812711,1.479227,0.048562,-0.199862
06149,2.619023,-8.465013,7.744899,1.580215,0.297128,-0.181815
06150,1.748271,-8.163123,6.891572,1.661809,0.418327,-0.148714
06151,1.198847,-6.927337,6.094848,1.625683,0.434188,-0.215400
06152,1.089064,-5.246569,5.527673,1.388522,0.361253,-0.313707
06153,1.018042,-3.401463,5.282909,1.047263,0.284062,-0.414285
06154,0.511484,-2.145486,5.192712,0.588152,0.156088,-0.466939
06155,0.088946,-1.790795,5.222292,0.113555,-0.023188,-0.479760
06156,-0.328184,-1.843135,4.926920,-0.290723,-0.179263,-0.536757
06157,-0.457402,-3.041203,4.267867,-0.565751,-0.333821,-0.593934
06158,0.293894,-3.864633,6.209554,-0.870377,-0.399735,-0.566310
06159,1.146603,-4.580854,9.484088,-1.587927,-0.192029,-0.511804
06160,1.710962,-5.532538,10.666647,-1.856115,0.192068,-0.497802
06161,2.535906,-6.143920,11.727909,-1.882461,0.514629,-0.500861
06162,3.772360,-7.697746,11.737885,-1.784454,0.793744,-0.503042
06163,4.300002,-9.230650,10.580765,-1.370778,1.073271,-0.554842
06164,4.006347,-10.158337,9.068848,-0.718412,1.223945,-0.720641
06165,3.442830,-10.198724,7.975624,0.046465,1.262627,-0.973145
06166,2.808100,-9.109059,7.595332,0.733016,1.284546,-1.219212
06167,2.258421,-7.630413,7.572244,1.203941,1.301278,-1.390467
06168,1.637787,-6.421689,7.449300,1.490998,1.307299,-1.519846
06169,0.966823,-5.834852,6.140763,1.571443,1.251140,-1.559321
06170,0.813431,-4.821410,4.984231,1.597070,1.148936,-1.635139
06171,1.215121,-3.649477,4.873383,1.485509,1.115911,-1.753288
06172,1.314386,-2.601842,4.680828,1.111157,1.066221,-1.794233
06173,1.261157,-1.551475,3.567416,0.544578,0.867336,-1.739200
06174,1.289893,-0.705726,2.434320,-0.184701,0.665987,-1.684812
06175,1.640444,-0.969283,2.010410,-1.081299,0.505531,-1.570978
06176,1.836578,-2.029152,2.325673,-2.133777,0.372978,-1.388811
06177,1.910726,-3.868048,2.077407,-3.082262,0.283225,-1.227148
06178,2.231227,-6.592240,2.304714,-3.812764,0.196512,-1.051941
06179,2.717830,-9.897383,3.296380,-4.371576,0.149207,-0.802562
06180,3.620078,-12.192812,6.176835,-4.866811,0.142636,-0.418706
06181,4.509515,-13.321649,9.779935,-5.324322,0.444622,-0.070694
06182,4.389627,-14.957433,10.188105,-4.904240,1.008988,0.107949
06183,4.035694,-15.857309,9.599278,-3.932095,1.366262,0.190295
06184,3.947880,-16.524661,8.951278,-2.869762,1.549229,0.194203
06185,3.638234,-16.783781,7.806973,-1.466701,1.707329,0.122295
06186,2.884606,-16.481918,6.046850,0.137885,1.735470,-0.002511
06187,1.684322,-14.906374,4.490152,1.724752,1.630362,-0.125724
06188,0.551962,-12.158882,3.588161,2.939067,1.433002,-0.246944
06189,-0.476930,-9.848531,3.401266,3.662356,1.237270,-0.382694
06190,-1.301042,-7.802806,3.596010,3.999206,1.086815,-0.519823
06191,-1.710489,-6.169332,3.783786,3.941231,0.982444,-0.656203
06192,-1.780404,-4.998174,3.311875,3.691026,0.896993,-0.753481
06193,-2.028568,-3.968017,2.416324,3.342533,0.738405,-0.811047
06194,-2.262486,-3.032711,1.422809,2.831375,0.449778,-0.864816
06195,-1.870898,-2.249630,0.710620,2.088308,0.078623,-0.938944
06196,-0.673612,-1.805763,0.545465,1.184150,-0.224549,-0.999271
06197,1.141950,-1.702946,1.224559,0.046972,-0.406665,-0.979425
06198,2.961928,-2.396019,2.795399,-1.381064,-0.449877,-0.837898
06199,4.312836,-3.436534,5.510745,-2.917100,-0.355557,-0.615496
06200,5.514708,-4.196655,9.415173,-4.529091,-0.089873,-0.409312
06201,6.845650,-5.147154,13.291160,-6.343589,0.582335,-0.278753
06202,7.632685,-8.245884,14.458442,-7.741828,1.525747,-0.231607
06203,7.531499,-12.666295,13.357883,-7.504611,2.474519,-0.151297
06204,5.417638,-14.924331,11.597449,-5.976051,3.209701,-0.066620
06205,3.745785,-16.832991,8.331417,-4.500576,3.509001,0.063149
06206,2.180755,-19.644571,5.869411,-2.788437,3.616280,0.187625
06207,0.958294,-21.973859,4.320107,-0.599329,3.420814,0.397534
06208,0.061314,-21.858067,1.968027,1.981350,3.003361,0.701572
06209,-0.736353,-19.002109,-0.385085,4.310748,2.449503,0.909167
06210,-1.243631,-15.262564,-1.765943,6.056392,1.920200,0.905797
06211,-1.627449,-12.172404,-2.894676,7.218302,1.406475,0.766927
06212,-2.154828,-9.208450,-4.067052,8.019756,0.812673,0.548901
06213,-2.690385,-6.096547,-4.926439,8.234805,0.116723,0.274629
06214,-2.812710,-3.374887,-4.855745,7.748525,-0.577648,-0.039946
06215,-2.027540,-0.719042,-3.687273,6.600988,-1.179859,-0.313898
06216,0.004946,2.076106,-1.167928,4.752823,-1.501273,-0.425140
06217,2.739117,4.155866,2.878838,2.349234,-1.249013,-0.321341
06218,4.404356,5.679906,7.555895,-0.461809,-0.480522,-0.088094
06219,4.616571,6.531873,11.412052,-3.451048,0.334115,0.092443
06220,4.795211,7.240776,15.332695,-6.270504,1.077600,0.103173
06221,5.216141,7.434319,17.921589,-9.252017,1.940463,-0.124599
06222,5.364671,2.892073,14.304654,-11.969689,2.801806,-0.451365
06223,4.967510,-6.535672,7.012739,-12.238861,3.663856,-0.497098
06224,2.320134,-14.469936,3.349071,-10.269112,4.089668,-0.258935
06225,0.698852,-21.584037,1.685977,-7.619187,3.808469,-0.035022
06226,0.191121,-28.077553,0.647757,-3.598203,3.593521,0.138713
06227,-1.781933,-27.932817,-0.209159,1.021592,3.125896,0.244264
06228,-2.942105,-22.694740,-1.616197,4.679061,2.257455,0.224894
06229,-3.244758,-16.578341,-2.903641,7.329360,1.640851,0.028759
06230,-3.514964,-11.991926,-4.232508,8.901187,1.218062,-0.185654
06231,-4.006986,-8.714771,-5.752538,9.855059,0.676467,-0.327901
06232,-3.939345,-5.286252,-6.144696,10.286380,-0.063597,-0.462578
06233,-3.338306,-2.503382,-5.219075,9.901164,-0.782792,-0.667434
06234,-2.134096,-0.132247,-3.124273,8.863295,-1.415774,-0.850151
06235,0.067692,3.545482,0.775169,6.742199,-1.979803,-0.945233
06236,3.577814,7.953573,5.118406,3.303328,-2.059514,-0.967340
06237,5.996620,10.911121,7.787741,-0.691478,-1.329292,-0.940009
06238,6.245743,11.477694,9.459743,-4.181739,-0.291517,-1.011546
06239,6.472389,10.078584,11.627684,-7.356205,0.604434,-1.153068
06240,7.300105,7.933816,13.485912,-10.127890,1.699562,-1.313317
06241,5.063411,3.584903,12.542536,-12.963504,2.884504,-1.494025
06242,1.667450,-7.622068,5.146030,-14.238651,3.471837,-1.660620
06243,-0.167818,-18.747483,0.731554,-11.921815,3.653212,-1.479902
06244,-1.075969,-26.924710,0.247643,-8.276608,3.504505,-0.964086
06245,-1.425095,-33.273697,0.041462,-3.677371,3.229409,-0.610605
06246,-1.440313,-30.943811,-0.040263,1.394259,2.716260,-0.442674
06247,-1.207612,-22.858559,-0.833436,5.215943,2.050168,-0.404826
06248,-1.262356,-15.313288,-2.536773,7.471563,1.531142,-0.550069
06249,-2.089309,-11.201509,-4.887885,8.649171,0.997760,-0.738882
06250,-2.298672,-8.493943,-6.433642,9.497801,0.274598,-0.878932
06251,-2.039585,-5.232131,-6.442800,9.801374,-0.510994,-1.022539
06252,-1.630247,-1.982613,-4.345190,9.304455,-1.284827,-1.184569
06253,-0.617390,1.141027,-1.210563,7.680159,-2.069328,-1.299094
06254,1.522282,4.893715,1.726733,4.995752,-2.597907,-1.430012
06255,5.142179,9.032641,4.581800,1.808099,-2.367665,-1.644619
06256,7.209757,11.040713,7.253415,-1.589489,-1.366470,-1.759387
06257,6.619179,9.258980,9.009549,-4.860969,-0.384299,-1.827681
06258,6.492290,5.783269,11.028169,-7.334727,0.361217,-1.937906
06259,7.807410,3.543733,13.144253,-9.395147,1.235438,-2.058203
06260,7.232243,0.632519,12.232378,-11.640895,2.484935,-2.054660
06261,3.816734,-8.588403,5.999361,-13.081975,3.337510,-1.973946
06262,1.568914,-20.258710,1.073129,-11.264473,3.441480,-1.827949
06263,2.642477,-26.894020,0.478565,-7.688727,3.109951,-1.334544
06264,3.802124,-32.688665,-0.368676,-3.979284,2.673393,-0.849314
06265,1.949240,-32.460056,-1.147024,0.924826,2.315855,-0.672271
06266,-0.475306,-22.883486,-1.803553,4.854483,1.745710,-0.668933
06267,-1.401340,-15.907796,-3.863923,6.931868,1.132723,-0.749765
06268,-1.396907,-12.593498,-5.464002,8.079053,0.508606,-0.693807
06269,-0.933796,-10.446493,-6.296579,8.674068,-0.183706,-0.502540
06270,-0.347372,-8.459426,-5.825472,9.093534,-0.797069,-0.385968
06271,1.004595,-5.554812,-2.916430,9.033125,-1.315486,-0.398698
06272,3.452790,-0.820143,2.331576,7.549500,-1.737868,-0.444232
06273,6.175698,5.599334,7.353321,4.559308,-1.707361,-0.747056
06274,7.695010,10.482721,9.340487,1.043294,-0.978892,-1.219443
06275,6.681683,10.700524,11.900696,-2.384414,0.027635,-1.583273
06276,7.631108,7.268511,14.437224,-5.933817,0.986628,-1.612054
06277,6.792893,3.157443,13.814780,-8.563882,2.200026,-1.414719
06278,2.198540,-2.059076,8.077388,-10.026603,2.887316,-1.123180
06279,-0.743328,-11.803542,3.777906,-10.139563,2.832015,-1.000698
06280,1.399797,-19.707528,2.414629,-8.045437,2.077925,-0.540758
06281,4.825976,-23.859641,2.276594,-5.238805,1.689841,0.017611
06282,5.581384,-26.299494,1.792418,-1.762083,1.791130,0.021661
06283,2.732487,-22.876815,0.525974,2.074328,1.920879,-0.257968
06284,-0.340131,-16.342634,-2.103580,4.854336,1.454964,-0.429813
06285,-1.890420,-12.606602,-4.622191,6.837855,0.749416,-0.547187
06286,-1.154187,-10.088564,-3.994427,8.206722,-0.050557,-0.494460
06287,0.969696,-7.073463,-1.149151,8.427335,-0.567505,-0.273711
06288,2.307274,-3.095020,3.166953,7.640684,-0.625223,-0.138451
06289,3.125348,2.249593,7.951872,5.734021,-0.492260,-0.263697
06290,4.208326,7.178151,11.639693,2.449232,-0.280641,-0.589650
06291,5.217144,8.453783,11.610091,-1.191534,0.195156,-0.841135
06292,5.981796,5.259779,9.515994,-3.709623,0.760218,-0.989262
06293,5.987866,-0.132464,8.399524,-4.842114,1.305917,-0.860316
06294,5.458295,-5.205466,9.826823,-5.250867,1.657916,-0.575113
06295,5.251674,-11.960430,9.278340,-4.874608,1.828320,-0.424709
06296,5.486084,-18.774656,6.323972,-2.778236,1.884697,-0.336090
06297,3.414414,-20.441265,4.526075,0.736259,2.021551,-0.395010
06298,-0.774226,-16.740168,2.821365,3.832304,1.787200,-0.568191
06299,-3.557879,-11.949208,0.132232,6.104485,1.014404,-0.578047
06300,-4.383846,-9.296487,-1.899524,7.028814,0.011932,-0.292388
06301,-4.288597,-8.648485,-4.109255,6.530348,-1.313502,0.189829
06302,-1.816293,-7.068711,-5.600678,5.357978,-2.599736,0.563305
06303,2.566486,-4.329127,-2.996703,4.362790,-2.857846,0.751692
06304,6.552853,-1.367077,2.775348,2.923101,-2.371464,0.795483
06305,8.564246,0.701603,8.645707,1.112294,-1.506194,0.819135
06306,8.211881,2.432578,12.982471,-1.013551,-0.612996,0.775830
06307,6.745801,2.446222,13.827494,-3.217809,0.143740,0.733837
06308,3.109210,-0.264739,11.471299,-4.805613,0.445054,0.835964
06309,1.186039,-3.921974,9.394003,-5.391061,0.279364,0.889462
06310,2.217895,-7.473810,9.263925,-5.517701,0.086654,1.004981
06311,3.457437,-11.099152,8.899443,-5.174000,0.107146,1.076482
06312,3.503245,-13.583986,7.836190,-3.814759,0.231698,0.992579
06313,2.527184,-14.478073,7.026650,-1.937751,0.247661,0.810778
06314,1.918501,-15.348487,6.765829,-0.011849,0.013334,0.603938
06315,2.207922,-14.619276,6.431862,1.950402,-0.220484,0.459433
06316,1.232431,-11.146803,5.072497,3.602609,-0.469129,0.395637
06317,0.390515,-7.510686,3.467606,4.640793,-0.828899,0.366122
06318,0.520609,-5.372453,2.843326,5.067056,-1.156226,0.356866
06319,1.137512,-3.761290,3.074030,4.869836,-1.356061,0.381557
06320,1.787964,-2.776537,3.420734,4.193009,-1.447505,0.435900
06321,2.809571,-2.112379,4.182860,3.256384,-1.484068,0.471635
06322,3.610619,-1.586640,4.729789,2.078435,-1.446013,0.541633
06323,4.087776,-1.361729,4.900676,0.713828,-1.384921,0.661328
06324,4.221946,-2.118554,4.649218,-0.641543,-1.306206,0.793316
06325,4.023358,-2.944557,4.763865,-1.686765,-1.203415,0.926583
06326,3.956375,-3.877764,6.091084,-2.670034,-1.058198,1.053502
06327,3.858939,-5.358732,8.136553,-3.583507,-0.895954,1.196540
06328,3.993443,-7.329788,9.977476,-4.282371,-0.675026,1.353732
06329,3.782720,-9.622483,11.687708,-4.553638,-0.316285,1.493181
06330,3.128551,-11.546183,12.085818,-4.363033,-0.036361,1.652382
06331,2.641082,-12.880952,11.896632,-3.760103,0.155654,1.789112
06332,2.608050,-14.026263,11.388214,-2.991994,0.285169,1.871421
06333,3.128617,-15.328168,10.893517,-1.997972,0.354156,1.969650
06334,3.885682,-16.436138,9.880047,-0.760305,0.418564,2.065574
06335,3.666540,-16.499709,8.365300,0.725208,0.444217,2.149981
06336,2.807145,-14.950237,6.556275,2.205410,0.316051,2.181956
06337,1.839661,-12.385498,4.773041,3.487858,0.120032,2.173481
06338,0.852794,-10.024160,2.553025,4.376692,-0.107714,2.127829
06339,-0.047847,-7.777055,0.240196,4.996079,-0.412475,2.025786
06340,-0.177769,-5.266751,-1.167620,5.287872,-0.789429,1.883384
06341,0.271992,-2.606955,-1.556131,5.140603,-1.130245,1.730449
06342,1.108636,-0.294359,-0.848212,4.515619,-1.359682,1.588194
06343,2.124755,1.490192,0.635337,3.494746,-1.437635,1.484407
06344,3.052549,2.878292,2.615385,2.056323,-1.382698,1.469924
06345,3.711575,3.686281,4.708915,0.213729,-1.211337,1.557235
06346,3.643333,3.576545,6.564492,-1.811040,-1.030791,1.718891
06347,2.950995,2.740937,7.904190,-3.667694,-0.856901,1.810881
06348,2.135760,1.519435,8.907706,-5.264788,-0.665548,1.831914
06349,1.477593,-0.409982,9.871336,-6.701473,-0.529680,1.794871
06350,1.487602,-3.731931,10.203207,-7.765318,-0.388071,1.722323
06351,2.060482,-8.201574,9.723459,-8.047605,-0.187884,1.622034
06352,3.025430,-13.589931,8.843335,-7.445324,0.129690,1.529427
06353,2.845202,-19.005477,7.813890,-5.870169,0.324859,1.445742
06354,2.298571,-22.084383,6.906071,-3.234898,0.263206,1.361565
06355,1.529102,-22.023495,6.251621,-0.375856,0.090567,1.312625
06356,0.087257,-19.924278,4.237384,2.296350,-0.228780,1.326683
06357,-1.509520,-16.326591,1.306844,4.340404,-0.719449,1.370065
06358,-2.479651,-13.030129,-1.312630,5.760289,-1.273960,1.386467
06359,-2.727548,-10.242888,-3.390847,6.742212,-1.733478,1.363214
06360,-2.714625,-7.916872,-5.615288,7.289736,-2.107381,1.358406
06361,-2.978349,-5.296580,-7.675440,7.335815,-2.545543,1.344250
06362,-3.005673,-2.357549,-7.965235,6.868072,-3.127657,1.171094
06363,-1.476413,1.470645,-5.469932,5.917926,-3.813699,0.704904
06364,1.410842,5.845319,-1.883904,3.901009,-4.141120,0.291504
06365,2.881689,8.660763,0.123374,1.139685,-3.862676,0.448682
06366,3.424746,9.488759,2.717910,-1.927886,-3.602176,0.770133
06367,4.993755,8.463491,7.135861,-4.772454,-3.433682,1.077627
06368,6.501149,6.403876,11.896071,-7.267493,-2.935984,1.310400
06369,6.632413,4.841020,16.596725,-9.334767,-1.983195,1.278590
06370,7.132428,0.158946,18.231874,-11.809499,-0.727227,0.982312
06371,5.593777,-11.987011,11.407012,-12.413326,0.454237,0.960554
06372,2.523077,-21.770374,6.146456,-9.322648,0.874229,0.608796
06373,2.486931,-25.896418,6.064192,-5.970868,0.789288,0.182697
06374,2.856748,-29.826522,5.419036,-2.963755,0.424046,-0.195193
06375,2.791524,-29.601926,3.275328,0.532916,-0.006402,-0.325727
06376,2.244739,-24.144050,1.157043,3.820265,-0.386815,-0.262391
06377,1.109182,-18.712198,-0.238783,6.116736,-0.679208,-0.139293
06378,-0.040353,-15.056693,-1.056340,7.431436,-0.968783,0.011386
06379,-0.922712,-12.088354,-2.302140,8.079158,-1.285469,0.152332
06380,-1.910205,-9.004257,-3.558412,8.359011,-1.611263,0.249337
06381,-2.918313,-5.495823,-4.555590,8.070599,-2.001868,0.289231
06382,-2.889500,-2.270352,-5.478454,6.946224,-2.506800,0.281105
06383,-1.251968,1.270342,-4.951913,5.345115,-2.859684,0.310915
06384,1.226714,4.552405,-2.402371,3.306899,-2.928047,0.472484
06385,3.662649,6.035297,1.154456,0.920413,-2.747999,0.782637
06386,4.739693,5.289482,4.341140,-1.656555,-2.488218,1.145575
06387,5.350633,2.720316,6.449721,-4.169199,-2.309775,1.437230
06388,5.989893,-0.381964,8.586295,-6.238952,-2.023080,1.594725
06389,6.626409,-3.328191,11.213312,-7.867452,-1.528247,1.573451
06390,6.977259,-7.302256,11.982755,-8.846063,-0.785908,1.408795
06391,6.388576,-12.923124,10.357210,-8.376863,-0.101842,1.231365
06392,4.967825,-18.903705,8.878294,-6.544383,0.232424,1.100548
06393,3.693683,-23.592332,7.808570,-3.965742,0.236697,0.920607
06394,3.036001,-26.235232,6.509264,-1.180652,-0.085011,0.716121
06395,3.029295,-25.333677,4.442829,1.989921,-0.464692,0.590509
06396,2.953223,-20.259406,3.102655,4.738925,-0.708352,0.553988
06397,2.628272,-16.220511,1.449291,6.536751,-0.871100,0.586353
06398,1.746802,-12.462062,0.617811,7.727254,-0.998617,0.600307
06399,0.961987,-8.683325,0.295593,7.994667,-1.131872,0.567759
06400,0.760900,-5.466763,-0.142125,7.518648,-1.116178,0.469840
06401,0.496786,-2.717708,-1.030079,6.458700,-1.055058,0.374010
06402,0.191811,0.552582,-1.621110,4.931979,-1.053549,0.348802
06403,-0.339895,3.607812,-1.338378,3.053695,-1.204239,0.461227
06404,-0.781488,5.368800,-0.454851,1.083739,-1.586588,0.627934
06405,-0.694070,4.856702,0.488393,-0.866264,-2.056607,0.756992
06406,0.472315,2.761734,1.050741,-2.389848,-2.405200,0.775518
06407,2.307790,0.209297,2.713260,-3.693090,-2.403070,0.759926
06408,3.759622,-3.362806,4.594344,-4.858431,-2.166745,0.753645
06409,5.135163,-7.069950,7.384831,-5.673287,-1.959133,0.759013
06410,7.073653,-10.635092,11.685795,-5.987789,-1.557471,0.726745
06411,7.894434,-14.795422,12.737224,-5.102726,-0.832356,0.603668
06412,7.057966,-18.306567,11.076830,-3.156546,-0.339908,0.522161
06413,5.969635,-20.243704,8.601514,-0.934136,-0.311304,0.434679
06414,4.974510,-18.419227,6.733287,1.171897,-0.504460,0.292451
06415,4.440263,-14.097208,6.117511,2.455381,-0.764936,0.157180
06416,4.251160,-11.273940,5.419720,3.111262,-0.812659,0.062417
06417,3.850022,-9.442180,5.218516,3.456923,-0.630574,0.016959
06418,3.275440,-8.187053,5.376602,3.430158,-0.360018,0.061479
06419,2.841159,-7.697272,5.278483,3.166706,-0.061504,0.222483
06420,2.384165,-8.361516,4.681270,2.838145,0.149743,0.468273
06421,2.173444,-8.521057,3.763829,2.370670,0.203349,0.657799
06422,2.278401,-8.640246,2.320770,1.670285,0.172770,0.733534
06423,1.687535,-7.442901,0.466923,1.393568,-0.075126,0.756858
06424,1.696519,-4.715967,0.837493,1.463425,-0.476232,0.675008
06425,1.543715,-2.724943,2.291729,1.333954,-0.822965,0.587511
06426,1.836181,-2.073833,3.470678,0.996329,-1.161726,0.461890
06427,2.233430,-2.103133,3.860022,0.779882,-1.267548,0.339803
06428,1.980390,-2.562799,4.637540,0.627516,-1.314604,0.266767
06429,2.541882,-3.547210,5.258008,0.439624,-1.444243,0.330749
06430,4.162552,-4.163850,7.834959,-0.003998,-1.544296,0.605337
06431,5.316305,-3.806215,11.725057,-1.168968,-1.280695,0.794556
06432,5.040313,-3.924233,12.122045,-1.564480,-0.659372,0.590762
06433,3.992842,-5.721405,9.921232,-1.127049,-0.075080,0.034231
06434,4.426443,-7.216174,9.311264,-0.481695,0.015153,-0.481477
06435,5.522970,-6.856309,10.920718,-0.032449,0.254557,-0.869587
06436,4.736890,-6.037400,10.152750,0.491098,0.570494,-1.146675
06437,3.724529,-4.064280,8.644011,0.758652,0.692337,-1.363335
06438,3.810013,-2.707973,7.534169,0.578272,0.754240,-1.536121
06439,4.279944,-2.217553,7.440299,0.427882,0.904269,-1.739662
06440,4.302955,-2.097437,6.782337,0.200177,1.031191,-1.957663
06441,4.167310,-2.299562,5.043347,-0.041643,1.027761,-2.140585
06442,4.057830,-1.591328,3.293848,-0.185963,0.895249,-2.280810
06443,4.161182,-0.416152,2.768608,-0.674636,0.732691,-2.447559
06444,4.849820,-0.761550,2.854741,-1.454890,0.606943,-2.511965
06445,5.463030,-2.018329,3.457499,-2.303669,0.609443,-2.448968
06446,5.942044,-4.817058,3.613282,-3.108224,0.681936,-2.274187
06447,6.253798,-8.226674,4.388023,-3.549459,0.762350,-2.005750
06448,6.338480,-10.853404,5.514513,-3.582293,0.858669,-1.743522
06449,5.657576,-12.649984,6.049744,-3.176577,1.003083,-1.611665
06450,4.616719,-13.568566,5.688888,-2.281761,1.055796,-1.625204
06451,3.581373,-13.403192,5.536729,-1.181870,0.997294,-1.695773
06452,2.938628,-12.321164,5.623916,-0.096533,0.866534,-1.786748
06453,3.020905,-10.824320,5.809439,0.787594,0.745879,-1.901549
06454,3.368770,-9.657867,5.426439,1.387920,0.620570,-2.016930
06455,3.805093,-8.421715,4.273881,1.890645,0.498406,-2.115848
06456,4.340077,-6.634299,3.786294,2.314058,0.419479,-2.157562
06457,4.595968,-4.969133,3.722057,2.391801,0.373358,-2.176851
06458,4.506852,-3.451358,3.634743,2.198970,0.307099,-2.197299
06459,3.890307,-2.355753,2.990235,1.836657,0.155953,-2.227302
06460,3.380247,-1.616486,2.298333,1.498746,-0.111003,-2.259499
06461,3.684117,-1.147365,2.804219,0.956433,-0.367951,-2.263852
06462,4.580121,-1.524336,3.570336,0.259693,-0.510893,-2.251780
06463,5.449979,-1.570311,4.796351,-0.415954,-0.540760,-2.240345
06464,5.863250,-1.608241,5.544730,-1.058135,-0.360797,-2.297625
06465,5.944521,-2.419059,6.340204,-1.638601,-0.227433,-2.380514
06466,7.012811,-3.530658,7.746788,-2.068862,-0.009057,-2.494644
06467,8.243127,-5.120048,8.118525,-2.183357,0.205675,-2.620436
06468,10.133499,-6.139130,8.614801,-1.906953,0.405691,-2.690494
06469,11.859874,-6.532842,9.014956,-1.507256,0.625556,-2.712937
06470,12.507408,-6.863426,8.684570,-1.132484,0.810561,-2.736308
06471,11.943180,-7.807148,7.423775,-0.659104,0.927294,-2.759728
06472,10.711019,-8.297007,6.282284,-0.004088,0.966887,-2.776751
06473,9.416719,-8.218653,5.087998,0.614542,0.895893,-2.717655
06474,8.331538,-7.689130,3.867288,1.116151,0.759719,-2.596347
06475,7.490276,-6.824543,2.964039,1.441523,0.579265,-2.412922
06476,6.993165,-5.804777,2.420633,1.550595,0.363337,-2.208892
06477,6.471250,-4.688667,1.571416,1.488729,0.093998,-2.012940
06478,5.835151,-3.710051,0.389066,1.222733,-0.224385,-1.868657
06479,4.917593,-2.310814,-0.139490,0.778759,-0.577855,-1.799706
06480,4.556414,-0.096181,0.939451,0.171800,-0.862534,-1.834270
06481,4.634715,0.974542,0.716953,-0.703746,-1.094755,-1.865434
06482,6.110884,1.140978,1.758909,-1.601485,-1.409854,-1.794867
06483,9.304204,0.539902,4.433010,-2.450181,-1.326946,-1.612819
06484,11.028468,-0.898946,5.940619,-3.008553,-0.830589,-1.370175
06485,11.655529,-1.850253,8.502766,-3.317045,-0.343714,-1.207135
06486,11.830089,-3.115628,10.449272,-3.599529,0.114933,-1.137951
06487,11.602876,-4.689371,11.017653,-3.466912,0.495910,-1.170750
06488,11.039609,-6.387487,10.486901,-2.938985,0.854375,-1.206582
06489,9.653075,-7.941856,8.522385,-2.002436,1.038129,-1.172769
06490,8.890305,-8.633794,7.424366,-0.823009,0.963929,-1.164849
06491,9.096145,-9.071312,6.913557,0.235244,0.756070,-1.129944
06492,9.048339,-8.871428,6.533595,1.288512,0.550484,-1.088801
06493,7.857986,-8.195418,4.687740,2.136219,0.249191,-1.029703
06494,6.307998,-7.384188,1.889523,2.914710,-0.132165,-0.997601
06495,5.411669,-5.793775,0.519084,3.479038,-0.467977,-0.986703
06496,5.147512,-3.741831,-0.392916,3.653681,-0.742010,-0.968960
06497,5.491816,-1.530945,-1.016238,3.669534,-0.960388,-0.974559
06498,5.820717,0.663865,-1.183097,3.419011,-1.139672,-0.973866
06499,6.092933,2.271272,-0.880919,2.774537,-1.334362,-0.955910
06500,6.522411,3.451262,-0.349656,1.905372,-1.465494,-0.894252
06501,6.829327,3.923864,0.921465,0.894191,-1.563636,-0.779056
06502,7.756077,3.718177,3.165543,-0.136344,-1.600415,-0.644347
06503,9.140824,3.366888,5.571693,-1.119079,-1.422429,-0.486840
06504,9.949569,2.682399,7.187879,-2.139832,-1.165819,-0.313666
06505,10.713386,1.391240,8.461778,-2.887421,-0.874630,-0.170703
06506,11.261275,-0.416833,8.943111,-3.232451,-0.502983,-0.088290
06507,11.524508,-2.601963,8.537521,-3.130782,-0.220245,-0.100085
06508,11.372324,-4.693994,8.517635,-2.353241,0.068619,-0.294416
06509,10.451877,-5.841140,8.976856,-1.209606,0.220510,-0.567612
06510,10.104047,-5.612457,9.773499,0.133093,0.177865,-0.785714
06511,9.819208,-4.916655,8.997926,1.021731,0.071689,-0.833048
06512,9.100720,-4.624712,7.433079,1.837982,-0.232211,-0.845285
06513,8.392234,-4.381824,3.617804,2.236185,-0.693225,-0.850911
06514,8.030690,-3.964332,-0.661122,2.896246,-0.875087,-0.923656
06515,6.788051,-2.001163,-1.178459,3.542274,-0.861449,-0.971875
06516,6.304796,-0.432941,-1.613876,3.564849,-1.116835,-0.961478
06517,7.014692,0.799824,-0.937028,3.397921,-1.310463,-0.865759
06518,7.696097,1.649269,-0.682998,2.769558,-1.402832,-0.636382
06519,7.699099,1.973510,-0.624268,2.002499,-1.351476,-0.353722
06520,6.862083,2.641064,-0.779701,1.282735,-1.359908,-0.119873
06521,6.523693,3.216033,-0.177771,0.600410,-1.490662,0.006564
06522,7.431968,3.680940,1.347518,-0.096438,-1.588718,0.061021
06523,9.203588,3.484323,3.544506,-0.720999,-1.560764,0.109556
06524,11.474439,3.023894,6.380157,-1.200903,-1.322460,0.208252
06525,12.916397,1.933373,8.214827,-1.839455,-0.898784,0.374256
06526,13.043071,-0.059035,7.973079,-2.081994,-0.527387,0.507542
06527,12.731991,-1.821235,7.301955,-1.692649,-0.267227,0.453815
06528,12.639195,-2.869623,7.610524,-0.780053,-0.060355,0.191694
06529,11.412616,-1.961962,7.428120,0.212045,0.080911,-0.157726
06530,11.041790,-0.008840,6.955185,0.941344,0.086563,-0.469275
06531,10.787054,2.104353,7.464483,1.227336,0.244842,-0.720278
06532,11.226336,1.497692,7.495114,0.491624,0.192638,-0.827772
06533,11.384862,-1.994342,5.110646,0.051830,0.194517,-0.654687
06534,9.620068,-3.888637,0.553316,0.227856,0.017523,-0.372087
06535,7.640500,-3.985115,-3.263109,0.856826,-0.229660,-0.204439
06536,6.367712,-2.543954,-2.924362,1.600567,-0.401850,-0.119629
06537,6.163718,-0.377489,-2.067036,1.754943,-0.735614,-0.062923
06538,6.776630,0.692416,-1.831221,1.526908,-0.921736,0.041514
06539,7.221413,1.365055,-0.517722,1.154393,-0.975251,0.215243
06540,7.836756,1.681007,0.287364,0.639182,-0.999318,0.431000
06541,8.530098,1.571964,1.236820,0.188149,-1.006223,0.650388
06542,9.506755,1.575984,2.483091,-0.216369,-0.936991,0.821491
06543,10.287321,1.490401,3.857911,-0.424241,-0.789911,0.860983
06544,11.092246,1.684570,5.389446,-0.532379,-0.596484,0.807528
06545,10.955895,1.568563,5.382842,-0.821734,-0.388697,0.744716
06546,10.643881,0.648138,4.020393,-0.762531,-0.373024,0.615246
06547,10.916531,-0.165060,2.959449,-0.310141,-0.515998,0.429583
06548,11.206155,-0.655771,2.707508,0.029808,-0.672865,0.254373
06549,11.708845,-1.417981,3.203266,0.169657,-0.714986,0.122640
06550,11.201096,-1.486207,3.032308,0.275135,-0.697125,0.064324
06551,10.266321,-1.752228,1.301735,0.419450,-0.611177,0.093103
06552,8.810070,-1.595763,0.166905,0.647087,-0.595224,0.164692
06553,8.142944,-1.544807,-0.738934,0.700990,-0.688296,0.289392
06554,7.901158,-1.609982,-0.521644,0.925549,-0.807951,0.412999
06555,8.184054,-1.725743,-0.199122,0.933129,-0.882005,0.558569
06556,8.089782,-1.639569,-0.035775,1.006552,-0.913480,0.705231
06557,8.152905,-1.166472,0.413206,1.102383,-0.979312,0.813081
06558,8.390801,-0.381160,0.843904,1.154713,-1.004519,0.876769
06559,8.871419,0.202775,1.254121,1.030204,-1.042775,0.901048
06560,9.579528,0.313332,1.044826,0.902464,-1.005988,0.937842
06561,10.389966,0.789381,1.658481,1.049580,-0.944896,0.901105
06562,11.389102,1.916335,2.793267,1.056933,-0.791020,0.766751
06563,12.021398,2.867056,3.826672,0.867149,-0.603884,0.585952
06564,12.230762,3.693312,4.024092,0.566004,-0.407380,0.370241
06565,12.081237,4.024667,3.457816,0.220850,-0.287378,0.175938
06566,11.901952,3.473018,2.454382,-0.081913,-0.262763,0.015708
06567,11.615942,2.452873,1.736108,-0.202640,-0.233285,-0.125073
06568,11.284722,1.785423,1.272959,-0.239379,-0.193380,-0.252774
06569,10.869430,1.372914,1.082305,-0.229392,-0.162586,-0.332152
06570,10.579748,1.133482,1.064613,-0.239759,-0.129901,-0.379897
06571,10.321046,0.869319,0.882195,-0.290632,-0.093929,-0.386845
06572,10.007944,0.540185,0.637021,-0.432571,-0.090163,-0.385801
06573,9.851373,-0.168732,0.471043,-0.599249,-0.072888,-0.354070
06574,9.542419,-0.845470,0.012225,-0.588385,-0.043566,-0.269015
06575,9.310090,-1.022614,0.029324,-0.505574,-0.060258,-0.198802
06576,9.369589,-0.936759,0.256042,-0.477048,-0.076296,-0.135387
06577,9.456164,-0.800069,0.450072,-0.432386,-0.057041,-0.069910
06578,9.568785,-0.606506,0.638462,-0.360401,-0.025062,-0.032975
06579,9.665711,-0.510627,0.795904,-0.323257,-0.012367,0.002475
06580,9.823556,-0.449421,0.790058,-0.312667,0.011769,0.027737
06581,9.872634,-0.508687,0.826193,-0.271687,0.033158,0.040656
06582,9.932575,-0.667849,0.730925,-0.239236,0.036306,0.054078
06583,9.960592,-0.745836,0.721064,-0.145235,0.046155,0.067712
06584,10.080908,-0.599134,0.706237,-0.140364,0.049709,0.058719
06585,9.984541,-0.635753,0.613788,-0.140854,0.085480,0.065780
06586,9.870809,-0.563502,0.580337,-0.073630,0.091024,0.079528
06587,9.820200,-0.318885,0.622482,-0.020043,0.076822,0.073206
06588,9.852914,-0.079385,0.742668,-0.019387,0.073895,0.062404
06589,9.906209,0.109327,0.822192,-0.033922,0.075453,0.048390
06590,10.031103,0.185823,0.848069,-0.090031,0.075398,0.033313
06591,10.065842,0.027752,0.807512,-0.153904,0.103353,0.028984
06592,9.999583,-0.079717,0.681499,-0.178831,0.100608,0.042226
06593,9.972772,-0.083183,0.763743,-0.192905,0.094483,0.026948
06594,9.961810,-0.060680,0.792861,-0.202264,0.081353,0.008705
06595,9.935942,0.066109,0.831180,-0.205738,0.083961,-0.021037
06596,9.937203,0.128244,0.880854,-0.226710,0.085710,-0.046422
06597,9.930963,0.144697,0.814216,-0.247145,0.096245,-0.074003
06598,9.973931,0.172923,0.848992,-0.281519,0.110616,-0.102660
06599,9.937069,0.205208,0.757704,-0.325520,0.123934,-0.135475
06600,9.887706,0.141808,0.753262,-0.415356,0.129442,-0.167203
06601,9.931939,-0.146289,0.757216,-0.494330,0.140955,-0.190705
06602,9.974712,-0.489140,0.740093,-0.590951,0.130978,-0.219627
06603,9.941831,-1.149593,0.576619,-0.650649,0.146331,-0.189593
06604,9.661315,-1.724518,0.454996,-0.546863,0.144060,-0.113397
06605,9.364820,-1.826493,0.375899,-0.400477,0.083520,-0.046289
06606,9.312078,-1.696116,0.309028,-0.275306,0.003496,0.006432
06607,9.296993,-1.479891,0.405108,-0.153628,-0.045581,0.033819
06608,9.375854,-1.303037,0.533506,-0.056296,-0.078371,0.066421
06609,9.439326,-1.087862,0.606960,0.022040,-0.097110,0.082752
06610,9.596161,-0.969559,0.669817,0.071515,-0.098425,0.100559
06611,9.637616,-0.894939,0.779121,0.093681,-0.089059,0.110936
06612,9.760467,-0.821822,0.820648,0.106404,-0.075484,0.111439
06613,9.835511,-0.762687,0.911165,0.108255,-0.056597,0.107445
06614,9.890006,-0.647018,0.874145,0.112874,-0.034253,0.096137
06615,9.854332,-0.566948,0.837148,0.120329,-0.019644,0.074157
06616,9.832243,-0.453087,0.798310,0.108635,-0.019776,0.053260
06617,9.895860,-0.421179,0.870860,0.101765,-0.015959,0.026995
06618,9.871890,-0.428559,0.894639,0.105914,0.004439,0.002722
06619,9.850646,-0.438595,0.871129,0.107773,0.008080,-0.017491
06620,9.841493,-0.412747,0.869870,0.109063,0.014108,-0.032290
06621,9.854824,-0.437895,0.801982,0.103149,0.017588,-0.047458
06622,9.897216,-0.469970,0.786351,0.099686,0.025060,-0.058921
06623,9.856327,-0.489272,0.716156,0.104567,0.028916,-0.066049
06624,9.833899,-0.491337,0.718858,0.107086,0.021729,-0.065591
06625,9.853951,-0.531286,0.702975,0.116968,0.016800,-0.070244
06626,9.784989,-0.486779,0.795363,0.119127,0.011633,-0.071699
06627,9.794321,-0.438706,0.866755,0.115947,0.006153,-0.079004
06628,9.695206,-0.444486,0.863765,0.113788,0.007138,-0.091982
06629,9.656965,-0.469611,0.916023,0.103644,0.009678,-0.107377
06630,9.591062,-0.553612,0.998230,0.095513,0.008634,-0.133521
06631,9.550920,-0.631540,1.032056,0.089339,0.002816,-0.153824
06632,9.564820,-0.770943,1.026034,0.092328,-0.016189,-0.167481
06633,9.651229,-0.766571,1.055673,0.135857,-0.034298,-0.174713
06634,9.707363,-0.752024,1.055936,0.157979,-0.057490,-0.159308
06635,9.755109,-0.654224,0.920431,0.193299,-0.080225,-0.144811
06636,9.814449,-0.463342,0.846427,0.226308,-0.086529,-0.125581
06637,9.886851,-0.306237,0.701955,0.262658,-0.088787,-0.089768
06638,9.948177,-0.067645,0.619348,0.294286,-0.084144,-0.052705
06639,10.004046,0.239111,0.501621,0.305827,-0.074451,0.004720
06640,10.053990,0.491566,0.438067,0.309216,-0.068208,0.067231
06641,10.043800,0.815796,0.359986,0.289802,-0.053654,0.140554
06642,10.017425,1.049621,0.316785,0.230531,-0.043805,0.214915
06643,9.976144,1.191093,0.286042,0.145934,-0.021922,0.266648
06644,9.941824,1.252185,0.269369,0.036051,0.001018,0.296287
06645,9.869019,1.218902,0.440486,-0.062122,0.028851,0.284280
06646,9.843256,1.073301,0.609616,-0.153090,0.061444,0.241297
06647,9.871335,0.798645,0.803549,-0.234311,0.086138,0.168184
06648,9.875886,0.453433,0.909463,-0.297145,0.102220,0.091375
06649,9.951669,0.003205,0.959516,-0.321083,0.106700,0.005112
06650,10.008747,-0.458066,0.934201,-0.272873,0.096860,-0.066152
06651,10.031788,-0.698389,0.826924,-0.197870,0.079009,-0.124224
06652,10.144756,-0.829533,0.808261,-0.113879,0.063854,-0.154277
06653,10.132596,-0.781833,0.710391,-0.051016,0.058562,-0.156866
06654,10.069627,-0.741413,0.709365,-0.015978,0.063670,-0.136146
06655,9.991969,-0.667836,0.630512,0.014976,0.082883,-0.107142
06656,9.883580,-0.588155,0.525426,0.033137,0.092908,-0.062136
06657,9.778373,-0.523324,0.521080,0.039790,0.099606,-0.015987
06658,9.698425,-0.459689,0.468937,0.037897,0.104683,0.031453
06659,9.656490,-0.429913,0.472193,0.039253,0.104097,0.083058
06660,9.652411,-0.433954,0.530634,0.037738,0.101586,0.130899
06661,9.652040,-0.388086,0.582203,0.036496,0.098515,0.169650
06662,9.617388,-0.389458,0.611889,0.041995,0.090444,0.196293
06663,9.626098,-0.303772,0.582683,0.041115,0.076887,0.209838
06664,9.662158,-0.222466,0.628377,0.042884,0.062711,0.207044
06665,9.677665,-0.152697,0.648338,0.038741,0.051933,0.190735
06666,9.699318,-0.097658,0.719034,0.023524,0.041266,0.175376
06667,9.727205,-0.120530,0.775169,-0.003297,0.039992,0.153153
06668,9.803425,-0.066133,0.849122,-0.038982,0.033551,0.128573
06669,9.828202,-0.142298,0.887324,-0.070398,0.039095,0.105650
