// Start Time: Unknown
// Update Rate: 100.0Hz
// Filter Profile: human (46.1)
// Firmware Version: 4.3.5
PacketCounter,Acc_X,Acc_Y,Acc_Z,Gyr_X,Gyr_Y,Gyr_Z
63525,9.097741,-3.380356,2.572749,0.629174,-0.139857,0.001289
63526,9.117325,-3.255191,2.702231,0.598856,-0.126256,-0.001949
63527,9.099376,-3.219464,2.854198,0.560866,-0.103445,-0.008255
63528,9.025038,-3.266342,2.951965,0.518015,-0.083609,-0.010851
63529,8.939867,-3.400186,3.054289,0.495067,-0.060223,-0.016887
63530,8.942382,-3.534336,3.214485,0.484307,-0.032985,-0.030088
63531,8.952450,-3.559735,3.346170,0.485199,-0.004422,-0.029473
63532,8.968247,-3.541931,3.383562,0.481386,0.031188,-0.026048
63533,9.028254,-3.527267,3.480997,0.465380,0.069693,-0.014241
63534,9.083889,-3.494586,3.552726,0.434634,0.113990,-0.001436
63535,9.196480,-3.629863,3.825067,0.406991,0.179736,0.022698
63536,9.582298,-3.896429,4.475892,0.455462,0.314142,0.033366
63537,10.109368,-3.636851,5.227697,0.480301,0.515178,0.047514
63538,10.651708,-2.786865,6.053019,0.390125,0.822848,0.054440
63539,10.819443,-1.520215,6.444448,0.075292,1.209817,0.047208
63540,9.896788,0.280575,5.449219,-0.637475,1.468360,0.022934
63541,9.066626,1.612092,4.350672,-1.656861,1.602883,-0.001331
63542,8.702413,1.438107,3.393952,-2.821895,1.665835,-0.018938
63543,8.648185,0.057769,2.647704,-3.816815,1.686502,-0.048401
63544,8.587636,-2.099333,2.249403,-4.424103,1.671165,-0.065934
63545,8.329718,-3.985442,1.831970,-4.627425,1.552183,-0.014904
63546,8.095274,-5.041690,1.682091,-4.622024,1.362604,0.118270
63547,7.814543,-6.106622,1.151452,-4.480099,1.142487,0.261290
63548,7.509408,-8.041934,0.610007,-4.017953,0.882909,0.399855
63549,7.478210,-11.187780,0.595241,-2.947683,0.622249,0.496500
63550,8.121849,-14.283400,1.101038,-1.176368,0.379836,0.555751
63551,8.844323,-14.949366,1.976317,0.936918,0.174135,0.626522
63552,9.305962,-12.096524,2.686759,2.731733,0.001669,0.703758
63553,9.592789,-8.394396,2.686861,3.827380,-0.059248,0.781103
63554,9.577247,-5.755552,2.543682,4.331171,-0.018688,0.843890
63555,9.425136,-4.372286,2.820338,4.460665,0.089260,0.868586
63556,9.232506,-3.512528,3.783829,4.375466,0.249951,0.861644
63557,9.211393,-2.246797,4.985643,4.086219,0.459394,0.806074
63558,9.511016,-0.231166,6.079921,3.486734,0.743730,0.710788
63559,8.657786,2.310248,5.641895,2.368230,0.969404,0.573101
63560,7.885738,3.866563,4.331357,0.812339,1.068298,0.465265
63561,7.836242,3.674909,3.409475,-0.814331,1.171528,0.328244
63562,7.906194,1.864424,2.675858,-2.172967,1.265228,0.164518
63563,7.619182,-0.314357,1.982049,-3.071237,1.297498,0.015619
63564,7.456515,-2.035712,1.929243,-3.593492,1.236958,-0.003977
63565,6.973627,-3.633766,1.144034,-3.962996,1.118397,0.051287
63566,6.347639,-6.682051,-0.230628,-3.935425,0.931649,0.177741
63567,5.644112,-11.271978,-1.002373,-3.055749,0.659215,0.251285
63568,5.661854,-15.924031,0.206532,-1.193685,0.326606,0.274906
63569,6.324597,-18.171299,2.760674,1.380984,0.019818,0.301164
63570,6.983303,-15.399049,4.129792,3.704320,-0.292841,0.407748
63571,7.185085,-10.324046,3.742775,5.109634,-0.536828,0.568541
63572,7.288797,-7.617737,3.274153,5.674222,-0.678872,0.811289
63573,7.844580,-7.651793,4.331559,6.039552,-0.694197,0.982694
63574,8.923812,-7.779867,6.413875,6.512624,-0.615044,1.049961
63575,9.554860,-4.969612,9.149555,6.796365,-0.326693,1.041771
63576,8.955937,-0.235685,9.868448,6.283668,0.051591,1.010356
63577,8.022855,3.882802,8.785101,4.842484,0.367442,0.975313
63578,7.735686,5.224656,6.562190,2.661683,0.635796,0.891919
63579,8.082370,3.332136,5.313198,0.396726,0.953518,0.676171
63580,8.496010,1.362268,5.461648,-1.243357,1.205619,0.357160
63581,7.760193,0.184667,5.950199,-2.369177,1.400449,0.182612
63582,7.307678,-0.803643,6.115015,-3.254892,1.469223,0.148606
63583,7.273538,-2.766673,5.626105,-3.874573,1.498235,0.236495
63584,7.238840,-4.423595,5.570949,-4.242394,1.503123,0.352052
63585,7.323799,-6.335911,4.740242,-4.382099,1.465531,0.522745
63586,6.670222,-8.927169,3.410446,-4.142582,1.356745,0.735068
63587,5.636308,-12.146290,2.869519,-3.267248,1.132534,0.952027
63588,5.435775,-15.658329,3.420774,-1.574946,0.830778,1.104913
63589,6.347732,-16.642476,4.883840,0.761168,0.511162,1.160697
63590,7.455800,-13.006301,5.928210,2.830393,0.246924,1.229760
63591,7.804617,-8.232366,6.284541,3.978680,0.158945,1.339629
63592,7.624796,-5.054681,6.454495,4.334157,0.192766,1.426974
63593,7.668666,-3.770371,6.878350,4.260532,0.281683,1.453260
63594,7.287276,-2.234956,8.234640,3.927313,0.475928,1.370676
63595,6.529315,-0.293727,9.175011,3.199499,0.687138,1.262579
63596,6.506279,1.137463,8.952515,2.079600,0.927943,1.132532
63597,6.517893,1.922474,7.470626,0.675573,1.192836,0.935524
63598,6.861409,2.357014,6.657486,-0.748538,1.456220,0.662456
63599,6.701412,2.627451,7.083546,-2.069957,1.792961,0.347364
63600,6.168921,1.875194,6.895413,-3.277823,2.065647,0.102334
63601,6.311566,0.497007,6.214491,-4.349817,2.200934,-0.014776
63602,6.148636,-0.673778,5.077742,-5.338515,2.273116,-0.008155
63603,5.466180,-2.297987,3.157294,-6.306310,2.201374,0.149460
63604,3.176531,-6.011156,-0.312532,-7.046784,1.919494,0.459672
63605,1.598783,-12.472305,-0.683597,-6.674851,1.581151,0.724586
63606,1.300162,-18.882517,1.878595,-4.909561,1.137326,0.764518
63607,2.682267,-22.239867,4.330957,-2.062016,0.645128,0.775341
63608,3.755553,-20.232912,4.832089,0.938896,0.140711,0.890146
63609,4.475692,-14.840221,6.087377,3.189843,-0.219915,1.075123
63610,5.388475,-10.858618,6.845208,4.384601,-0.299491,1.236716
63611,5.877500,-9.097275,6.801903,4.993710,-0.241621,1.354572
63612,5.852000,-7.601723,7.201139,5.253069,-0.144341,1.425799
63613,5.846847,-5.123993,8.020368,5.125246,0.042260,1.420835
63614,5.413150,-2.334786,8.262071,4.489656,0.298851,1.348080
63615,4.674624,-0.131398,7.144408,3.303134,0.553009,1.175922
63616,4.725275,1.599120,6.598865,1.882596,0.843432,0.868386
63617,4.887881,3.047091,7.424073,0.334258,1.195211,0.531108
63618,5.191502,3.856395,8.136118,-1.405599,1.456030,0.307791
63619,5.201536,2.691806,8.077954,-3.174467,1.709501,0.253041
63620,4.880458,0.793820,7.527593,-4.752999,1.867332,0.257723
63621,4.639317,-1.667236,6.018644,-6.063264,1.936041,0.360714
63622,3.697860,-4.639152,3.547949,-6.958735,1.900313,0.519664
63623,1.994883,-8.083159,1.322873,-7.278682,1.684448,0.728648
63624,0.259212,-12.436063,0.079467,-6.748694,1.339020,0.903235
63625,-0.563459,-17.382777,0.747614,-5.117161,0.888913,0.971830
63626,-0.155072,-21.487501,2.271107,-2.460105,0.395423,0.976412
63627,1.527172,-21.815634,3.424303,0.707611,-0.128721,1.028032
63628,2.686211,-17.581515,4.285070,3.401668,-0.509621,1.134604
63629,3.324490,-12.728487,4.965494,5.070755,-0.667594,1.262422
63630,3.714334,-9.856374,5.671305,5.968451,-0.630793,1.376181
63631,3.927341,-7.852528,6.888211,6.419821,-0.457023,1.424624
63632,3.558001,-5.008943,8.274869,6.342507,-0.195596,1.379648
63633,2.845518,-2.302595,8.378932,5.581560,0.094719,1.274073
63634,2.323883,-1.099194,6.881355,4.274174,0.402896,1.120746
63635,2.420777,0.774434,6.365312,2.728998,0.689559,0.818871
63636,2.441599,3.291903,7.434023,1.059668,1.003626,0.418862
63637,2.924296,5.215496,8.734539,-0.871561,1.295621,0.117768
63638,3.259897,4.665792,9.235761,-3.075396,1.627139,0.007771
63639,3.105543,1.802875,8.114336,-5.068996,1.884840,0.020666
63640,2.551688,-1.358796,5.983857,-6.788392,2.018196,0.160033
63641,0.574553,-5.421130,2.092874,-7.987859,1.954249,0.403807
63642,-2.153876,-11.389534,-1.181917,-8.228450,1.623624,0.732636
63643,-4.022826,-18.087696,-0.666839,-6.949827,1.124200,0.874249
63644,-3.010459,-23.950349,2.017499,-4.246176,0.566625,0.963264
63645,-0.895615,-25.741899,3.529109,-0.681724,0.040514,1.092995
63646,-0.157337,-21.650576,4.272334,2.667907,-0.413984,1.301552
63647,-0.213416,-16.279207,4.850218,4.942403,-0.670674,1.515090
63648,0.213373,-13.716062,4.626454,6.375304,-0.727490,1.686176
63649,1.166134,-12.014794,5.545257,7.430265,-0.699775,1.801258
63650,1.645651,-9.004953,7.031132,8.007461,-0.543188,1.849938
63651,1.440467,-5.103518,7.894715,7.827078,-0.301310,1.770228
63652,0.714742,-2.093479,7.722088,6.857726,0.018464,1.622222
63653,0.426132,-0.147315,6.627169,5.414100,0.364109,1.314394
63654,0.805791,2.904624,7.912864,3.822466,0.752970,0.880179
63655,1.018402,6.630447,10.185301,1.864415,1.186331,0.387507
63656,1.348084,8.864216,11.523767,-0.658230,1.649721,0.051898
63657,1.266893,7.728101,10.482370,-3.474000,2.045484,-0.101633
63658,0.199577,3.825602,7.963311,-5.904504,2.299807,-0.136755
63659,-1.358980,-1.604171,4.157636,-7.650265,2.350157,-0.022773
63660,-3.341073,-8.797015,0.413196,-8.236993,2.177217,0.234547
63661,-5.804263,-17.309751,-1.077657,-7.181230,1.788039,0.427088
63662,-5.837404,-25.037640,1.580272,-4.217124,1.186701,0.427058
63663,-4.015661,-27.504542,2.901621,0.117694,0.483469,0.448839
63664,-2.157139,-22.252955,3.734273,4.201433,-0.156460,0.666505
63665,-1.057828,-13.975957,4.558616,6.763851,-0.528188,0.908223
63666,-0.115199,-8.198362,5.034385,7.833486,-0.637709,1.081160
63667,-0.432178,-4.510135,5.956391,7.979966,-0.602052,1.119440
63668,-0.701123,-1.379975,7.810396,7.476683,-0.459501,1.036419
63669,-0.988000,0.544319,9.014295,6.260432,-0.257683,0.948231
63670,-1.181229,0.006118,8.242375,4.682055,0.009100,0.862931
63671,-0.805089,-0.103782,6.977898,3.253497,0.206659,0.619886
63672,-0.190167,3.792030,7.959612,1.936112,0.437793,0.169999
63673,-0.069950,9.249788,8.890368,0.163589,0.714905,-0.421318
63674,-0.340082,12.439018,8.598768,-2.351019,1.045956,-0.902714
63675,-0.436662,10.533488,6.953555,-5.211813,1.284318,-1.177069
63676,-0.653817,5.565591,4.845250,-7.729941,1.400931,-1.256020
63677,-1.071952,-0.985631,2.475529,-9.430202,1.429042,-1.176421
63678,-1.912110,-7.505567,0.507426,-9.895722,1.351048,-1.062848
63679,-3.435481,-14.048394,-0.713168,-9.050547,1.099873,-0.922389
63680,-4.304493,-21.817338,0.344689,-6.565040,0.705228,-0.776624
63681,-3.290873,-28.338956,3.056524,-2.284074,0.260142,-0.707402
63682,-1.038547,-26.857683,4.443965,2.700096,-0.183975,-0.457146
63683,-0.264923,-18.625098,3.980574,6.399938,-0.515568,0.015500
63684,-0.545198,-11.520596,2.900506,8.338421,-0.611383,0.456175
63685,-1.424259,-6.609502,3.062222,9.035240,-0.568168,0.674753
63686,-2.037470,-2.983214,4.572323,8.736724,-0.439027,0.818081
63687,-1.727060,-0.562244,5.778904,7.590943,-0.287004,0.956290
63688,-0.700113,3.129935,5.575946,5.716587,-0.116785,0.997959
63689,-0.142694,8.311015,6.642517,3.157433,0.128456,0.925477
63690,-0.174538,11.641838,7.937297,0.115174,0.407336,0.674523
63691,-0.926702,10.675457,7.641035,-2.824177,0.707110,0.425896
63692,-1.835079,5.378904,6.741723,-5.183079,0.847100,0.304622
63693,-2.344779,-1.077015,5.866153,-6.547289,0.875787,0.267332
63694,-2.764800,-6.085491,4.791462,-7.058349,0.849304,0.279421
63695,-2.768443,-9.345949,3.522359,-6.785686,0.712495,0.367948
63696,-2.805255,-11.611962,2.503522,-5.943616,0.592051,0.515050
63697,-3.235635,-15.429578,2.113157,-4.440605,0.389990,0.714349
63698,-3.167575,-20.402594,2.574173,-1.832904,0.176476,0.872193
63699,-2.909612,-21.855234,2.422191,1.605992,-0.256121,1.102669
63700,-2.429678,-19.262638,0.967248,4.712207,-0.622864,1.490808
63701,-2.686760,-14.623432,1.152396,6.984639,-0.881754,1.803169
63702,-2.388083,-9.964444,2.017915,8.258386,-0.973199,1.967509
63703,-1.816379,-5.740150,3.120804,8.507017,-1.021553,2.141812
63704,-1.524775,-1.284872,5.847927,7.873609,-0.995135,2.382041
63705,-1.330348,4.518602,9.451836,6.438954,-0.806283,2.497414
63706,-1.421616,9.563317,10.565403,4.161694,-0.426505,2.506714
63707,-1.889320,11.678792,9.894574,1.308009,-0.000209,2.491170
63708,-1.999055,8.782447,7.600165,-1.483107,0.311422,2.469273
63709,-1.578995,2.707968,6.389308,-3.189258,0.581927,2.217444
63710,-1.999859,-1.305897,6.693784,-3.661949,0.734980,1.902498
63711,-2.849594,-3.535035,6.428542,-3.435852,0.795545,1.695528
63712,-3.996881,-4.894678,5.491378,-3.000209,0.647367,1.652390
63713,-5.463828,-7.886818,3.807404,-2.450802,0.406849,1.806806
63714,-6.641080,-13.022404,3.411484,-1.290354,-0.041085,2.053824
63715,-5.799013,-17.168948,4.106822,0.727760,-0.620446,2.299933
63716,-3.208513,-18.145414,2.996660,3.281820,-1.229255,2.634369
63717,-0.363656,-13.130586,4.618696,5.456236,-1.771114,3.092937
63718,2.136241,-5.802217,6.912037,6.250414,-2.080356,3.691864
63719,2.870055,-0.840300,9.013186,5.737804,-2.021678,4.389129
63720,2.547906,0.312791,9.916463,4.478893,-1.757762,5.046932
63721,2.235759,-0.381455,9.817833,3.218796,-1.570576,5.528155
63722,2.555253,-0.682299,9.534641,2.278000,-1.441555,5.840378
63723,3.098460,-0.347618,9.165596,1.609705,-1.355787,6.076067
63724,2.965140,1.027936,7.854327,1.072595,-1.349575,6.218334
63725,2.723476,2.638222,6.006742,0.549485,-1.366625,6.162631
63726,1.690219,4.598086,5.322602,0.250826,-1.286153,5.840854
63727,0.239319,7.229155,7.938454,0.144595,-1.019390,5.328880
63728,-1.528440,9.104586,11.544680,0.100386,-0.648293,4.729560
63729,-2.844920,9.386721,13.843495,-0.134381,-0.277934,4.161885
63730,-2.739080,9.307196,14.498209,-0.478600,0.110530,3.627715
63731,-2.189205,9.878764,14.581022,-1.174187,0.475377,3.203870
63732,-1.246077,11.243440,13.862011,-2.515777,0.760074,2.960085
63733,-0.896491,11.737722,12.777482,-4.386056,1.031096,2.877881
63734,-1.235342,9.583828,10.638301,-6.447054,1.186823,2.920066
63735,-2.097389,5.208536,8.108205,-8.085447,1.172970,3.063264
63736,-3.289871,0.519594,5.921561,-9.141223,0.874559,3.281672
63737,-4.178266,-4.082943,4.371638,-9.461379,0.384058,3.529620
63738,-4.683283,-8.208605,3.010210,-8.960335,-0.300433,3.674836
63739,-3.968019,-11.565638,3.793556,-7.671257,-0.988813,3.720847
63740,-2.749949,-16.887388,2.695922,-5.024306,-1.587045,3.627831
63741,-1.061338,-18.541503,2.723765,-1.564052,-2.114018,3.440975
63742,0.795521,-16.616311,3.109279,1.967982,-2.514648,3.390581
63743,1.978394,-13.204220,3.573796,5.122755,-2.687798,3.412906
63744,2.331268,-9.633354,4.044022,7.867231,-2.776358,3.451306
63745,2.984659,-5.306204,4.320112,10.138524,-2.577391,3.518858
63746,2.798465,1.337253,3.983590,11.794023,-2.270115,3.482096
63747,3.004354,10.659355,3.772630,12.656024,-1.939963,3.381686
63748,2.367668,17.852363,6.698935,11.397131,-1.421674,3.317921
63749,0.972814,21.736693,5.786955,9.291794,-0.910067,2.984030
63750,-0.918637,26.923212,9.175566,6.144680,-0.746218,2.745598
63751,0.530749,28.471406,12.521655,1.569238,-0.651983,2.546467
63752,3.068961,23.458008,14.473063,-3.067664,-0.133216,2.312433
63753,3.238786,14.956025,14.630607,-6.361362,0.338870,2.078146
63754,2.290383,8.686677,14.133020,-8.030147,0.610861,1.832167
63755,1.068711,4.992765,13.724050,-8.947757,0.754309,1.711191
63756,1.375768,2.740250,11.209518,-9.501309,0.882270,1.790359
63757,1.870302,0.001255,11.414246,-10.323441,1.040060,2.175339
63758,1.619676,-2.446525,7.887318,-10.640903,1.273097,2.514383
63759,-1.494822,-2.765939,4.361074,-9.683994,1.024090,2.598089
63760,-3.414992,-4.956121,0.133225,-7.609365,0.308452,2.415737
63761,-2.374452,-12.589127,-1.923099,-4.133299,-0.296548,2.099370
63762,-0.577019,-18.777000,-1.262948,0.407206,-0.773035,1.784083
63763,0.129544,-18.046382,0.340599,4.659054,-1.235529,1.720090
63764,-0.365060,-10.559132,3.408560,7.807553,-1.513755,1.677966
63765,-0.007065,-1.770451,5.917975,9.493239,-1.655505,1.548979
63766,1.181935,5.738841,7.369102,10.005743,-1.668928,1.440649
63767,1.592066,13.862051,10.069169,9.282783,-1.597074,1.292866
63768,1.472184,20.991498,12.435993,6.067391,-1.596452,1.292108
63769,1.959161,23.929300,15.090671,1.537629,-1.184084,1.331048
63770,2.110498,20.633256,16.110749,-3.244097,-0.646054,1.248709
63771,2.554695,13.045451,14.164657,-6.837947,-0.203136,1.211976
63772,3.102006,5.618261,13.586226,-8.844146,0.243139,1.262318
63773,3.217892,-0.290421,11.793335,-9.641221,0.428333,1.344887
63774,3.633940,-5.698882,9.713433,-9.102095,0.673465,1.403161
63775,2.900854,-11.104072,5.483312,-6.800452,0.701523,1.254443
63776,2.176033,-15.930652,2.954334,-3.456655,0.538632,1.131012
63777,1.249426,-17.171147,0.200443,0.695967,0.247503,0.938884
63778,0.874153,-11.943321,1.661434,4.356428,-0.223137,0.762211
63779,2.810801,-4.457228,4.029373,6.554560,-0.561530,0.541748
63780,3.814878,1.841119,6.406167,7.459231,-0.563317,0.265662
63781,4.357180,5.911403,8.504485,7.488267,-0.443379,0.051248
63782,4.173549,10.170884,11.173009,6.739556,-0.399453,-0.167630
63783,3.961188,15.182993,14.288325,4.643865,-0.447613,-0.373064
63784,4.856211,21.006215,17.425170,1.040144,-0.378221,-0.529366
63785,6.530016,22.266755,18.087523,-3.521291,0.087303,-0.679597
63786,6.503250,15.224218,14.176676,-7.200867,0.807998,-0.875207
63787,5.092452,6.430951,10.241367,-9.047779,1.223469,-1.018802
63788,3.332257,-0.884428,7.416904,-9.226364,1.370998,-1.112484
63789,3.429825,-8.207766,5.522434,-7.891511,1.433537,-1.185689
63790,1.823914,-15.610498,1.689908,-5.014282,1.414947,-1.470449
63791,-0.182335,-18.989739,0.301938,-1.156672,1.140862,-1.645228
63792,-1.605537,-16.870720,-0.419167,2.807821,0.714495,-1.892404
63793,-1.611088,-10.630968,1.006474,5.913121,0.145526,-2.145548
63794,0.182585,-4.936868,2.815782,7.898411,-0.273860,-2.346748
63795,0.662663,0.382145,4.561238,8.952175,-0.543332,-2.609127
63796,0.767254,4.741312,6.341400,9.044901,-0.799071,-2.719100
63797,0.155577,10.318898,9.271466,7.860860,-1.117886,-2.735235
63798,0.951479,17.032080,14.909885,4.711090,-1.348393,-2.551243
63799,3.093563,19.366286,16.711565,0.342170,-1.054814,-2.470615
63800,4.255406,17.150973,16.311946,-3.800991,-0.402354,-2.450949
63801,3.912663,10.136935,13.873001,-6.649518,0.195818,-2.474459
63802,3.174841,4.272842,10.760955,-7.914641,0.631752,-2.555303
63803,2.530471,1.965935,9.673498,-8.336440,0.761945,-2.593013
63804,3.176674,1.023945,8.965490,-8.519718,0.975980,-2.601410
63805,3.811051,-5.618403,5.965612,-7.827364,1.321567,-2.588124
63806,2.369570,-14.688166,1.929460,-5.658872,1.539013,-2.699308
63807,-0.767850,-20.171896,-0.456333,-1.839411,1.256332,-2.851814
63808,-2.857241,-17.275260,1.219012,2.289612,0.705128,-3.094631
63809,-2.084574,-9.072219,4.090850,5.220979,0.095840,-3.318758
63810,-1.013098,-0.172403,7.403899,6.371845,-0.271998,-3.535968
63811,-0.149066,5.428777,10.563962,5.731612,-0.485375,-3.561585
63812,0.669849,8.966583,12.590426,4.000261,-0.617000,-3.557829
63813,1.982161,11.005171,14.683323,1.316557,-0.538422,-3.455731
63814,3.085854,9.701524,14.704639,-1.594569,-0.236942,-3.353640
63815,3.608686,5.327177,13.197645,-3.862566,0.150260,-3.250016
63816,3.191305,1.493537,11.488576,-5.319763,0.476180,-3.160041
63817,3.506355,-1.057506,9.781916,-6.206556,0.721205,-3.069949
63818,3.778690,-6.568884,7.849059,-6.043728,1.045601,-2.948391
63819,3.211157,-15.272542,4.048536,-4.461522,1.310243,-2.888693
63820,0.622890,-21.042368,1.192616,-1.434950,1.270164,-2.850552
63821,-2.209175,-20.092377,0.674126,2.054875,0.815292,-2.900352
63822,-2.555050,-13.238174,2.531039,4.871864,0.221029,-2.999144
63823,-1.282253,-5.605835,5.543914,6.434718,-0.189267,-3.110558
63824,-0.051408,-0.626175,8.175086,6.972000,-0.390818,-3.167630
63825,0.248136,3.778963,10.124020,6.658622,-0.574012,-3.177971
63826,1.172809,9.481642,13.453780,5.136036,-0.698772,-3.135091
63827,3.356529,14.187608,16.135640,2.278784,-0.567870,-3.017498
63828,5.095420,15.565518,16.751982,-1.401484,-0.081056,-2.927717
63829,5.037969,11.197924,14.485310,-4.544213,0.501685,-2.871524
63830,3.813391,4.685728,11.713166,-6.438706,0.897940,-2.853827
63831,3.989943,-0.010773,10.125593,-7.210418,1.246905,-2.837720
63832,4.295290,-9.258570,6.528800,-6.424575,1.596197,-2.815899
63833,3.250271,-17.119588,3.923961,-4.135670,1.824999,-2.795690
63834,0.409568,-18.612594,3.294577,-0.999308,1.612673,-2.818218
63835,-1.418982,-15.304330,3.472932,2.109126,1.237877,-2.906082
63836,-1.731092,-8.719679,4.886578,4.313256,0.769702,-3.049461
63837,-0.946494,-3.218331,6.531959,5.444253,0.392448,-3.202152
63838,-0.398808,0.032339,7.779114,5.845701,0.172342,-3.319632
63839,-0.554713,3.643951,9.431267,5.592011,-0.035684,-3.407338
63840,0.287497,7.855365,12.782003,4.336227,-0.187361,-3.386078
63841,2.065412,11.228258,15.354803,2.027239,-0.143569,-3.346115
63842,3.943730,12.205280,16.649529,-0.972908,0.227881,-3.244708
63843,5.097921,8.671529,15.333550,-3.743788,0.781842,-3.143284
63844,4.558232,3.558486,12.754898,-5.501986,1.294251,-3.073488
63845,4.075141,0.755139,10.769476,-6.354605,1.587453,-3.015747
63846,4.173266,-2.882466,8.864762,-6.542816,1.985800,-2.922423
63847,3.732212,-9.143660,5.820755,-5.571983,2.402032,-2.868954
63848,1.812709,-16.180639,3.165381,-3.369923,2.418585,-2.803355
63849,-0.684526,-18.089260,2.641183,-0.354643,2.147146,-2.831169
63850,-3.021367,-13.929913,3.424158,2.491783,1.545037,-2.958914
63851,-3.126918,-6.856691,6.003524,4.318732,0.993150,-3.128823
63852,-2.613618,-0.415273,8.650434,4.971215,0.616463,-3.296585
63853,-1.987741,3.755930,10.380368,4.505640,0.343508,-3.455991
63854,-1.205166,8.318471,13.777685,3.133899,0.163885,-3.535218
63855,1.078798,10.658751,15.913994,0.748068,0.244401,-3.538495
63856,2.721059,8.995218,15.900237,-1.726475,0.606094,-3.543598
63857,3.014348,6.323416,14.825368,-3.504564,1.033664,-3.639344
63858,2.307058,4.790452,13.753911,-4.694189,1.407066,-3.803302
63859,2.856480,3.905588,13.388835,-5.578028,1.825628,-4.005457
63860,3.175094,2.075586,12.150516,-6.068185,2.328463,-4.209287
63861,4.074551,-0.597241,10.344073,-6.102489,2.771963,-4.397593
63862,4.118410,-4.965100,6.881660,-5.396246,3.260238,-4.571469
63863,2.718737,-10.725246,4.640301,-3.991726,3.425314,-4.731381
63864,2.118096,-16.932704,2.450737,-1.657638,3.371941,-4.874227
63865,1.937438,-17.994814,3.169234,1.019185,3.207452,-5.013736
63866,2.079026,-14.812471,4.507872,3.279570,2.982694,-5.150052
63867,1.837836,-10.599841,5.893464,4.802242,2.826389,-5.299898
63868,2.364529,-8.800039,6.450386,5.636437,2.676620,-5.452665
63869,3.140258,-8.683930,6.638695,6.395352,2.507158,-5.565354
63870,3.803918,-6.848151,7.166921,6.967664,2.222533,-5.631196
63871,3.696445,-1.559543,8.712880,6.773873,1.850010,-5.675901
63872,3.644876,7.113561,11.383563,5.021560,1.361199,-5.670901
63873,5.543102,14.252048,13.750982,1.417675,1.225843,-5.416616
63874,6.549270,15.652039,11.700069,-3.168127,1.457104,-5.052720
63875,7.704803,13.419134,8.877130,-7.584078,1.760758,-4.522053
63876,8.272383,8.086607,3.607386,-10.880892,2.238864,-3.956515
63877,6.161428,0.629961,-2.756837,-12.729527,2.511548,-3.348516
63878,3.316700,-7.987857,-3.986395,-12.745094,2.650200,-2.876931
63879,2.427722,-18.495322,-2.913762,-11.008458,2.788829,-2.527783
63880,-0.685707,-27.417249,-2.638282,-7.685433,2.545824,-2.270546
63881,-2.219199,-31.108489,-1.381815,-3.537830,1.817091,-1.974422
63882,-2.668212,-32.463467,-2.653513,0.799372,1.180340,-1.614936
63883,-2.359884,-30.436352,-2.619570,4.887615,0.547001,-1.171324
63884,-0.697838,-23.099395,-2.546959,8.058039,0.030869,-0.740995
63885,-0.180027,-13.050583,-1.629046,9.999554,-0.302397,-0.475834
63886,-0.472600,-2.931745,1.095632,10.392162,-0.351933,-0.602330
63887,-1.697092,6.133052,3.173114,9.185693,-0.211015,-0.855250
63888,-2.763972,15.376998,7.300795,6.210478,-0.260120,-1.174107
63889,-0.692498,19.228739,11.487282,1.440335,-0.021356,-1.239826
63890,1.726266,14.034199,11.952122,-3.519068,0.397833,-1.130447
63891,3.870621,4.908473,10.162665,-7.021478,0.785018,-0.876195
63892,2.953942,-2.277107,7.097027,-8.959827,1.126167,-0.635494
63893,1.762581,-5.675425,4.575879,-9.741814,1.186505,-0.401579
63894,0.810667,-7.625269,2.091214,-9.765170,1.183353,-0.303103
63895,-0.301976,-11.569458,-0.965585,-8.983666,1.242337,-0.121016
63896,-4.890447,-21.666714,-0.014935,-6.700855,1.294053,-0.145808
63897,-5.815825,-31.364591,-0.683136,-2.561644,0.766898,-0.263158
63898,-2.966380,-32.969891,-0.841117,2.583779,0.124943,-0.200331
63899,-0.829275,-23.714348,0.069128,6.832829,-0.414465,-0.046032
63900,-0.235922,-11.540509,2.072505,8.945260,-0.669418,0.050500
63901,-0.379449,-3.549609,3.763044,9.316131,-0.623768,0.056338
63902,-1.413481,-0.087067,4.863234,8.768619,-0.474599,0.023581
63903,-2.108492,0.778657,6.270044,7.932081,-0.445652,-0.036578
63904,-1.911852,1.388132,7.850649,7.033693,-0.497265,-0.075267
63905,-0.959608,3.368590,9.575839,5.791659,-0.583483,-0.111308
63906,-0.128600,4.705000,10.897949,4.167901,-0.548013,-0.063918
63907,-0.174877,4.714634,10.909326,2.493555,-0.497653,-0.001443
63908,-1.880694,2.820875,9.779275,1.056911,-0.501337,0.027856
63909,-3.624196,-2.070528,9.674072,0.533562,-0.662994,-0.006355
63910,-4.448249,-7.884762,9.888934,1.061011,-0.961207,-0.086385
63911,-3.332790,-13.891328,10.869313,2.686021,-1.225595,-0.165983
63912,-1.576771,-14.677907,9.811956,4.807185,-1.504414,-0.288007
63913,-0.725628,-11.002910,9.219450,6.522276,-1.619141,-0.375888
63914,-0.785007,-7.299110,8.549616,7.414031,-1.620841,-0.424030
63915,0.256790,-5.359880,8.825380,7.590320,-1.494200,-0.428960
63916,1.071210,-4.657455,8.773844,7.508557,-1.185384,-0.469171
63917,1.475543,-2.973823,8.811457,7.449700,-0.907795,-0.584332
63918,1.359633,0.741483,8.232440,7.299147,-0.703073,-0.762777
63919,1.498242,5.466008,8.203858,6.694538,-0.489567,-0.960154
63920,1.534271,10.485438,9.746729,5.307118,-0.227992,-1.090208
63921,1.270639,15.178150,12.227037,2.900112,-0.008613,-1.105746
63922,1.722371,17.685338,13.520662,-0.393398,0.253003,-1.028679
63923,2.174213,17.181277,12.014521,-3.820578,0.599817,-0.921434
63924,2.407190,14.748936,10.441284,-6.888232,1.031181,-0.839089
63925,2.901868,11.755713,6.846308,-9.531626,1.387838,-0.761167
63926,3.968485,9.544113,2.365741,-11.701593,1.665585,-0.649142
63927,3.977732,7.756743,-2.205322,-13.548913,1.905214,-0.499774
63928,0.924092,4.099143,-9.435746,-15.152810,1.899559,-0.252685
63929,-3.584435,-8.396341,-9.910298,-14.982406,2.101221,0.092675
63930,-9.928409,-29.990158,-8.121334,-11.854781,1.649242,-0.104941
63931,-8.714338,-47.040332,-5.475725,-5.389747,0.502503,-0.088214
63932,-1.990330,-45.808804,-3.426953,2.930112,-0.495005,0.085172
63933,2.458218,-28.898238,-0.641745,9.143435,-1.138511,0.414211
63934,2.673271,-12.148477,0.928308,12.269379,-1.517598,0.712626
63935,2.732534,-0.887471,3.008989,13.070222,-1.550021,1.019929
63936,1.850304,8.016493,6.918098,12.180556,-1.224449,1.164621
63937,0.128843,13.621584,10.190713,9.725225,-0.732607,1.316547
63938,-0.340486,18.378562,13.019150,6.177863,-0.517664,1.407719
63939,2.065654,21.943824,15.221615,1.493117,-0.082913,1.474590
63940,4.284164,21.252842,13.857064,-3.496526,0.606927,1.420732
63941,4.346544,16.547421,9.389664,-7.618990,1.226634,1.285066
63942,3.639217,10.146730,4.179977,-10.598867,1.493804,1.169622
63943,1.159846,3.915101,-0.358451,-12.138977,1.670955,1.095780
63944,-2.217592,-2.034430,-4.681181,-12.704959,1.496652,1.211756
63945,-5.775423,-10.381726,-5.857354,-11.999180,1.238051,1.449034
63946,-8.852720,-21.423393,-3.702832,-9.450784,0.721185,1.396123
63947,-7.570146,-30.205825,0.338252,-5.239635,-0.193405,1.201712
63948,-3.803311,-30.941411,2.109450,-0.292565,-0.933366,1.098240
63949,-1.047547,-23.810771,3.870706,3.945048,-1.449764,1.111867
63950,-0.236725,-14.947552,5.676127,6.594814,-1.708287,1.180478
63951,0.136434,-7.711265,7.759329,7.884071,-1.792109,1.271415
63952,0.222997,-2.215100,9.323204,8.056671,-1.625753,1.325450
63953,-0.238018,2.716186,11.470022,7.157371,-1.323063,1.409434
63954,-0.831350,5.830056,12.125506,5.293181,-0.970566,1.516575
63955,-0.789677,8.256471,11.769945,2.611349,-0.792738,1.645423
63956,0.674729,8.523279,10.670299,-0.416447,-0.451393,1.635390
63957,1.782867,5.917772,8.907100,-2.944906,-0.069345,1.498098
63958,2.507923,2.787268,7.896892,-4.670087,0.188673,1.444380
63959,1.891234,-2.359630,6.406552,-5.559794,0.424568,1.513387
63960,0.414376,-8.763246,5.812296,-5.568407,0.448448,1.773226
63961,-2.076399,-15.981295,5.752051,-4.490587,0.295017,2.144841
63962,-3.748191,-20.925942,6.405216,-2.391563,-0.219218,2.469884
63963,-2.723665,-21.239494,7.414126,0.153266,-0.906116,2.763118
63964,0.086376,-16.415564,9.281021,2.218926,-1.361168,3.053975
63965,2.183711,-10.350302,11.234540,3.170538,-1.495053,3.400750
63966,3.294852,-6.135885,12.529048,3.089424,-1.418551,3.796974
63967,3.566545,-3.978180,13.486528,2.358852,-1.247222,4.179148
63968,3.266147,-3.550134,13.485485,1.269035,-1.030025,4.517085
63969,2.532357,-3.666483,12.905735,0.235692,-0.864809,4.737873
63970,1.747511,-2.845054,13.056988,-0.701450,-0.777014,4.867421
63971,1.039681,-1.984968,12.819312,-1.645294,-0.694034,4.963308
63972,0.273560,-2.452268,12.292618,-2.526489,-0.591297,5.070504
63973,-0.808409,-4.290892,11.269603,-3.053383,-0.559922,5.139116
63974,-1.521209,-7.196316,10.111629,-2.954910,-0.482932,5.161176
63975,-2.130408,-10.282656,9.564735,-2.053942,-0.393975,5.107896
63976,-2.894289,-11.120233,9.582116,-0.521984,-0.455229,4.971621
63977,-2.787842,-8.369716,10.179354,1.032397,-0.509602,4.810631
63978,-2.092321,-4.212244,10.919977,1.966234,-0.429306,4.668784
63979,-1.769627,-0.700637,11.606998,2.039506,-0.273714,4.584614
63980,-2.176649,1.943819,12.144010,1.445488,-0.147186,4.533170
63981,-2.581014,4.237329,13.351150,0.204943,-0.125198,4.542046
63982,-2.526607,5.320301,13.922794,-1.455917,-0.061290,4.529831
63983,-3.552774,4.354426,13.331941,-3.034515,0.000964,4.502214
63984,-4.655750,1.841763,12.274193,-4.228149,-0.141112,4.494242
63985,-4.852621,-1.042489,11.052142,-4.856551,-0.356861,4.437607
63986,-4.771257,-3.233563,10.261384,-4.923730,-0.591251,4.351927
63987,-4.482649,-5.845126,9.629843,-4.553501,-0.789309,4.273683
63988,-3.962405,-11.093197,6.742884,-3.274526,-0.832737,4.205418
63989,-4.704871,-15.710066,4.886348,-0.995686,-1.045819,4.101224
63990,-4.336676,-17.196069,3.873696,1.912232,-1.401798,3.970440
63991,-2.641836,-13.676196,3.934055,4.811637,-1.694931,3.844732
63992,-0.836130,-6.546084,5.704615,6.843404,-1.738064,3.761390
63993,0.024308,-0.777460,6.523304,7.773238,-1.502432,3.686451
63994,-0.448029,3.628182,7.865301,7.752742,-1.210464,3.629010
63995,-0.805811,7.116044,9.885744,6.729985,-0.988418,3.643465
63996,-1.413791,10.062168,12.062724,4.788054,-0.824157,3.682610
63997,-1.148557,11.502015,14.626265,1.958461,-0.662338,3.799121
63998,-1.517552,10.170566,14.082667,-0.979729,-0.464930,3.812560
63999,-2.611071,6.402466,12.862201,-3.412767,-0.382101,3.862963
64000,-3.812881,1.930241,10.060060,-4.893525,-0.602958,3.834135
64001,-4.464743,0.263413,8.545776,-5.622086,-0.991517,3.740979
64002,-4.342650,-0.004119,7.545931,-6.075326,-1.413616,3.617767
64003,-3.423577,-0.619643,7.083831,-6.304140,-1.822840,3.464496
64004,-2.892868,-1.341017,6.967440,-6.222745,-2.072243,3.201336
64005,-1.544369,-4.086139,6.373037,-5.518614,-2.284803,2.916564
64006,-1.103203,-10.818177,2.922495,-3.285279,-2.258794,2.532471
64007,-2.623964,-13.867743,2.300608,-0.454976,-2.594008,2.135153
64008,-1.666714,-12.408630,2.378343,2.549737,-2.938845,1.839957
64009,0.045894,-6.596404,4.457997,4.994774,-3.033478,1.569565
64010,1.868707,-0.616984,5.845711,6.258442,-2.958603,1.350069
64011,2.412885,3.530451,6.924449,6.767896,-2.708954,1.195071
64012,2.874021,5.146613,7.387308,6.448544,-2.430145,1.141366
64013,3.437820,5.574900,8.049042,5.664395,-2.087252,1.140619
64014,3.741201,6.330795,8.885522,4.506116,-1.715795,1.181750
64015,4.032027,7.722600,10.559389,2.854383,-1.331885,1.237268
64016,4.068909,8.230588,11.778832,0.826946,-0.888204,1.325843
64017,4.030195,7.641920,11.721429,-1.228237,-0.442542,1.389077
64018,4.615331,4.728303,10.431286,-3.062568,-0.022417,1.534982
64019,4.517443,0.338181,8.231021,-4.227051,0.367678,1.766595
64020,4.025386,-3.507163,6.102090,-4.692939,0.570077,2.055647
64021,2.899090,-7.568591,4.156443,-4.498609,0.684816,2.442480
64022,1.890913,-9.867261,3.603932,-3.718591,0.655212,2.830937
64023,1.533441,-11.427661,3.598824,-2.653220,0.572760,3.224290
64024,1.796932,-12.283613,4.037478,-1.330906,0.450689,3.594019
64025,2.614614,-10.537079,5.126787,0.029609,0.338288,3.884763
64026,2.920809,-7.160017,6.861288,1.336565,0.315597,4.050967
64027,2.259240,-3.410548,7.569615,2.646542,0.462794,4.036508
64028,0.340977,1.907540,8.555637,3.645845,0.546122,3.807913
64029,-0.991300,8.429067,8.757237,4.035433,0.568105,3.400260
64030,-2.029123,13.599900,8.638518,3.378214,0.524882,2.948543
64031,-2.417364,14.507580,8.051441,2.256219,0.468505,2.522856
64032,-2.190489,12.955170,8.673129,1.583927,0.422519,1.949472
64033,-1.842302,10.852627,9.264053,1.480769,0.340209,1.279180
64034,-0.954274,8.715151,10.672169,1.742805,0.257007,0.682865
64035,1.082419,5.753512,12.517704,1.881165,0.266453,0.234418
64036,3.091101,1.427026,12.781600,2.055110,0.460541,-0.017617
64037,3.902023,-2.941017,12.800007,2.209147,0.685650,-0.003546
64038,3.673643,-5.635271,11.546198,2.282778,0.794184,0.252938
64039,2.539951,-4.036813,13.053891,2.427946,0.623645,0.614855
64040,2.751696,0.722402,11.052377,1.756003,0.315496,0.906699
64041,3.716931,1.697612,8.631840,1.078652,0.535077,1.098098
64042,4.100339,-0.936192,6.190258,1.012807,0.741786,1.263719
64043,4.270261,-3.616088,5.742761,1.485788,0.786929,1.614360
64044,2.469447,-2.301598,6.720635,1.712564,0.602307,1.987732
64045,1.436172,1.915666,8.229544,1.191189,0.374266,2.258874
64046,1.510445,6.304156,9.017980,-0.016940,0.331323,2.388069
64047,1.840978,9.093737,9.194297,-1.442917,0.468829,2.410011
64048,1.226712,10.321770,9.137886,-2.818441,0.602306,2.335913
64049,0.175311,9.928746,9.166666,-3.789646,0.605335,2.127687
64050,0.235731,7.535004,9.028500,-4.237429,0.565743,1.913890
64051,0.519064,4.714893,7.944866,-4.126042,0.568404,1.663729
64052,0.769732,2.907573,8.187085,-3.682426,0.480301,1.458144
64053,0.940531,-0.542103,8.861251,-2.650192,0.470562,1.198221
64054,1.580145,-4.343316,10.324772,-1.343961,0.446294,1.048022
64055,2.808390,-5.003300,10.879512,0.151100,0.402974,0.916365
64056,3.222597,-1.736645,11.438531,1.192398,0.390005,0.823424
64057,3.066858,3.485208,11.522241,1.311375,0.389601,0.756894
64058,2.722488,8.842819,11.459425,0.299587,0.390005,0.709330
64059,3.490106,13.355870,11.954396,-2.070755,0.420598,0.803330
64060,4.402205,13.230964,10.525776,-4.917508,0.725470,0.876074
64061,4.294529,9.172686,8.486562,-7.275251,0.992021,0.950760
64062,3.549464,3.365382,6.590026,-8.552529,1.047079,1.063665
64063,3.114491,-1.850236,6.055492,-8.816548,0.992269,1.164286
64064,3.266854,-4.414997,7.108367,-8.356224,1.005878,1.211640
64065,3.528637,-5.783519,8.914202,-7.461439,1.161417,1.136043
64066,3.616777,-7.798910,9.659138,-5.868963,1.453175,0.969365
64067,2.715448,-10.402452,9.860696,-3.821161,1.741691,0.790720
64068,1.019299,-12.397084,7.684214,-1.497300,1.819458,0.541058
64069,-0.025492,-12.252796,7.827031,0.812522,1.821499,0.290621
64070,-0.619876,-8.861162,8.522809,2.777878,1.798976,-0.089806
64071,-0.993143,-3.821066,9.392433,3.970509,1.740657,-0.507870
64072,-1.137288,-1.521187,8.682625,4.523894,1.681216,-0.863412
64073,-1.710981,-1.806248,7.369189,4.836610,1.612673,-1.163816
64074,-2.751298,-2.892210,6.788327,5.097886,1.514318,-1.367020
64075,-3.875597,-3.382451,7.013029,5.409604,1.306247,-1.470004
64076,-4.558228,-0.945013,8.466469,5.447259,0.975910,-1.549846
64077,-3.894475,2.922432,10.465745,4.778678,0.677745,-1.603354
64078,-2.242019,5.862433,11.581691,3.439816,0.603541,-1.628285
64079,-0.944350,7.253097,11.892758,1.688345,0.704600,-1.629537
64080,-0.243351,6.589648,10.993137,-0.136499,0.899364,-1.606014
64081,0.050398,5.177880,9.103593,-1.634133,1.059474,-1.600400
64082,-0.276558,3.694314,7.300182,-2.731139,1.156562,-1.612274
64083,-0.792332,2.707672,6.421742,-3.394837,1.233607,-1.704138
64084,-1.154947,1.601589,5.687671,-3.644027,1.290356,-1.840789
64085,-1.518864,0.014877,5.633366,-3.467521,1.314264,-2.021530
64086,-1.962692,-1.245428,5.888211,-2.954380,1.256204,-2.250042
64087,-1.825787,-2.142104,6.240055,-2.276103,1.186181,-2.514670
64088,-1.516134,-3.751092,6.221242,-1.520619,1.197571,-2.748250
64089,-1.961459,-5.178059,6.645982,-0.682763,1.224290,-2.961982
64090,-3.073849,-6.259837,7.370666,0.123370,1.247222,-3.093292
64091,-4.027251,-6.314724,7.952775,0.820650,1.198257,-3.205963
64092,-4.824709,-4.761099,8.047378,1.249399,1.099996,-3.296440
64093,-5.408724,-1.394817,8.081998,1.265842,0.893282,-3.417785
64094,-4.954756,2.437862,8.518821,0.851633,0.742798,-3.579756
64095,-3.433760,5.175870,8.746628,0.100998,0.735165,-3.779772
64096,-1.394233,5.346894,9.096002,-0.806337,0.914938,-3.884673
64097,-0.096893,2.249406,9.161449,-1.764871,1.216023,-3.848310
64098,0.501502,-1.419608,8.746540,-2.399243,1.522901,-3.827281
64099,0.760922,-3.074416,9.289119,-2.569406,1.873597,-3.916936
64100,0.759356,-3.067744,9.532658,-2.520571,2.233486,-4.067455
64101,0.278574,-2.365207,8.767639,-2.530439,2.535444,-4.192902
64102,-0.439178,-2.471181,7.305014,-2.688298,2.771579,-4.291330
64103,-1.017344,-5.860682,4.885601,-2.876955,2.933653,-4.263899
64104,-1.370715,-10.788106,2.207386,-2.891171,2.829101,-4.039585
64105,-2.405070,-13.665419,0.316991,-2.620882,2.460932,-3.836298
64106,-3.859064,-15.081864,-0.236418,-2.191434,1.936478,-3.666093
64107,-4.695356,-14.987351,1.578252,-1.675076,1.415987,-3.551923
64108,-4.175883,-13.539372,4.337455,-1.258932,0.878698,-3.426598
64109,-1.910838,-11.373363,6.888417,-0.940276,0.509502,-3.285657
64110,0.326253,-8.911468,9.002817,-0.799841,0.412035,-3.087241
64111,1.434203,-7.873365,9.757419,-0.836041,0.541142,-2.878452
64112,0.323480,-8.596798,9.200288,-0.727153,0.798038,-2.756323
64113,-1.370734,-9.439083,7.098968,-0.394724,0.942606,-2.797720
64114,-2.922100,-9.638369,4.468229,0.097986,0.955537,-2.872237
64115,-3.378735,-9.468406,2.729311,0.688836,0.907317,-2.947559
64116,-2.248266,-7.043249,3.477885,1.263867,0.902860,-3.168917
64117,-1.184847,-2.207368,5.344353,1.266406,0.970627,-3.477311
64118,-0.773707,1.182357,6.110683,0.203251,1.018399,-3.635530
64119,0.389614,0.713846,5.717803,-1.520042,1.056777,-3.622888
64120,1.651150,-3.772597,4.059989,-2.996386,1.153437,-3.555991
64121,1.229320,-9.263237,2.522877,-3.490773,1.075596,-3.511138
64122,0.549655,-13.186294,2.101967,-2.975260,0.792248,-3.498735
64123,1.075918,-15.355998,2.668460,-1.910360,0.386918,-3.457566
64124,2.395490,-14.627818,3.905576,-0.825028,-0.037327,-3.379087
64125,3.453062,-11.737841,4.974907,-0.099641,-0.399852,-3.300896
64126,4.386871,-9.528440,5.634511,0.330521,-0.564729,-3.187109
64127,4.655958,-9.521504,6.274915,0.703446,-0.477685,-3.073451
64128,4.068212,-9.972568,6.533954,1.104683,-0.387815,-2.983589
64129,3.549579,-10.074962,5.936969,1.445699,-0.314662,-2.902163
64130,3.154860,-10.262252,4.907734,1.702668,-0.234935,-2.869314
64131,2.643532,-9.563399,3.354736,1.925847,-0.197743,-2.945772
64132,3.111674,-7.187100,3.475995,2.088981,-0.097663,-3.141242
64133,3.989656,-3.738073,5.171660,1.885741,0.074136,-3.398292
64134,5.253150,-0.948067,7.045674,0.993448,0.308846,-3.558412
64135,6.485529,-0.547680,6.667788,-0.600402,0.590857,-3.527085
64136,6.382676,-2.328435,3.526543,-2.348331,0.691017,-3.381677
64137,5.399463,-5.509584,1.398730,-3.609633,0.552166,-3.212068
64138,5.084026,-9.524082,0.757883,-4.102444,0.287543,-3.020466
64139,6.276607,-13.816257,2.272684,-3.654914,-0.006981,-2.824835
64140,7.754975,-17.108919,3.643298,-2.571267,-0.337293,-2.527519
64141,9.003661,-18.903466,3.753401,-1.001083,-0.667666,-2.128471
64142,8.138583,-18.943377,3.206875,0.903358,-0.938079,-1.774459
64143,6.260859,-17.259647,2.342560,2.727438,-1.401031,-1.454636
64144,5.865541,-15.509128,1.090992,4.355050,-1.833475,-1.176240
64145,5.872804,-13.752569,1.098415,5.672424,-2.298252,-0.924052
64146,7.060677,-11.776422,2.082155,6.696447,-2.656727,-0.637178
64147,7.747041,-8.862607,4.043363,7.327276,-2.763018,-0.346829
64148,7.419197,-5.908933,6.600002,7.501023,-2.598532,-0.094941
64149,5.685771,-2.770259,7.671713,7.111642,-2.285902,0.015376
64150,3.517965,0.013128,6.288820,6.196997,-2.069838,-0.049566
64151,3.157976,3.186844,5.647879,4.763373,-1.905708,-0.243909
64152,4.463314,6.753943,7.578705,2.809021,-1.631453,-0.590317
64153,5.853303,8.689202,9.827221,0.417310,-1.230068,-0.946086
64154,7.008523,7.033060,10.447041,-1.928765,-0.758192,-1.141363
64155,7.286824,3.144074,9.168771,-3.732685,-0.351153,-1.270635
64156,7.019874,-1.090966,6.814992,-4.768874,-0.105556,-1.354330
64157,6.434422,-4.947263,4.711520,-5.010082,-0.030896,-1.424636
64158,5.804641,-7.657976,3.250075,-4.644533,-0.132706,-1.462264
64159,5.690347,-10.082153,3.175763,-3.714325,-0.335867,-1.482975
64160,6.267058,-11.209213,4.428990,-2.341539,-0.592785,-1.544281
64161,7.373732,-11.222788,5.522827,-0.879649,-0.835531,-1.530777
64162,8.211690,-9.921808,5.872194,0.419532,-1.051851,-1.429383
64163,8.228950,-7.447457,5.868657,1.327488,-1.219115,-1.304048
64164,8.232299,-5.159294,6.161257,1.739452,-1.307737,-1.184365
64165,8.186306,-3.517085,6.019486,1.754616,-1.280703,-1.132790
64166,8.121603,-2.217605,6.507446,1.522289,-1.175233,-1.142880
64167,8.402014,-1.387195,6.927165,1.052765,-1.002210,-1.164636
64168,8.681497,-0.664281,6.925675,0.303524,-0.747759,-1.241718
64169,9.000204,0.059194,7.113114,-0.623095,-0.438055,-1.329736
64170,9.413338,1.450063,7.690194,-1.740709,-0.055701,-1.517316
64171,9.658864,2.966745,7.236169,-3.114427,0.350533,-1.774302
64172,10.058885,4.251746,5.741115,-4.605799,0.731232,-2.068582
64173,10.101840,4.950985,3.162522,-6.147773,1.005980,-2.321943
64174,10.174435,4.664412,0.386720,-7.553176,1.158973,-2.484437
64175,10.086844,3.079612,-2.098387,-8.654971,1.215667,-2.569712
64176,9.968248,0.841552,-3.894332,-9.412344,1.187848,-2.563571
64177,9.462637,-1.381592,-4.811751,-9.867629,1.008882,-2.468973
64178,8.695014,-4.561037,-6.017835,-10.009986,0.694053,-2.282245
64179,8.949361,-11.353885,-5.687084,-9.018166,0.502603,-2.087643
64180,9.045158,-20.523436,-2.002297,-6.367158,0.413264,-2.011908
64181,8.095530,-26.462063,2.072798,-2.555224,0.060868,-1.941815
64182,8.299252,-24.440740,3.866613,1.492530,-0.499792,-1.827831
64183,9.408279,-16.897805,4.445078,4.475550,-0.859973,-1.549899
64184,9.874929,-9.553352,4.816475,5.921730,-1.021658,-1.221045
64185,10.113875,-5.043551,4.895360,6.195670,-1.032266,-0.945423
64186,10.002860,-2.620083,4.984518,5.895459,-0.883588,-0.743181
64187,9.324159,-2.100206,4.776257,5.293669,-0.715531,-0.543461
64188,9.148003,-1.224829,5.241154,4.615045,-0.634340,-0.419470
64189,8.649341,0.491762,5.064234,3.734653,-0.579157,-0.364624
64190,8.641992,2.342599,4.917231,2.475580,-0.588145,-0.327256
64191,9.168362,3.092517,4.850119,0.937371,-0.497823,-0.372828
64192,9.530240,2.149427,4.171105,-0.452775,-0.381388,-0.462071
64193,9.443735,1.337116,3.681453,-1.559315,-0.297677,-0.558102
64194,9.446555,0.425128,3.098885,-2.418033,-0.227032,-0.613647
64195,9.203085,-0.528553,2.827704,-2.987554,-0.150885,-0.617695
64196,9.014137,-1.613148,2.485101,-3.302242,-0.112116,-0.597189
64197,9.025437,-2.772233,2.405141,-3.384524,-0.074046,-0.544021
64198,9.032189,-4.163973,2.296118,-3.246993,-0.052931,-0.471944
64199,9.031325,-5.355954,2.317317,-2.915773,-0.062170,-0.376655
64200,9.081242,-6.121597,2.323307,-2.466864,-0.089110,-0.256764
64201,9.173252,-6.564943,2.330470,-1.973633,-0.121588,-0.133406
64202,9.207762,-6.800436,2.301677,-1.471502,-0.149262,-0.004695
64203,9.227020,-6.719599,2.379623,-0.987701,-0.184804,0.119522
64204,9.152762,-6.674341,2.350051,-0.548252,-0.222784,0.236154
64205,9.078671,-6.370093,2.434802,-0.138059,-0.256012,0.326065
64206,9.039526,-6.004356,2.600159,0.197057,-0.285183,0.402473
64207,9.106471,-5.686237,2.815476,0.479968,-0.301125,0.477006
64208,9.131377,-5.424858,3.017927,0.724257,-0.302755,0.532015
64209,9.085014,-5.014109,3.144414,0.902706,-0.282781,0.577854
64210,9.052475,-4.439764,3.199173,1.019373,-0.266861,0.602640
64211,8.984408,-3.871800,3.240795,1.009796,-0.244344,0.619582
64212,9.005853,-3.370729,3.164983,0.917418,-0.214320,0.620650
64213,8.934426,-3.099118,3.008784,0.737213,-0.171504,0.613644
64214,8.813146,-3.134797,2.843280,0.556592,-0.128227,0.593421
64215,8.817784,-3.264210,2.806298,0.416108,-0.090927,0.564092
64216,8.783768,-3.267244,2.684202,0.290856,-0.045167,0.533693
64217,8.770644,-3.199912,2.541052,0.187309,-0.015377,0.507435
64218,8.861831,-3.187197,2.433175,0.078399,0.016708,0.479246
64219,8.860710,-3.155937,2.240607,-0.020865,0.053431,0.465241
64220,8.817402,-3.295308,2.109056,-0.083079,0.066910,0.446966
64221,8.767880,-3.402574,1.990661,-0.103520,0.069377,0.432717
64222,8.795267,-3.493252,2.038436,-0.099147,0.065004,0.423289
64223,8.822469,-3.583472,2.085522,-0.085746,0.048781,0.417563
64224,8.997030,-3.699993,2.119886,-0.046557,0.035503,0.418345
64225,9.105349,-3.778896,2.299564,-0.000630,0.018791,0.416780
64226,9.162858,-3.773747,2.360277,0.045411,0.001577,0.421618
64227,9.144748,-3.752941,2.444140,0.084310,-0.015782,0.430379
64228,9.124123,-3.758898,2.460070,0.120999,-0.027831,0.437300
64229,9.066621,-3.743246,2.416425,0.163605,-0.050165,0.444992
64230,8.987928,-3.741577,2.440793,0.195497,-0.066229,0.450129
64231,8.940336,-3.758853,2.348589,0.242416,-0.086628,0.453588
64232,8.943058,-3.747564,2.295125,0.291641,-0.111036,0.451354
64233,8.871133,-3.717159,2.264591,0.347258,-0.133543,0.448408
64234,8.867371,-3.667748,2.258414,0.394761,-0.150721,0.433019
64235,8.810768,-3.612002,2.227134,0.440318,-0.165339,0.422593
64236,8.744708,-3.661459,2.224476,0.488115,-0.184025,0.406483
64237,8.735229,-3.656946,2.205826,0.544403,-0.200010,0.382992
64238,8.706491,-3.633815,2.235468,0.587051,-0.217080,0.360393
64239,8.654582,-3.593495,2.225290,0.631040,-0.228912,0.333862
64240,8.615666,-3.583806,2.256176,0.664837,-0.244902,0.310541
64241,8.643250,-3.522353,2.322172,0.696179,-0.255918,0.276299
64242,8.669126,-3.451539,2.421185,0.709887,-0.258684,0.246751
64243,8.673815,-3.310759,2.435146,0.688835,-0.255173,0.213482
64244,8.683539,-3.173912,2.412605,0.643668,-0.248870,0.187566
64245,8.722715,-3.165815,2.448780,0.581396,-0.234723,0.147475
64246,8.730828,-3.176153,2.378706,0.526319,-0.224127,0.114139
64247,8.795627,-3.248538,2.342905,0.477577,-0.215406,0.081764
64248,8.841079,-3.326426,2.377367,0.445127,-0.201421,0.048842
64249,8.846098,-3.377831,2.385985,0.414030,-0.193658,0.019129
64250,8.860872,-3.452147,2.471214,0.396465,-0.192055,-0.003726
64251,8.891627,-3.452598,2.507939,0.382832,-0.184861,-0.024573
64252,8.908001,-3.412982,2.535165,0.362779,-0.179615,-0.044455
64253,8.911315,-3.392404,2.565069,0.333435,-0.170412,-0.057270
64254,8.949194,-3.404103,2.533686,0.302695,-0.163531,-0.070299
64255,8.902499,-3.444887,2.519044,0.273703,-0.159416,-0.081848
64256,8.955662,-3.519747,2.519927,0.265892,-0.162446,-0.088732
64257,8.904197,-3.544883,2.572616,0.257752,-0.153270,-0.092252
64258,8.900104,-3.608136,2.584891,0.261301,-0.159954,-0.096388
64259,8.885547,-3.698651,2.567858,0.278175,-0.157005,-0.098594
64260,8.877629,-3.669587,2.577848,0.293717,-0.161027,-0.099841
64261,8.869793,-3.639991,2.588150,0.310034,-0.161231,-0.100318
64262,8.866623,-3.676141,2.579567,0.319163,-0.159326,-0.099825
64263,8.856385,-3.662605,2.648214,0.335499,-0.161841,-0.099734
64264,8.893062,-3.613104,2.604648,0.342350,-0.163219,-0.094536
64265,8.951506,-3.556315,2.667661,0.333730,-0.154591,-0.100717
64266,8.985513,-3.523254,2.681622,0.316379,-0.141492,-0.097207
64267,8.961453,-3.480098,2.706786,0.282023,-0.131194,-0.101523
64268,8.952699,-3.450702,2.718425,0.246092,-0.113411,-0.102178
64269,8.945747,-3.430905,2.696667,0.204822,-0.101357,-0.105385
64270,8.938403,-3.412160,2.674754,0.159476,-0.083007,-0.107155
64271,8.948707,-3.440987,2.630640,0.115766,-0.064937,-0.108070
64272,8.883679,-3.462801,2.669083,0.080042,-0.055250,-0.109267
64273,8.825297,-3.536528,2.632182,0.062847,-0.045583,-0.107568
64274,8.849523,-3.620630,2.657282,0.043597,-0.033922,-0.109910
64275,8.843977,-3.663321,2.651885,0.040965,-0.027665,-0.107706
64276,8.866929,-3.699079,2.629008,0.049203,-0.025261,-0.105454
64277,8.876824,-3.755011,2.611489,0.058250,-0.019083,-0.102474
64278,8.880492,-3.720020,2.587592,0.071570,-0.021662,-0.100243
64279,8.929628,-3.739308,2.581991,0.084424,-0.014678,-0.100610
