// Start Time: Unknown
// Update Rate: 100.0Hz
// Filter Profile: human (46.1)
// Firmware Version: 4.3.5
PacketCounter,Acc_X,Acc_Y,Acc_Z,Gyr_X,Gyr_Y,Gyr_Z
15429,9.244127,-3.013042,1.971670,-0.093228,0.045829,0.022405
15430,9.205695,-3.080397,1.939671,-0.078363,0.045674,0.019171
15431,9.227966,-3.108244,1.892722,-0.046045,0.037098,0.011559
15432,9.254785,-3.103111,1.941355,-0.013863,0.023981,-0.003077
15433,9.265081,-3.070528,1.907531,0.011281,0.017995,-0.018159
15434,9.228765,-2.985851,1.971331,0.022511,0.011197,-0.031710
15435,9.194062,-2.915668,1.921341,0.015906,0.009894,-0.039590
15436,9.123382,-2.955698,1.995717,0.007765,0.000872,-0.045632
15437,9.171693,-3.012376,1.989082,0.001497,0.001591,-0.043778
15438,9.167805,-3.024331,2.006914,0.004979,-0.004558,-0.038949
15439,9.188194,-2.942256,2.048895,-0.000800,0.003641,-0.031379
15440,9.185915,-3.007828,2.021465,-0.011531,0.002287,-0.020074
15441,9.254828,-3.040748,2.011100,-0.020920,0.007186,-0.009955
15442,9.271176,-3.029573,2.025673,-0.026744,0.011111,-0.004213
15443,9.292416,-3.003191,2.022656,-0.032381,0.016498,0.000881
15444,9.257061,-2.974438,2.039769,-0.044475,0.021134,0.008476
15445,9.239982,-2.987253,2.026111,-0.051105,0.027179,0.010098
15446,9.196551,-3.032236,1.942779,-0.058002,0.023218,0.008708
15447,9.202876,-3.080749,1.970832,-0.041376,0.024300,0.009720
15448,9.196217,-3.061596,1.921514,-0.034146,0.018647,0.009515
15449,9.177115,-3.021911,1.953335,-0.023717,0.017366,0.004703
15450,9.193076,-3.011573,1.968489,-0.016749,0.009979,-0.000049
15451,9.272046,-3.013575,1.922738,-0.009849,0.002320,-0.009993
15452,9.336942,-3.088327,1.907121,-0.004401,-0.004521,-0.014445
15453,9.333123,-3.139199,1.992577,0.016708,-0.005336,-0.019527
15454,9.283948,-3.143646,1.971842,0.034955,-0.011863,-0.023133
15455,9.235434,-3.028223,2.024714,0.047607,-0.008745,-0.019804
15456,9.171555,-2.950164,2.040346,0.033765,-0.009312,-0.013093
15457,9.170923,-2.922689,2.063032,0.015882,-0.008122,-0.009259
15458,9.167153,-2.963848,2.057897,-0.007860,0.000978,-0.003041
15459,9.118231,-2.997028,2.014277,-0.017509,0.004118,0.002537
15460,9.103739,-3.070936,2.045058,-0.019463,0.009718,-0.002581
15461,9.122224,-3.111966,2.014246,-0.004375,0.003095,0.000254
15462,9.207059,-3.134760,2.018874,0.014693,0.002703,-0.000751
15463,9.273376,-3.116239,2.054877,0.034721,-0.002624,-0.000111
15464,9.289649,-3.104494,2.070593,0.057684,-0.001968,0.004245
15465,9.276107,-3.047003,2.085388,0.060397,-0.001719,0.006778
15466,9.284002,-2.962779,2.096700,0.056581,-0.002499,0.006617
15467,9.300202,-2.951141,2.112469,0.050057,-0.003534,0.003927
15468,9.380661,-2.859358,2.118114,0.033363,0.006728,0.009047
15469,9.359279,-2.766763,2.196208,-0.003842,0.023110,0.006256
15470,9.357830,-2.731130,2.130101,-0.051249,0.034880,-0.001876
15471,9.332631,-2.827312,2.107629,-0.095059,0.045050,0.001844
15472,9.341394,-2.917672,2.000486,-0.119246,0.054919,0.000808
15473,9.259889,-3.432269,1.824290,-0.053952,0.062455,-0.001265
15474,9.296300,-4.258071,1.674860,0.121804,0.053422,0.001317
15475,9.266906,-4.666045,1.584377,0.423679,0.044139,-0.001238
15476,9.218356,-4.835824,1.479188,0.803109,0.046726,-0.002102
15477,9.119991,-4.965712,1.213001,1.149721,0.023604,0.010953
15478,8.896431,-4.704295,1.290776,1.486021,-0.033647,0.047001
15479,8.786138,-4.242425,1.625314,1.746421,-0.121461,0.082704
15480,8.933790,-3.777629,2.169193,1.940107,-0.212002,0.117600
15481,9.295695,-3.228187,2.644365,2.027106,-0.261615,0.152504
15482,9.561190,-2.525871,2.860843,1.963667,-0.264319,0.202960
15483,9.643674,-1.819472,3.094645,1.779206,-0.215092,0.234686
15484,9.758177,-1.150277,3.680073,1.506960,-0.108179,0.220782
15485,9.960446,-0.138252,4.700298,1.145267,0.071682,0.148963
15486,9.787957,0.753054,4.277281,0.545756,0.339117,0.078864
15487,8.918044,1.249136,3.164510,-0.155663,0.576308,0.007000
15488,8.452838,1.397048,2.885554,-0.911195,0.737684,-0.078157
15489,8.726630,0.760740,2.779578,-1.782948,0.872436,-0.115502
15490,9.362854,-0.754699,2.951261,-2.663408,1.001704,-0.067116
15491,9.134210,-2.706726,2.340430,-3.403702,1.086611,0.083930
15492,8.192799,-4.315290,2.150872,-3.854097,1.026096,0.250148
15493,7.312017,-6.039247,1.896294,-3.925493,0.868042,0.438432
15494,6.839643,-8.432785,2.060303,-3.394861,0.572871,0.547008
15495,7.457804,-10.703649,3.156888,-2.097936,0.212978,0.574276
15496,8.553632,-12.460257,3.748378,-0.111055,-0.149311,0.578849
15497,9.898139,-12.483408,3.382942,1.992964,-0.412020,0.592365
15498,10.137566,-10.330467,2.262866,3.578240,-0.499092,0.694235
15499,9.677825,-7.300310,1.810457,4.464171,-0.585342,0.801205
15500,10.035913,-3.958627,3.189965,4.711602,-0.613083,0.867363
15501,10.826568,-0.305759,5.326448,4.377835,-0.347256,0.831984
15502,10.283075,2.908754,5.184312,3.299178,0.087930,0.779948
15503,9.831282,5.084594,4.869388,1.741366,0.472222,0.673329
15504,10.144480,5.147212,3.251716,-0.257642,0.860525,0.538389
15505,10.684184,3.263498,2.373317,-2.205055,1.257233,0.432687
15506,10.990573,0.763278,3.095445,-3.740989,1.649985,0.283330
15507,10.881439,-1.481941,3.385345,-4.822506,2.019414,0.268038
15508,9.841169,-3.635798,2.271713,-5.427354,2.270485,0.327719
15509,7.627973,-6.417637,-0.230598,-5.491467,2.251296,0.571691
15510,4.861241,-9.861461,-1.029575,-4.792479,1.933256,0.802747
15511,3.180616,-13.787368,-0.214638,-3.145496,1.237553,0.986090
15512,3.711857,-17.575199,0.087884,-0.645517,0.445601,1.104449
15513,5.688390,-19.062234,-0.372030,2.158432,-0.317740,1.225206
15514,7.526979,-15.460069,-0.285327,4.577985,-0.830081,1.332495
15515,8.783499,-8.733736,0.061521,5.783270,-1.072432,1.423123
15516,9.460872,-2.594654,0.946177,5.734227,-1.039000,1.457543
15517,10.033211,2.322868,4.017683,4.663012,-0.701454,1.387161
15518,9.606031,4.372706,5.329652,2.805460,-0.111023,1.272196
15519,8.843631,3.519672,5.237337,0.835432,0.431957,1.105166
15520,8.543045,1.320627,5.187557,-0.802948,0.882529,0.830550
15521,8.550596,-0.479357,4.981777,-1.999726,1.270477,0.585424
15522,7.980437,-1.131580,4.805450,-2.952654,1.603335,0.423163
15523,7.487592,-1.596440,4.345442,-3.808430,1.815873,0.349962
15524,7.878987,-3.427743,3.939209,-4.383772,1.922358,0.296740
15525,7.907294,-6.820149,1.583714,-4.563587,1.919715,0.326816
15526,5.653091,-11.714122,-1.535036,-3.931706,1.675270,0.521546
15527,3.222961,-15.560509,-1.605417,-2.315692,1.011334,0.686563
15528,2.268396,-17.391200,-0.837577,-0.044170,0.026585,0.867339
15529,4.027585,-16.790451,0.551793,2.479450,-0.967499,1.027418
15530,7.362575,-12.737074,1.769337,4.609400,-1.545143,1.130220
15531,9.336746,-7.316074,1.976703,5.720747,-1.758007,1.248409
15532,11.057074,-1.957701,5.033148,5.855499,-1.610220,1.251841
15533,11.071642,1.627551,5.953125,5.099924,-0.951768,1.102822
15534,9.579663,2.692245,4.856705,3.805939,-0.345049,0.866374
15535,8.190689,2.855715,4.409075,2.279724,0.210515,0.545953
15536,7.459587,2.642159,5.146422,0.610314,0.647373,0.174349
15537,7.429544,2.105536,5.728533,-1.088749,0.975771,-0.100783
15538,7.916879,1.605764,6.017582,-2.798552,1.206292,-0.159294
15539,7.973766,-0.340422,4.938374,-4.334650,1.403306,-0.073797
15540,8.006148,-5.085305,3.432468,-5.095833,1.543349,0.024904
15541,6.566819,-10.898861,0.335893,-4.860527,1.489725,0.204148
15542,3.877106,-15.762314,-0.464317,-3.347400,0.969381,0.368897
15543,2.455349,-18.271184,0.737490,-0.906398,0.107661,0.544579
15544,3.345626,-17.445774,1.738138,1.756102,-0.867235,0.766167
15545,6.148610,-13.978669,1.955809,3.910236,-1.476228,0.972588
15546,7.928722,-9.635141,2.766401,5.254471,-1.640564,1.120795
15547,8.775012,-4.267707,5.349153,5.604706,-1.515302,1.150939
15548,8.472588,0.511891,5.873450,4.807111,-1.061157,1.096397
15549,7.516527,2.057450,5.049109,3.287638,-0.546603,0.976088
15550,7.140023,1.321232,4.673447,1.535275,-0.088291,0.784074
15551,7.206767,-0.248613,5.292846,-0.135950,0.295519,0.549968
15552,7.682420,-1.193856,5.701581,-1.505775,0.616764,0.330964
15553,7.643932,-1.416897,5.975928,-2.705292,0.923651,0.265905
15554,7.257919,-2.680350,5.886131,-3.636727,1.186181,0.266845
15555,5.888884,-5.934565,3.320774,-4.198535,1.298827,0.412552
15556,3.195015,-10.290247,1.187776,-3.873820,1.051731,0.561760
15557,1.884163,-14.338430,1.610888,-2.547027,0.472106,0.612373
15558,2.543950,-17.088422,1.776105,-0.532594,-0.321560,0.751888
15559,4.980737,-16.546964,1.739808,1.641156,-1.022588,0.927309
15560,6.810511,-12.733286,2.546288,3.389740,-1.355029,1.062335
15561,7.488323,-7.714620,4.789038,4.360471,-1.406909,1.087181
15562,7.763175,-2.978145,6.175891,4.298875,-1.127262,1.003274
15563,7.286534,0.069092,6.492902,3.418095,-0.681162,0.843337
15564,6.736003,1.466903,6.647805,2.062155,-0.162549,0.548925
15565,6.669307,1.345122,6.592433,0.500993,0.340686,0.235717
15566,7.474713,1.334341,7.651589,-0.989106,0.809878,-0.137519
15567,8.424849,1.902324,7.674062,-2.580390,1.313790,-0.415966
15568,8.562266,0.953526,6.240447,-4.250936,1.767716,-0.481554
15569,6.996966,-3.268732,1.914243,-5.753245,2.020515,-0.255427
15570,3.874664,-9.362461,-0.179404,-6.108024,1.940474,-0.000476
15571,1.501375,-15.150108,0.780080,-5.027185,1.397399,0.138539
15572,1.473599,-20.149391,2.318627,-2.437466,0.527188,0.352219
15573,3.574983,-22.154894,1.636523,0.892708,-0.466192,0.642847
15574,6.012203,-19.821346,0.259425,4.081678,-1.206556,0.931076
15575,7.137924,-12.487721,1.132187,6.179316,-1.597445,1.147424
15576,7.644783,-4.430956,3.462181,6.567267,-1.624020,1.264911
15577,7.411938,1.243298,4.955336,5.545640,-1.222740,1.209563
15578,6.904779,3.069290,5.793059,3.781177,-0.715548,1.041795
15579,6.650485,2.450057,6.401541,1.928021,-0.223916,0.753459
15580,6.448445,1.227758,6.953179,0.236778,0.210492,0.443810
15581,6.458530,0.541123,6.879324,-1.222878,0.546466,0.201382
15582,6.153181,-0.320084,5.904576,-2.617491,0.817329,0.136060
15583,5.291326,-3.745499,3.986178,-3.674111,1.001789,0.206435
15584,3.896095,-8.492364,3.180486,-3.879472,0.981308,0.260384
15585,2.941492,-12.635028,3.293470,-3.046935,0.740498,0.250978
15586,2.622170,-16.178618,2.935032,-1.318406,0.251704,0.373741
15587,3.369802,-17.010790,2.220584,0.843789,-0.363232,0.576411
15588,4.205240,-14.203747,1.886568,2.740082,-0.901051,0.767801
15589,4.771786,-10.288295,2.659401,3.962601,-1.173855,0.897338
15590,5.525750,-6.067187,5.310743,4.546488,-1.266999,0.909045
15591,6.168916,-2.142046,6.664128,4.278770,-1.016709,0.812615
15592,6.344037,0.000044,6.664582,3.257258,-0.599917,0.657213
15593,6.318325,0.904661,6.433809,1.780631,-0.161027,0.418995
15594,6.234479,1.372517,6.588616,0.026557,0.267652,0.139351
15595,6.678919,1.218425,6.925400,-1.825717,0.613508,-0.069971
15596,7.203169,0.117465,6.800190,-3.592531,0.930623,-0.125559
15597,7.072814,-3.425155,4.411558,-4.858061,1.172492,-0.042319
15598,5.056887,-9.883128,0.743970,-5.059732,1.252127,0.121462
15599,1.854178,-15.737228,0.247444,-3.723648,0.826681,0.245484
15600,0.340357,-19.098553,1.167469,-1.260026,0.071072,0.391204
15601,1.360808,-18.520113,1.876239,1.581507,-0.782059,0.552653
15602,3.997589,-13.245839,2.875101,3.858181,-1.331112,0.633578
15603,5.847458,-7.580625,3.918391,4.892105,-1.396236,0.630859
15604,6.100211,-2.812719,4.526882,4.787226,-1.169790,0.557396
15605,5.831298,1.404820,5.525299,3.689222,-0.861840,0.414703
15606,6.001701,3.410632,6.863787,1.868739,-0.475817,0.217829
15607,6.677935,2.427087,7.826574,-0.042280,-0.077813,0.019391
15608,6.885462,-1.172938,7.257968,-1.467857,0.234697,-0.085390
15609,6.705252,-4.174968,5.801995,-2.201996,0.389476,-0.090512
15610,5.735743,-6.687446,4.247984,-2.387941,0.412222,-0.038159
15611,4.014300,-9.922157,2.880963,-1.951599,0.269191,0.039393
15612,2.821375,-12.675393,2.855556,-0.772842,-0.108102,0.092544
15613,3.178934,-13.130102,2.995802,0.816888,-0.567043,0.160001
15614,4.473376,-10.298652,3.378335,2.152485,-0.960134,0.228171
15615,6.046154,-6.635971,4.177805,2.710894,-1.106834,0.306166
15616,6.991405,-3.638540,4.960188,2.479865,-1.101003,0.338074
15617,7.420417,-1.507142,5.782256,1.692431,-0.960484,0.347959
15618,7.579819,-1.200275,6.094443,0.672002,-0.732254,0.301769
15619,6.935206,-2.669426,5.975945,-0.096832,-0.494314,0.195741
15620,6.585365,-4.079850,6.091078,-0.364063,-0.327213,0.047869
15621,6.303373,-5.260803,5.731245,-0.364840,-0.189680,-0.047943
15622,6.247776,-5.412834,6.338616,-0.309001,-0.133131,-0.111278
15623,6.510792,-4.542915,6.981608,-0.460320,-0.066462,-0.098988
15624,6.516616,-3.842237,7.385374,-0.856832,0.017281,-0.037697
15625,6.652288,-4.514671,7.121072,-1.261863,0.097771,0.037620
15626,6.847126,-5.921546,6.722802,-1.383622,0.163437,0.076148
15627,7.373908,-6.499449,6.599509,-1.256814,0.249847,0.073856
15628,7.881194,-6.362523,7.196845,-1.178845,0.391877,0.083516
15629,7.303638,-6.894793,4.711092,-1.073892,0.474353,0.061228
15630,6.914385,-5.762734,5.579476,-1.104857,0.551125,-0.000171
15631,6.694393,-5.436574,5.789225,-1.447788,0.683507,-0.037660
15632,7.180499,-6.261302,4.903673,-1.733651,0.779214,-0.119224
15633,6.953466,-7.698980,3.508318,-1.909244,0.857938,-0.088289
15634,5.778294,-9.265533,2.572444,-1.894725,0.791050,0.016347
15635,4.552483,-11.050055,1.941290,-1.616044,0.563431,0.197167
15636,3.564288,-13.107596,2.005033,-0.921553,0.167584,0.438885
15637,3.559645,-13.758258,3.513161,0.255683,-0.403458,0.636448
15638,5.424699,-12.564361,4.355171,1.497149,-0.786688,0.774606
15639,6.764976,-10.098719,4.981741,2.390727,-0.987470,0.912299
15640,7.782722,-6.999666,5.962650,2.699703,-0.970310,1.017726
15641,7.538217,-4.841171,5.830690,2.444147,-0.750141,1.045494
15642,6.569681,-2.962848,5.680758,1.779165,-0.480213,0.970976
15643,5.514788,-1.800025,5.708595,0.766530,-0.195299,0.838206
15644,5.328310,-2.553977,6.182447,-0.248809,0.075251,0.640359
15645,5.834157,-4.496937,5.875378,-0.841883,0.310586,0.388759
15646,6.420725,-5.849131,5.645037,-1.036242,0.557715,0.199314
15647,6.237050,-6.380518,5.351842,-1.147459,0.745668,0.121847
15648,5.845866,-7.036484,4.295829,-1.330332,0.793813,0.129067
15649,5.080971,-8.658375,3.351039,-1.455506,0.692577,0.239713
15650,4.015095,-10.947511,3.082141,-1.212661,0.414221,0.417652
15651,3.505789,-12.792110,3.334202,-0.440445,-0.022063,0.566937
15652,3.941683,-12.574018,4.255544,0.673943,-0.478524,0.687838
15653,4.900060,-9.911912,5.685926,1.641523,-0.731227,0.757699
15654,5.039750,-7.069948,6.043979,2.061919,-0.701957,0.784765
15655,4.376517,-5.689551,5.457315,1.958209,-0.579718,0.749791
15656,4.255306,-5.293938,5.369095,1.523861,-0.392275,0.659719
15657,4.909958,-4.882924,5.958359,0.931655,-0.152159,0.506555
15658,5.736072,-4.409813,7.058459,0.236038,0.193641,0.330839
15659,6.009508,-4.887497,7.502248,-0.464782,0.618396,0.182038
15660,5.513582,-6.099727,6.361286,-0.968024,0.960471,0.024539
15661,4.467444,-7.924001,4.888404,-1.320837,1.129237,0.048071
15662,2.541576,-10.419070,3.476254,-1.436876,1.001636,0.217633
15663,1.242140,-13.106878,3.028097,-1.065200,0.547014,0.448164
15664,1.387439,-14.443728,3.308123,-0.184494,-0.073718,0.684300
15665,2.724000,-13.942804,3.956194,0.896298,-0.642438,0.854083
15666,3.909513,-12.102871,4.533136,1.828236,-1.005313,0.965126
15667,4.199142,-9.798818,4.815095,2.343337,-1.125370,1.066292
15668,3.902291,-7.856464,5.343463,2.415781,-1.090946,1.109986
15669,3.906129,-5.930500,6.013101,2.135118,-0.865670,1.047894
15670,4.020208,-4.540514,7.065935,1.567111,-0.477737,0.918830
15671,3.827723,-3.992343,7.812060,0.814326,-0.027140,0.748212
15672,3.751704,-4.163385,7.775059,0.023015,0.409616,0.556768
15673,3.513102,-5.045566,7.503590,-0.651107,0.801821,0.388283
15674,3.260683,-6.889620,6.265874,-1.086293,1.059367,0.298749
15675,2.659881,-8.359234,4.917414,-1.312235,1.176478,0.295384
15676,1.626522,-10.158458,3.493402,-1.372556,1.008130,0.448553
15677,1.020288,-12.239493,2.662905,-1.077594,0.634571,0.659199
15678,0.930395,-13.235914,2.783643,-0.397207,0.102836,0.890807
15679,1.535029,-12.798266,3.521210,0.444286,-0.392120,1.098917
15680,2.197760,-10.976146,4.559598,1.117266,-0.760193,1.273982
15681,2.815822,-8.950713,5.539098,1.512059,-0.919113,1.395775
15682,2.938109,-7.526263,6.192880,1.683573,-0.866303,1.446220
15683,2.796973,-5.677857,7.058973,1.627968,-0.641754,1.409658
15684,2.683936,-4.289720,7.861312,1.235473,-0.286421,1.318568
15685,2.589052,-4.089777,8.370092,0.627091,0.134820,1.176338
15686,2.621910,-4.656797,8.606169,0.007781,0.562175,1.005110
15687,2.755660,-5.442218,8.546647,-0.438344,0.982439,0.834669
15688,2.571775,-6.530596,7.779010,-0.755183,1.330717,0.736941
15689,1.933266,-7.293814,6.839684,-1.024825,1.555753,0.715981
15690,0.788942,-8.403818,5.669773,-1.265016,1.550133,0.816893
15691,-0.049993,-10.584297,4.918412,-1.288577,1.334575,1.000851
15692,-0.483596,-12.051489,4.929429,-0.959692,0.930105,1.202886
15693,-0.523480,-12.227887,5.047340,-0.367724,0.467108,1.419226
15694,-0.470616,-11.506229,5.588453,0.328647,0.055736,1.617245
15695,-0.121177,-10.260180,6.310654,0.919258,-0.242644,1.790081
15696,0.293529,-9.081682,7.193304,1.358615,-0.334799,1.883444
15697,0.535566,-7.640034,7.475839,1.573188,-0.271798,1.927466
15698,0.478302,-6.437724,8.300001,1.496365,-0.060783,1.906740
15699,0.501518,-5.446756,9.354985,1.219376,0.239198,1.827273
15700,0.410035,-4.452157,10.146224,0.862779,0.635699,1.687191
15701,0.139799,-4.496969,10.688102,0.497081,1.095477,1.544468
15702,0.086076,-5.337673,10.727811,0.287563,1.540390,1.374607
15703,-0.498395,-6.531149,9.521315,0.152642,1.933835,1.272888
15704,-1.584770,-7.073805,7.921978,0.012966,2.155238,1.253006
15705,-2.326924,-7.955760,6.642290,-0.136112,2.164241,1.303354
15706,-3.052841,-8.885947,6.089484,-0.244845,2.035449,1.451955
15707,-3.550631,-9.799462,5.621269,-0.182094,1.748576,1.621086
15708,-3.526739,-10.546978,5.386274,0.078313,1.388839,1.828943
15709,-3.380602,-10.677827,4.921182,0.440145,1.012690,2.019128
15710,-3.401468,-10.363502,4.063159,0.774707,0.636458,2.202247
15711,-3.473550,-9.674005,3.515393,0.966378,0.308100,2.351296
15712,-3.475526,-9.020015,4.122302,1.026178,0.085929,2.437999
15713,-3.554223,-8.236660,4.796398,1.083000,0.055491,2.429466
15714,-3.722741,-7.501682,5.653993,1.094507,0.198923,2.413119
15715,-3.762326,-6.758551,6.394551,1.054495,0.438969,2.374506
15716,-3.481953,-5.770231,7.037765,0.952604,0.788825,2.318191
15717,-3.290435,-5.209481,7.660718,0.783639,1.189472,2.249493
15718,-3.186042,-5.166263,7.203432,0.603837,1.605580,2.192074
15719,-3.844444,-4.945161,6.562002,0.399845,1.952932,2.162530
15720,-4.657640,-4.465308,5.920596,0.049032,2.140380,2.167110
15721,-5.111110,-4.747739,5.451560,-0.386928,2.161939,2.223094
15722,-5.459765,-5.171878,5.082619,-0.735529,2.007383,2.330553
15723,-5.342285,-6.033311,4.892624,-0.893741,1.713574,2.459925
15724,-4.967684,-7.048745,4.372130,-0.743289,1.341474,2.591568
15725,-4.900649,-7.598511,4.178786,-0.314286,0.909078,2.685021
15726,-4.710494,-7.680908,4.506326,0.294531,0.490223,2.748068
15727,-4.241066,-6.858817,5.633072,0.902030,0.178633,2.757214
15728,-3.784962,-5.271005,6.614813,1.346427,0.046839,2.732188
15729,-3.891523,-3.787089,7.158875,1.605936,0.075241,2.648888
15730,-3.972124,-2.448468,7.718312,1.696851,0.205133,2.513887
15731,-4.201868,-1.391580,8.408345,1.667740,0.441867,2.325745
15732,-4.467657,-0.729848,8.874923,1.539652,0.740263,2.111336
15733,-4.995264,-0.710045,9.146102,1.368665,1.099861,1.895519
15734,-5.898083,-1.031927,8.512005,1.166105,1.460250,1.695334
15735,-6.910999,-1.904791,6.922043,0.924338,1.727599,1.597136
15736,-7.791494,-2.438604,5.520128,0.620483,1.785935,1.605363
15737,-8.048710,-2.421276,4.499266,0.284501,1.687397,1.671199
15738,-7.958703,-3.163193,3.821888,0.017641,1.462672,1.814767
15739,-7.991407,-4.091539,3.119536,-0.010670,1.147627,1.986188
15740,-8.050035,-4.292211,2.734498,0.189559,0.736635,2.122826
15741,-7.887485,-3.955064,2.562016,0.438263,0.300438,2.262225
15742,-7.729948,-3.636420,3.034724,0.748737,-0.072235,2.333072
15743,-7.123740,-3.290143,3.966097,1.121964,-0.331367,2.340563
15744,-6.816791,-2.234114,4.799432,1.496369,-0.433675,2.293855
15745,-6.660867,-0.765382,5.710390,1.738211,-0.394146,2.190509
15746,-6.606195,0.536916,6.377983,1.834644,-0.213186,2.036842
15747,-6.567238,1.339299,7.231305,1.837750,0.083057,1.845239
15748,-6.430457,1.642103,7.643807,1.779693,0.467029,1.630987
15749,-6.396688,1.338009,7.826993,1.699508,0.878385,1.416135
15750,-6.182885,1.360070,7.389757,1.589151,1.243326,1.221477
15751,-6.431782,1.404433,5.754727,1.324970,1.537216,1.144772
15752,-7.197240,1.603951,3.957503,0.936222,1.679425,1.111456
15753,-8.151593,0.830300,2.431932,0.530575,1.607678,1.118061
15754,-9.096136,-0.898628,1.532850,0.394841,1.407322,1.149967
15755,-9.673133,-1.998735,1.172466,0.574465,1.015345,1.187923
15756,-9.294618,-1.879459,1.398855,0.874574,0.580363,1.212574
15757,-8.376804,-1.201257,2.000331,1.084177,0.202060,1.230141
15758,-7.559353,-0.291357,2.329751,1.242074,-0.050074,1.224587
15759,-7.221672,0.446882,3.227825,1.374210,-0.212460,1.202265
15760,-6.905905,1.082933,4.079435,1.544927,-0.299930,1.152964
15761,-6.451689,2.019229,5.422689,1.703662,-0.271830,1.067304
15762,-6.067532,2.750294,6.592976,1.814600,-0.142253,0.949018
15763,-5.856697,3.239682,6.728188,1.889199,0.111431,0.806067
15764,-6.098243,2.919682,6.294134,1.990276,0.428262,0.607986
15765,-6.708206,2.447207,5.352210,2.113937,0.765359,0.395555
15766,-7.796632,2.479436,4.551247,2.195691,0.978217,0.209040
15767,-8.268894,3.380863,3.786956,2.035626,1.058522,0.074928
15768,-7.939255,4.698249,3.741669,1.548914,1.092392,-0.015547
15769,-7.254889,4.698608,3.542992,0.835429,1.072975,-0.023474
15770,-7.022382,3.303726,2.505073,0.176753,1.025155,0.052257
15771,-7.684275,1.946043,1.511238,-0.231298,0.855877,0.174154
15772,-8.233539,1.032295,0.885587,-0.408604,0.572021,0.305506
15773,-8.294168,0.552086,1.334745,-0.303787,0.266584,0.392781
15774,-8.090872,0.516467,2.322073,-0.014284,0.020293,0.450534
15775,-7.938996,0.938661,3.330824,0.349036,-0.156089,0.489486
15776,-7.558507,1.909921,4.386161,0.650853,-0.255185,0.468718
15777,-7.196000,3.216365,5.023262,0.786520,-0.217891,0.395864
15778,-7.346376,4.330190,5.543985,0.725185,-0.053469,0.254240
15779,-7.538007,4.779866,5.613566,0.575789,0.138716,0.060362
15780,-7.402146,4.793290,5.425272,0.410585,0.336804,-0.176152
15781,-7.026775,4.722812,5.165099,0.210203,0.508434,-0.405356
15782,-6.707388,4.692971,4.513478,-0.115509,0.642457,-0.571988
15783,-6.783030,3.837626,3.097637,-0.532463,0.698016,-0.630110
15784,-7.671835,2.664195,1.487555,-0.941976,0.599851,-0.573926
15785,-8.582211,1.269193,-0.129520,-1.243702,0.274543,-0.437967
15786,-8.876471,-0.419574,-0.743378,-1.245204,-0.221562,-0.322708
15787,-8.189329,-1.591276,-0.121003,-0.935645,-0.791173,-0.236308
15788,-6.926846,-1.168622,1.305582,-0.450110,-1.265906,-0.237745
15789,-5.840749,0.437388,2.718966,-0.079710,-1.504000,-0.300269
15790,-5.653485,2.102618,3.774248,0.061911,-1.536128,-0.391733
15791,-6.266966,3.493305,4.773170,-0.002458,-1.418773,-0.533072
15792,-7.070833,4.568272,5.514433,-0.144714,-1.201229,-0.762921
15793,-7.360353,4.964614,6.624565,-0.320176,-0.885469,-1.043261
15794,-7.303782,4.739827,7.331410,-0.417272,-0.517933,-1.345714
15795,-6.906124,3.993134,7.681665,-0.494616,-0.117318,-1.598350
15796,-7.009352,3.430401,6.690459,-0.635285,0.251005,-1.736105
15797,-7.830505,3.134330,5.196473,-0.944164,0.457609,-1.722672
15798,-8.241453,2.798435,4.439810,-1.367842,0.513007,-1.670376
15799,-8.313333,0.637898,3.011765,-1.749129,0.410997,-1.538700
15800,-8.546073,-2.176108,1.608135,-1.808294,0.154204,-1.383468
15801,-8.563299,-3.875025,1.001805,-1.536466,-0.299828,-1.248001
15802,-7.982827,-3.928976,0.898507,-1.149010,-0.816392,-1.144922
15803,-7.426077,-2.736867,1.532378,-0.864447,-1.241413,-1.052950
15804,-7.169273,-1.286425,2.503977,-0.709024,-1.540247,-0.997538
15805,-7.594376,-0.453858,3.315148,-0.658553,-1.666123,-0.979879
15806,-8.557893,-0.041570,4.608218,-0.642082,-1.670334,-1.040543
15807,-8.936399,0.448840,5.881268,-0.587850,-1.608638,-1.159735
15808,-8.557968,1.212298,7.167616,-0.548602,-1.406861,-1.324750
15809,-7.829143,1.571095,8.171293,-0.544200,-1.082937,-1.501649
15810,-7.339947,1.361187,8.697557,-0.585939,-0.700227,-1.670236
15811,-7.128703,1.076948,8.346933,-0.669085,-0.355785,-1.824429
15812,-7.180638,0.724381,7.424614,-0.826828,-0.123110,-1.900389
15813,-7.137345,0.791048,6.825451,-1.128450,0.003461,-1.924056
15814,-6.840542,-0.242425,5.489854,-1.499831,0.033232,-1.889027
15815,-7.052324,-2.408325,3.726061,-1.698351,-0.068084,-1.783064
15816,-7.836924,-3.975508,2.603161,-1.617141,-0.327719,-1.646514
15817,-8.614912,-4.213728,2.675887,-1.331667,-0.731012,-1.521835
15818,-8.496998,-3.767465,3.655282,-0.941590,-1.149586,-1.424130
15819,-8.181273,-3.214135,4.377151,-0.589358,-1.446528,-1.338543
15820,-8.257730,-2.675580,5.045510,-0.282410,-1.661062,-1.309678
15821,-7.889977,-2.226195,6.117967,-0.001026,-1.778741,-1.366770
15822,-7.520802,-1.641772,7.211729,0.182462,-1.721453,-1.491978
15823,-7.529585,-1.074522,8.396172,0.260953,-1.470319,-1.674626
15824,-7.540503,-0.935676,9.730754,0.254469,-1.085632,-1.904112
15825,-7.090841,-1.331607,10.326862,0.194994,-0.591726,-2.142942
15826,-6.756746,-1.705651,10.124435,0.116084,-0.063655,-2.388303
15827,-6.264860,-2.480526,9.095021,-0.088937,0.391398,-2.557762
15828,-6.613921,-2.432141,7.370627,-0.502085,0.702847,-2.585667
15829,-7.281447,-2.719143,5.239236,-1.154498,0.741876,-2.493062
15830,-7.630996,-4.507536,3.678586,-1.706493,0.548313,-2.306733
15831,-7.912904,-6.727501,3.112790,-1.768803,0.164370,-2.067449
15832,-7.696148,-8.528342,3.097492,-1.375645,-0.358255,-1.803773
15833,-7.210474,-9.335928,3.169697,-0.680110,-0.897550,-1.571079
15834,-6.535273,-8.927408,3.984925,0.111472,-1.366439,-1.379202
15835,-5.787345,-7.408434,5.288285,0.855982,-1.663218,-1.245573
15836,-5.117529,-5.626722,6.706936,1.325049,-1.763212,-1.161897
15837,-4.736485,-3.753542,8.273964,1.373625,-1.643066,-1.145795
15838,-4.487435,-2.302048,9.596481,1.046421,-1.367350,-1.217360
15839,-3.816726,-1.919897,10.910424,0.560325,-0.946334,-1.393785
15840,-3.178730,-2.108794,11.155414,0.020891,-0.418240,-1.585975
15841,-3.453704,-2.813374,9.772241,-0.580148,0.106711,-1.705259
15842,-4.709892,-3.945920,7.816852,-1.117782,0.465233,-1.729614
15843,-5.643091,-5.664420,6.605192,-1.511558,0.562750,-1.637519
15844,-5.987248,-7.773282,5.346149,-1.598885,0.420674,-1.469862
15845,-6.137891,-9.693386,4.013412,-1.267459,0.099500,-1.242531
15846,-6.730644,-10.215478,2.883981,-0.703012,-0.403449,-0.951607
15847,-6.875800,-9.176945,2.991246,-0.108511,-1.012637,-0.681476
15848,-6.165494,-7.541704,3.660256,0.366668,-1.528209,-0.461013
15849,-5.123373,-5.771981,4.970060,0.678256,-1.840609,-0.329851
15850,-4.238469,-4.284321,6.253989,0.793370,-1.925372,-0.327280
15851,-3.525329,-3.187938,7.438007,0.709953,-1.831443,-0.430982
15852,-2.800989,-2.153669,8.882974,0.549769,-1.543490,-0.674209
15853,-2.236069,-1.534774,10.122851,0.317788,-1.064269,-0.976973
15854,-2.463582,-1.221326,10.242531,-0.061022,-0.508356,-1.287954
15855,-3.089973,-1.432796,9.460584,-0.558276,0.012500,-1.568078
15856,-3.760793,-2.373363,8.613345,-1.125572,0.458526,-1.761183
15857,-4.374757,-3.962910,7.123884,-1.687070,0.729832,-1.826450
15858,-4.993034,-6.338058,5.262983,-2.075762,0.776779,-1.752525
15859,-5.531881,-9.023631,3.453967,-2.066438,0.556476,-1.569726
15860,-5.776353,-10.832806,2.639212,-1.634539,0.088687,-1.326348
15861,-5.684914,-10.751336,2.187656,-1.013432,-0.515434,-1.097979
15862,-5.363325,-9.692267,2.226375,-0.419857,-1.130786,-0.919550
15863,-4.476085,-9.188267,3.088165,0.085867,-1.622129,-0.785021
15864,-3.831617,-8.888805,3.980078,0.601838,-1.948132,-0.733270
15865,-3.558807,-6.770626,4.965484,1.061988,-2.139156,-0.728906
15866,-3.497872,-3.437424,5.608717,1.125470,-2.180137,-0.788693
15867,-3.197685,-1.635133,6.343578,0.779248,-2.047257,-0.915447
15868,-2.398524,-1.360312,7.919279,0.200762,-1.758681,-1.066230
15869,-1.643690,-1.741491,8.738437,-0.448706,-1.322240,-1.282711
15870,-1.326235,-3.314590,8.339721,-0.957137,-0.800405,-1.515002
15871,-1.514574,-5.472638,8.091295,-1.225259,-0.337642,-1.724134
15872,-1.888623,-7.565591,7.387801,-1.260659,-0.012399,-1.851756
15873,-2.310427,-8.392258,7.009910,-1.235993,0.169597,-1.890105
15874,-2.527556,-9.066591,5.732408,-1.328316,0.173795,-1.862224
15875,-2.817877,-9.609316,4.625327,-1.460706,-0.010027,-1.719942
15876,-3.095437,-10.994081,3.893271,-1.385813,-0.382170,-1.478015
15877,-2.900250,-13.309860,3.190858,-0.889507,-0.960414,-1.136352
15878,-2.350754,-14.622133,3.039444,0.167160,-1.653511,-0.808878
15879,-1.055907,-13.731367,4.137433,1.462662,-2.272160,-0.553069
15880,0.435958,-10.784367,5.455865,2.439335,-2.646678,-0.356248
15881,1.528965,-6.777131,6.983798,2.732329,-2.728715,-0.257368
15882,2.491633,-2.742119,8.958661,2.271413,-2.513043,-0.280830
15883,2.998288,0.030280,10.247025,1.175201,-2.045247,-0.404629
15884,2.769849,0.923549,10.469666,-0.193835,-1.457242,-0.656397
15885,2.428949,0.059293,9.986223,-1.493849,-0.865282,-0.941219
15886,2.022163,-3.240664,8.560764,-2.238783,-0.305507,-1.236663
15887,1.596037,-7.260180,7.930608,-2.251449,0.134174,-1.472345
15888,1.038123,-8.969194,8.826995,-1.768761,0.361371,-1.635950
15889,0.788504,-8.724963,8.459008,-1.308121,0.481786,-1.711783
15890,-0.042901,-8.457773,6.526034,-1.139059,0.501573,-1.691949
15891,-1.510632,-7.829472,5.075258,-1.226371,0.236282,-1.569943
15892,-1.722999,-7.571427,4.771284,-1.310031,-0.226970,-1.395713
15893,-0.498149,-9.728650,4.311752,-1.091688,-0.681081,-1.205543
15894,0.969347,-12.982074,4.358114,-0.234303,-1.075185,-1.092054
15895,2.077070,-13.807955,5.270903,1.116473,-1.377473,-1.079947
15896,2.506135,-11.029870,6.011531,2.320725,-1.528082,-1.109512
15897,2.607786,-5.911618,7.281534,2.761028,-1.554687,-1.155208
15898,3.214898,-1.243461,8.973979,2.270881,-1.383461,-1.244207
15899,3.867009,1.094515,10.018022,1.163288,-1.020667,-1.405888
15900,4.578927,0.984201,10.414756,-0.119807,-0.541500,-1.639410
15901,5.323951,-2.080729,10.164363,-1.123060,0.033167,-1.877701
15902,6.075374,-5.502351,9.679662,-1.599440,0.566021,-2.086526
15903,6.512929,-6.589873,9.449456,-1.873453,1.028498,-2.233369
15904,6.528555,-7.702046,6.903697,-2.214230,1.365023,-2.260891
15905,4.651771,-10.085400,4.055009,-2.521650,1.395241,-2.022800
15906,2.337493,-12.889970,2.704023,-2.331116,0.939388,-1.613822
15907,1.775734,-15.716770,2.656102,-1.419062,0.256890,-1.142484
15908,2.890132,-17.234236,2.921915,0.137517,-0.490078,-0.814857
15909,4.848144,-15.481029,4.157222,1.776952,-1.007295,-0.545600
15910,5.932594,-10.882756,5.156532,2.872771,-1.191797,-0.383787
15911,6.108590,-4.951224,6.265463,3.050196,-1.075432,-0.356003
15912,5.533195,-0.371988,7.064642,2.308710,-0.712669,-0.426120
15913,5.014185,1.003922,7.864269,1.039156,-0.290694,-0.591339
15914,4.761496,0.362205,8.347216,-0.179292,0.091677,-0.817466
15915,5.183247,-0.913525,8.263340,-1.175624,0.415945,-1.050276
15916,5.694171,-2.653264,7.646138,-1.938600,0.698196,-1.233635
15917,6.438241,-4.891910,6.964004,-2.418293,0.941129,-1.357122
15918,6.287840,-7.230422,5.146568,-2.626248,1.083813,-1.368054
15919,4.687841,-9.747707,3.705863,-2.533767,1.028800,-1.218713
15920,2.376548,-12.592615,2.765949,-1.984744,0.723889,-0.934924
15921,1.201598,-14.526456,3.185579,-0.817464,0.134714,-0.636001
15922,2.264541,-14.850269,3.812107,0.693238,-0.467852,-0.422795
15923,4.468459,-12.380615,4.574801,2.011428,-0.879130,-0.294680
15924,6.067620,-7.627043,5.291160,2.671872,-0.963584,-0.281377
15925,6.160985,-2.763254,5.877456,2.376918,-0.769440,-0.291728
15926,5.582129,-0.166851,6.398205,1.311421,-0.482748,-0.350342
15927,5.190110,-0.699195,6.416384,0.073524,-0.170955,-0.489446
15928,5.255675,-3.037215,5.784199,-0.828918,0.070114,-0.633086
15929,5.842716,-4.570948,6.255722,-1.344479,0.237084,-0.767137
15930,6.591789,-5.168812,6.209589,-1.785993,0.389124,-0.810977
15931,6.548019,-6.014328,5.307812,-2.176204,0.519267,-0.800549
15932,6.320070,-7.442477,4.262741,-2.343099,0.540192,-0.724351
15933,5.350677,-9.850584,2.794563,-2.120606,0.477096,-0.602137
15934,4.140557,-11.847712,2.702747,-1.349459,0.190841,-0.450031
15935,3.747537,-13.057509,3.222227,-0.141040,-0.204736,-0.320198
15936,4.439012,-12.717477,3.621340,1.216959,-0.630731,-0.215184
15937,6.063769,-10.479988,4.328659,2.325358,-0.922037,-0.134745
15938,6.950385,-7.843060,4.389245,2.819615,-0.994215,-0.071972
15939,7.406496,-4.584030,5.195195,2.706470,-0.980146,-0.062898
15940,7.639913,-2.336318,5.195370,2.068112,-0.793307,-0.117119
15941,7.303388,-1.963788,5.101671,1.219507,-0.561862,-0.191448
15942,6.826946,-2.365395,5.499208,0.441784,-0.366616,-0.271335
15943,7.099107,-1.957598,6.644937,-0.296884,-0.227630,-0.287232
15944,7.740447,-2.087747,8.343814,-1.317502,0.095617,-0.240056
15945,7.128319,-5.905973,5.509416,-1.735220,0.265282,-0.314855
15946,6.578990,-6.800482,5.793936,-1.469131,0.330836,-0.314065
15947,6.581900,-6.749437,6.216360,-1.329042,0.404954,-0.292911
15948,6.957060,-6.806090,5.609851,-1.049256,0.507363,-0.345223
15949,7.174578,-6.160805,5.700691,-0.934127,0.589075,-0.310117
15950,7.432146,-5.697969,5.961831,-0.952484,0.668901,-0.280100
15951,7.807491,-5.510435,6.199527,-0.967692,0.761046,-0.272084
15952,8.302439,-5.214872,6.434432,-1.002665,0.821768,-0.264468
15953,8.932274,-4.492394,5.926619,-1.123110,0.935023,-0.285022
15954,8.968142,-3.459697,4.994464,-1.425831,1.052565,-0.306127
15955,8.661582,-2.065568,4.632857,-1.922187,1.154489,-0.291393
15956,8.716781,-2.774103,4.551281,-2.541538,1.283700,-0.248822
15957,8.676879,-5.663652,3.640283,-2.828372,1.375252,-0.195700
15958,7.891061,-7.882625,2.670724,-2.643891,1.353129,-0.089358
15959,6.118251,-8.348545,1.981461,-2.277629,1.174240,0.039476
15960,4.755579,-8.916919,1.241253,-1.877981,0.852052,0.204346
15961,3.258233,-10.795103,-0.038377,-1.257604,0.453127,0.401173
15962,1.496282,-13.214318,-0.975952,-0.120779,-0.125865,0.589143
15963,0.663166,-13.939984,-0.619596,1.442238,-0.897776,0.760755
15964,1.409272,-12.699655,0.240107,3.015802,-1.653091,0.890913
15965,3.491077,-9.213520,2.364966,4.301853,-2.212024,0.938225
15966,5.709434,-4.725225,5.419512,4.910800,-2.274567,0.848087
15967,6.461854,-1.068616,7.668370,4.656311,-1.995409,0.665677
15968,6.538927,2.011956,9.352721,3.756075,-1.539061,0.343269
15969,6.215898,4.323362,10.002484,2.183429,-0.940576,-0.060783
15970,5.828009,5.156236,9.620513,0.186800,-0.385843,-0.465844
15971,5.959247,4.606930,8.795717,-1.864126,0.116730,-0.907476
15972,6.237420,2.795251,6.985585,-3.780525,0.529877,-1.227719
15973,6.258592,-0.089812,5.346684,-5.301072,0.856142,-1.416948
15974,6.493425,-2.520026,4.221505,-6.449132,1.009741,-1.472889
15975,6.571756,-4.284957,1.875922,-7.367962,1.091197,-1.394517
15976,5.215133,-6.542726,-1.307682,-8.129078,1.051153,-1.116342
15977,3.133195,-10.363412,-3.432826,-8.086476,0.820048,-0.939339
15978,1.718194,-14.837108,-3.374620,-7.085445,0.284847,-0.933731
15979,2.569984,-17.570696,-0.012509,-4.983067,-0.332464,-1.056058
15980,4.804905,-17.683884,2.028039,-2.263798,-0.794881,-1.250707
15981,6.546028,-14.968810,1.516826,0.280232,-1.134168,-1.377368
15982,7.001793,-10.849737,0.466914,2.050520,-1.384345,-1.384320
15983,6.946469,-7.271026,0.195979,2.789251,-1.626846,-1.297705
15984,6.986995,-5.426121,0.300015,2.845690,-1.804652,-1.194702
15985,7.976902,-4.760368,2.279361,2.673246,-1.884252,-1.146849
15986,10.057119,-4.528194,5.134729,2.409137,-1.666019,-1.134728
15987,10.820117,-4.377316,6.008872,1.814794,-1.112419,-1.117998
15988,10.005712,-4.311862,4.042372,0.973726,-0.549408,-1.053448
15989,8.209364,-4.591126,1.767090,0.153325,-0.048004,-1.038178
15990,6.779386,-4.959700,0.954417,-0.556253,0.235283,-1.121531
15991,6.783499,-5.125897,1.263814,-1.122716,0.377548,-1.257830
15992,7.693612,-5.235796,1.812262,-1.623801,0.455116,-1.318661
15993,8.252210,-5.549693,2.089423,-2.135942,0.474189,-1.233402
15994,7.903752,-6.903216,1.618684,-2.398511,0.392754,-1.183480
15995,6.701369,-9.675846,-0.531478,-2.064920,0.068884,-1.172068
15996,5.401515,-13.029611,-1.077758,-0.875554,-0.494225,-1.191279
15997,5.666998,-15.285575,-1.623931,1.047552,-1.299929,-1.171190
15998,7.211926,-15.098459,-2.180789,2.999453,-1.939636,-1.058381
15999,8.577980,-13.195828,-1.979307,4.552952,-2.361513,-0.887735
16000,9.764066,-9.466320,0.940503,5.434998,-2.462310,-0.698237
16001,10.724482,-5.589953,3.125356,5.292707,-2.177696,-0.534976
16002,10.727017,-2.350785,4.096795,4.290061,-1.630197,-0.418898
16003,10.007327,-0.261757,4.143957,2.766425,-0.982823,-0.349457
16004,8.789494,0.750827,4.546232,0.976717,-0.337812,-0.379140
16005,7.640904,0.900284,5.123823,-0.812727,0.196680,-0.517493
16006,7.190597,-0.232337,4.598754,-2.484278,0.614704,-0.618280
16007,6.875514,-2.339245,3.526475,-3.750356,0.894317,-0.646615
16008,6.567484,-5.145951,1.899964,-4.434123,0.991030,-0.646817
16009,6.019719,-8.568798,0.308229,-4.307831,0.868432,-0.665574
16010,4.903690,-11.975416,-0.736457,-3.308951,0.535087,-0.714482
16011,4.197396,-14.239749,-0.914853,-1.522668,-0.072202,-0.796697
16012,4.766510,-13.831495,-1.041658,0.489139,-0.756275,-0.833979
16013,5.772248,-12.132661,-1.374460,2.254740,-1.367980,-0.836948
16014,6.941828,-9.623252,-0.823850,3.570356,-1.842598,-0.804627
16015,7.872932,-7.426095,0.182753,4.402472,-2.169707,-0.732581
16016,9.382247,-5.307717,2.911190,4.795975,-2.291988,-0.660589
16017,11.677576,-2.281162,7.762258,4.652617,-1.936551,-0.638023
16018,12.195831,1.095256,7.993317,3.565705,-1.171770,-0.622179
16019,10.430883,2.883611,4.992319,1.893295,-0.421417,-0.543970
16020,8.323889,2.474010,2.541053,0.002892,0.081962,-0.568158
16021,7.199906,0.645896,1.540731,-1.655459,0.461905,-0.743154
16022,7.461582,-1.157554,1.755376,-2.793772,0.748419,-1.001594
16023,8.205631,-2.470533,2.179699,-3.579352,1.043754,-1.128841
16024,8.180101,-3.904641,1.576289,-4.071246,1.212047,-1.100370
16025,7.859110,-5.795735,0.788792,-4.195655,1.183648,-1.090779
16026,7.093130,-8.711821,0.101323,-3.646389,0.991106,-1.120738
16027,6.212773,-11.884111,-0.256629,-2.233804,0.528232,-1.180656
16028,6.073144,-13.108352,1.063683,-0.309405,-0.044155,-1.251296
16029,7.433801,-11.105298,2.105493,1.413308,-0.522925,-1.250641
16030,8.610883,-7.669905,2.251112,2.491565,-0.766830,-1.211552
16031,9.012626,-4.866787,2.057607,2.863940,-0.875681,-1.138580
16032,9.563676,-2.982311,3.726945,2.792466,-0.839281,-1.096301
16033,10.552186,-1.174605,4.746405,2.205110,-0.581800,-1.076022
16034,10.562481,0.400839,3.682962,1.157780,-0.200998,-1.014976
16035,10.169346,0.882946,2.413262,-0.133503,0.158274,-0.957776
16036,9.498712,-0.177507,0.846378,-1.425965,0.460831,-0.912959
16037,8.959566,-2.428961,-0.314301,-2.398150,0.671263,-0.894127
16038,8.804107,-4.125298,-0.341023,-2.959716,0.801263,-0.926724
16039,8.805763,-5.034635,0.146346,-3.211462,0.897819,-0.924527
16040,8.765601,-5.352915,0.559956,-3.315854,0.948721,-0.891062
16041,8.628283,-5.567810,1.200701,-3.280102,0.959940,-0.869523
16042,8.485150,-5.590867,1.792287,-3.147130,0.952990,-0.864543
16043,8.114461,-5.573027,2.369267,-2.930787,0.905675,-0.843683
16044,8.046868,-5.587900,2.784474,-2.673468,0.803190,-0.821939
16045,8.446892,-5.938800,2.631014,-2.420247,0.673788,-0.756219
16046,8.677226,-6.518271,2.121289,-2.028077,0.573298,-0.680577
16047,8.659968,-6.840472,1.629904,-1.530341,0.467101,-0.622467
16048,8.847888,-6.891707,1.379444,-0.982503,0.340524,-0.582445
16049,9.028048,-6.741880,1.486493,-0.491480,0.270850,-0.528384
16050,9.515978,-6.682753,1.597127,-0.057369,0.214324,-0.446077
16051,9.781478,-6.281730,1.492953,0.295243,0.234802,-0.355696
16052,9.756925,-5.728259,1.135866,0.556822,0.248948,-0.277651
16053,9.613274,-5.154444,0.834639,0.722509,0.258154,-0.202563
16054,9.482073,-4.645273,0.679353,0.805009,0.252972,-0.137303
16055,9.489281,-4.418291,0.566474,0.829852,0.257442,-0.079950
16056,9.410818,-4.250498,0.649459,0.854929,0.231838,-0.034371
16057,9.433964,-4.675564,0.671483,0.974710,0.242146,-0.000819
16058,9.353177,-5.734684,0.615920,1.294428,0.243052,0.007086
16059,9.408937,-6.082377,0.728714,1.692614,0.239980,0.036386
16060,9.169826,-5.631322,1.025323,2.071659,0.243430,0.072188
16061,9.103745,-4.529143,1.527458,2.264093,0.217494,0.119663
16062,9.185270,-3.364809,1.895401,2.222413,0.215903,0.187631
16063,9.128773,-2.479206,2.188107,1.985145,0.233590,0.270359
16064,9.062327,-1.947606,2.392379,1.616013,0.257938,0.351504
16065,8.885817,-1.687572,2.519767,1.186935,0.275324,0.438253
16066,8.844067,-1.643826,2.542183,0.748196,0.268699,0.503592
16067,8.841382,-1.751207,2.504164,0.338773,0.270215,0.556325
16068,8.870291,-2.025501,2.424602,-0.010572,0.261003,0.602075
16069,8.931073,-2.271817,2.354376,-0.271390,0.259672,0.624636
16070,8.965224,-2.592863,2.344036,-0.456785,0.243485,0.639729
16071,9.018674,-2.720342,2.249043,-0.599085,0.240729,0.641274
16072,9.032200,-2.863046,2.157004,-0.680249,0.230593,0.633218
16073,8.956362,-3.000898,1.993210,-0.714141,0.214904,0.620437
16074,8.884668,-3.247935,1.891328,-0.692089,0.191604,0.593987
16075,8.871257,-3.449576,1.852746,-0.614899,0.161927,0.556846
16076,8.927036,-3.548479,1.873083,-0.493933,0.132153,0.523780
16077,8.838547,-3.527681,1.956856,-0.357189,0.108915,0.486940
16078,8.850552,-3.425711,2.056250,-0.211531,0.078930,0.452798
16079,8.802792,-3.331814,2.115539,-0.085504,0.060687,0.411684
16080,8.793657,-3.260717,2.161802,0.037849,0.036965,0.372974
16081,8.818645,-3.149988,2.374593,0.158551,0.015528,0.329023
16082,8.945141,-2.908698,2.504773,0.232439,0.010696,0.279631
16083,9.038099,-2.558085,2.504666,0.234782,0.017249,0.233823
16084,8.986050,-2.281382,2.464549,0.162167,0.038744,0.182760
16085,8.832621,-2.230527,2.392100,0.058008,0.037737,0.129344
16086,8.788554,-2.429984,2.359636,-0.060369,0.038238,0.067489
16087,8.831854,-2.676919,2.310785,-0.129067,0.027422,0.015385
16088,8.820619,-2.851269,2.306612,-0.162935,0.019399,-0.044473
16089,8.835452,-2.904981,2.286617,-0.171806,0.009264,-0.093740
16090,8.819245,-2.974037,2.304523,-0.180549,0.000638,-0.138327
16091,8.813713,-2.957595,2.338963,-0.195481,-0.009976,-0.178671
16092,8.804988,-2.979590,2.363151,-0.206673,-0.018343,-0.208740
16093,8.845448,-3.123907,2.271074,-0.213413,-0.035005,-0.239123
16094,8.834307,-3.246605,2.248797,-0.204765,-0.047169,-0.268591
16095,8.871965,-3.311896,2.154855,-0.195797,-0.063089,-0.293472
16096,8.897645,-3.344404,2.124688,-0.193070,-0.082529,-0.318790
16097,8.924711,-3.464937,2.106339,-0.190460,-0.101974,-0.338884
16098,8.982000,-3.603865,2.037777,-0.175952,-0.114645,-0.354338
16099,9.012778,-3.720092,2.016411,-0.142709,-0.138248,-0.371815
16100,9.072643,-3.817914,2.102013,-0.091846,-0.147607,-0.383615
16101,9.126122,-3.905157,2.156288,-0.029418,-0.151485,-0.390308
16102,9.114318,-3.916675,2.229952,0.034308,-0.144902,-0.390464
16103,9.073980,-3.815112,2.268817,0.069644,-0.134111,-0.380164
16104,9.103248,-3.680018,2.263446,0.074607,-0.125763,-0.360123
16105,9.146464,-3.498711,2.357914,0.042263,-0.116052,-0.339812
16106,9.255434,-3.421576,2.555440,-0.016722,-0.108121,-0.309378
16107,9.386058,-3.347039,2.801464,-0.097513,-0.080365,-0.277265
16108,9.500139,-3.287844,3.029925,-0.194175,-0.056460,-0.237513
16109,9.637318,-3.334098,3.116584,-0.288826,-0.017934,-0.197937
16110,9.636213,-3.450990,3.075972,-0.376528,0.020635,-0.146678
16111,9.545916,-3.421584,3.024386,-0.450689,0.062563,-0.110652
16112,9.342111,-3.559923,2.776338,-0.487305,0.089859,-0.074104
16113,9.188763,-3.649394,2.490989,-0.495607,0.105166,-0.047181
16114,9.196731,-3.735805,2.274689,-0.481553,0.109293,-0.021637
16115,9.249938,-3.753248,2.121644,-0.452486,0.116986,0.000046
16116,9.230459,-3.813251,2.087976,-0.418513,0.122198,0.017614
16117,9.183235,-3.815956,2.117074,-0.369169,0.139522,0.037132
16118,9.027295,-3.866242,2.125951,-0.323434,0.145180,0.054439
16119,8.853986,-3.863198,2.156255,-0.278924,0.146073,0.071818
16120,8.750452,-3.891020,2.179212,-0.230659,0.139743,0.085142
16121,8.657427,-3.853376,2.127163,-0.171441,0.126481,0.095600
16122,8.649501,-3.836504,2.085108,-0.107982,0.104937,0.098766
16123,8.728514,-3.868476,2.099644,-0.040873,0.082905,0.097599
16124,8.802654,-3.882697,2.010369,0.031240,0.069313,0.089095
16125,8.812858,-3.914442,1.951724,0.110281,0.058509,0.084552
16126,8.850651,-3.863747,1.967780,0.182011,0.036408,0.070257
16127,8.927308,-3.768887,1.932064,0.240897,0.017383,0.067318
16128,9.031537,-3.592437,1.969005,0.270155,0.006246,0.060522
16129,9.086546,-3.460281,1.966979,0.280008,0.001090,0.057604
16130,9.143288,-3.355837,2.010578,0.271058,-0.008508,0.058084
16131,9.177765,-3.251761,2.002710,0.241390,-0.008669,0.066822
16132,9.180551,-3.172152,2.031105,0.209504,-0.014178,0.072706
