// Start Time: Unknown
// Update Rate: 100.0Hz
// Filter Profile: human (46.1)
// Firmware Version: 4.3.5
PacketCounter,Acc_X,Acc_Y,Acc_Z,Gyr_X,Gyr_Y,Gyr_Z
65291,9.838275,-0.793650,-0.639814,-0.018198,0.004414,-0.006084
65292,9.826892,-0.806884,-0.623294,-0.055057,0.005381,-0.006199
65293,9.813474,-0.856554,-0.639592,-0.080345,0.006995,0.001769
65294,9.821531,-0.915065,-0.648238,-0.103736,0.005881,0.007485
65295,9.841640,-0.960018,-0.600105,-0.111639,0.008799,0.006692
65296,9.851075,-0.982089,-0.649413,-0.122351,0.009086,0.009272
65297,9.828115,-1.010464,-0.617031,-0.125084,0.013097,0.008466
65298,9.781622,-1.066483,-0.625383,-0.125149,0.011653,0.007909
65299,9.824679,-1.083101,-0.609821,-0.114121,0.010425,0.003375
65300,9.821685,-1.136733,-0.659572,-0.101104,0.007145,0.003585
65301,9.812694,-1.095686,-0.667167,-0.077603,0.012661,-0.000412
65302,9.834325,-1.103532,-0.658645,-0.068395,0.017074,-0.001545
65303,9.812916,-1.094551,-0.665759,-0.058959,0.012409,-0.001055
65304,9.791496,-1.085669,-0.672888,-0.047004,0.014282,-0.000813
65305,9.825597,-1.061477,-0.663885,-0.040336,0.010687,-0.002269
65306,9.815205,-1.057307,-0.630397,-0.034720,0.013723,-0.003112
65307,9.813358,-1.092481,-0.662635,-0.029239,0.010912,-0.006241
65308,9.792927,-1.065732,-0.653086,-0.019226,0.011777,0.001574
65309,9.794507,-1.028492,-0.692052,-0.007294,0.014448,-0.004625
65310,9.830578,-0.968580,-0.649426,-0.010106,0.011798,-0.001268
65311,9.862739,-0.980225,-0.673013,-0.020382,0.016289,-0.005397
65312,9.852369,-0.975964,-0.638936,-0.030696,0.017054,-0.004226
65313,9.851977,-0.994651,-0.580882,-0.038203,0.018204,-0.000541
65314,9.843065,-0.953609,-0.586802,-0.042568,0.019577,-0.002754
65315,9.822650,-0.926747,-0.576721,-0.063270,0.018186,-0.001562
65316,9.798772,-0.972804,-0.560084,-0.080772,0.017676,0.000746
65317,9.860895,-1.052830,-0.512279,-0.091138,0.016990,0.001345
65318,9.855434,-1.181855,-0.407944,-0.098529,0.026266,0.001467
65319,9.985743,-1.436686,-0.355425,-0.087762,0.028928,0.000058
65320,10.363142,-1.546124,-0.362944,0.000788,0.075951,0.012865
65321,10.396918,-1.279430,-0.604907,0.055201,0.162859,0.046439
65322,10.060869,-1.012278,-0.436085,-0.015023,0.138065,0.114225
65323,9.995133,-0.801763,-0.159478,-0.102522,0.096631,0.147604
65324,10.245017,-0.825716,-0.087675,-0.332683,0.073190,0.191713
65325,9.949707,-1.623982,-0.062438,-0.470445,0.125396,0.252693
65326,9.901798,-2.018764,0.255532,-0.525532,0.128807,0.343894
65327,10.310540,-1.854316,0.196236,-0.692525,0.201218,0.480586
65328,10.290210,-1.755572,-0.266900,-0.948308,0.295126,0.644899
65329,9.712282,-1.981269,-0.891705,-1.243917,0.278255,0.792398
65330,9.579048,-2.588865,-1.322340,-1.422115,0.130097,0.887173
65331,9.678748,-3.000459,-1.511521,-1.415087,0.000601,0.956762
65332,9.828800,-3.244171,-1.820654,-1.395019,-0.145010,1.041510
65333,10.167697,-3.376574,-1.978707,-1.351366,-0.310519,1.137386
65334,10.609294,-3.517956,-1.883241,-1.377951,-0.436867,1.247497
65335,10.843130,-3.960540,-2.450956,-1.419976,-0.587424,1.370948
65336,11.045403,-4.177145,-2.890646,-1.382239,-0.764443,1.519701
65337,11.075991,-4.308277,-3.349507,-1.356576,-0.975484,1.669577
65338,11.039003,-4.561899,-3.613364,-1.308343,-1.178610,1.798221
65339,10.849319,-4.947016,-4.154634,-1.179285,-1.392825,1.890520
65340,10.776277,-5.188582,-4.455938,-0.921245,-1.627882,1.937381
65341,11.016472,-5.466143,-4.722153,-0.607200,-1.832191,1.970192
65342,11.245460,-5.953019,-5.254626,-0.262978,-2.008770,2.041427
65343,11.502664,-6.324209,-5.254697,0.037933,-2.176843,2.146071
65344,11.695464,-6.834696,-5.279161,0.263352,-2.280591,2.266113
65345,11.626465,-7.225314,-5.606580,0.544182,-2.346473,2.416622
65346,11.299029,-7.026959,-5.554114,0.787552,-2.414653,2.559889
65347,10.853003,-6.416718,-5.563890,0.966399,-2.464660,2.681881
65348,10.348011,-6.068613,-5.729158,1.004399,-2.496355,2.810959
65349,9.971085,-6.293225,-5.878796,0.964696,-2.512612,2.927847
65350,9.416064,-7.071646,-6.013277,0.974318,-2.518928,3.015730
65351,8.619771,-6.941125,-6.241439,1.010381,-2.579066,3.105826
65352,8.400031,-6.656138,-5.886695,0.848987,-2.616341,3.172821
65353,7.799991,-6.977706,-5.793054,0.708589,-2.615469,3.241811
65354,7.224359,-7.244940,-5.654519,0.594366,-2.632560,3.309438
65355,6.724244,-7.667337,-5.407047,0.542167,-2.628191,3.367022
65356,6.254854,-8.160372,-5.453058,0.618552,-2.667799,3.413135
65357,6.007840,-7.844096,-5.465975,0.637114,-2.664196,3.438767
65358,5.097608,-7.893726,-5.668129,0.570580,-2.704349,3.504601
65359,4.566225,-7.946821,-5.825482,0.415898,-2.807805,3.571285
65360,4.182001,-8.435921,-6.021813,0.319328,-2.896923,3.619736
65361,3.871535,-8.409072,-5.289966,0.323832,-2.942101,3.597247
65362,3.257872,-8.678428,-5.158481,0.462207,-2.962433,3.539681
65363,2.768849,-8.704226,-4.620817,0.737834,-2.977827,3.524228
65364,2.439311,-8.446621,-4.167025,0.982732,-2.973364,3.484990
65365,2.005088,-8.909060,-4.876497,1.139023,-2.977419,3.503283
65366,2.164405,-8.648544,-4.468390,1.272253,-2.980943,3.546676
65367,1.747375,-8.548423,-5.002064,1.282929,-2.943196,3.515491
65368,1.119391,-8.774643,-5.345610,1.319298,-2.936920,3.533623
65369,0.987330,-8.393563,-4.721982,1.404946,-2.918186,3.494419
65370,0.477993,-7.690368,-4.074247,1.497767,-2.847778,3.380515
65371,-0.213268,-7.179771,-3.502912,1.571453,-2.757521,3.273258
65372,-0.732051,-6.871872,-3.070302,1.617886,-2.652055,3.163762
65373,-1.293634,-6.883267,-2.944651,1.677729,-2.545859,3.061660
65374,-1.815624,-6.847156,-2.795360,1.699445,-2.466079,2.950719
65375,-2.173224,-7.207743,-3.099258,1.695066,-2.396505,2.843142
65376,-2.331182,-7.285664,-2.957238,1.674699,-2.345422,2.737865
65377,-2.540943,-7.153622,-3.012660,1.665776,-2.278077,2.599577
65378,-2.873567,-6.897361,-2.669287,1.662358,-2.206847,2.441984
65379,-3.098609,-6.267376,-2.186095,1.709201,-2.124123,2.235661
65380,-3.520441,-5.540538,-1.820825,1.755622,-2.006956,1.980582
65381,-3.950804,-5.479547,-1.610950,1.786672,-1.889334,1.733838
65382,-4.301738,-5.781315,-1.371304,1.819319,-1.780058,1.508731
65383,-4.320080,-6.073545,-1.277273,1.861176,-1.668127,1.261316
65384,-4.321142,-6.193515,-1.067607,1.973045,-1.518636,1.023282
65385,-4.554923,-5.722684,-1.101327,2.061145,-1.383117,0.759792
65386,-4.470609,-4.825671,-1.022076,1.992560,-1.238574,0.509779
65387,-4.352754,-4.210887,-1.069652,1.735370,-1.081052,0.281131
65388,-4.482361,-4.214585,-1.093648,1.479982,-0.969610,-0.016141
65389,-4.647289,-4.792722,-1.136484,1.366651,-0.905728,-0.341513
65390,-4.572789,-5.309092,-0.764417,1.405963,-0.873148,-0.673738
65391,-4.279020,-5.569291,-0.544164,1.556028,-0.803729,-1.003136
65392,-4.047334,-5.221595,-0.405805,1.718874,-0.714670,-1.307961
65393,-3.546292,-4.390966,-0.062752,1.660816,-0.614817,-1.595714
65394,-3.046449,-3.772206,-0.048386,1.383886,-0.515559,-1.879774
65395,-2.622995,-3.838103,-0.036944,1.022547,-0.457531,-2.148952
65396,-2.279335,-4.618994,-0.555545,0.804610,-0.431440,-2.458999
65397,-1.859140,-5.453280,-1.157201,0.931558,-0.442692,-2.796956
65398,-1.161542,-5.778315,-1.009165,1.247504,-0.455738,-3.122066
65399,-0.359890,-5.653208,-0.740602,1.618727,-0.402889,-3.440449
65400,0.233959,-5.228010,-0.000349,1.830405,-0.338230,-3.688525
65401,1.203002,-5.100196,0.877310,1.733812,-0.293269,-3.898319
65402,2.078075,-5.808919,0.948771,1.592953,-0.213939,-4.100522
65403,2.707780,-6.600259,0.854478,1.655041,-0.149457,-4.322395
65404,3.378214,-7.090990,1.134979,1.902021,-0.067857,-4.545949
65405,3.926576,-7.214564,1.588052,2.289469,0.031992,-4.781502
65406,5.026043,-7.050793,2.645769,2.683062,0.165439,-5.009545
65407,6.551550,-6.777866,3.664254,2.981573,0.384313,-5.198829
65408,7.683471,-5.973361,4.086522,3.139009,0.611275,-5.305911
65409,8.981747,-5.284844,4.216294,2.952867,0.774398,-5.344912
65410,10.931076,-5.366300,4.875221,2.493820,0.989793,-5.300491
65411,12.139324,-5.757516,5.081914,2.008296,1.225506,-5.163897
65412,12.236953,-6.136248,4.480114,1.588378,1.380608,-4.888868
65413,12.090869,-6.453154,3.363195,1.191397,1.405444,-4.568048
65414,12.098820,-6.879442,2.407747,0.701405,1.304811,-4.145250
65415,12.293468,-8.403220,2.466343,-0.070200,1.110331,-3.552974
65416,12.301824,-12.040119,3.021762,-1.007753,1.013344,-2.763695
65417,10.251845,-15.971615,0.928770,-1.194016,1.000514,-1.821800
65418,6.102549,-17.395855,-0.204396,-0.688880,0.705452,-0.842874
65419,3.659894,-13.591734,0.934605,0.351105,0.169952,-0.223756
65420,3.454128,-6.649456,3.341437,1.085124,-0.266121,-0.214282
65421,4.599680,-1.902588,5.026437,0.798520,-0.448399,-0.263894
65422,6.013833,-1.478098,5.943508,-0.295134,-0.426414,-0.148994
65423,7.025788,-3.700526,6.181334,-1.290970,-0.315302,-0.013915
65424,7.107984,-5.853481,5.995322,-1.685971,-0.190050,0.036846
65425,6.832417,-6.971429,5.447318,-1.668558,-0.130664,0.032174
65426,6.660290,-7.629110,4.585435,-1.545522,-0.107016,0.024617
65427,6.746470,-8.599670,3.738443,-1.446345,-0.083885,0.009935
65428,6.677495,-9.851005,3.050244,-1.216559,-0.051219,-0.017833
65429,6.236539,-10.689452,2.595293,-0.826427,-0.039291,-0.043045
65430,5.666269,-11.176034,2.208307,-0.343233,-0.077885,-0.007744
65431,5.467036,-10.943653,2.367481,0.128646,-0.130255,0.019097
65432,5.583140,-10.037024,3.032796,0.463296,-0.127507,0.006863
65433,5.721686,-8.757612,3.985299,0.614858,-0.067698,-0.046266
65434,5.583443,-7.695026,4.479166,0.530477,-0.012711,-0.093351
65435,5.428282,-7.057372,4.430633,0.311997,0.018218,-0.110341
65436,5.318171,-6.872773,4.132900,0.069996,0.015102,-0.114876
65437,5.340969,-6.856467,4.026901,-0.135137,0.017342,-0.113344
65438,5.371063,-6.863301,3.856936,-0.301882,0.032562,-0.086382
65439,5.424156,-6.748419,3.690540,-0.435734,0.045788,-0.047321
65440,5.512958,-6.456189,3.391470,-0.544393,0.048446,-0.010127
65441,5.818327,-6.086818,3.149316,-0.651032,0.051241,0.022732
65442,6.247678,-5.319802,2.934153,-0.754280,0.072994,0.047798
65443,6.273075,-4.260630,2.910693,-0.971401,0.076789,0.043507
65444,5.746453,-4.310159,2.414594,-1.359844,0.023456,0.057109
65445,5.222926,-5.521570,2.194421,-1.682232,-0.021049,0.079623
65446,4.823630,-6.938337,1.908180,-1.794776,-0.042045,0.106259
65447,4.604718,-8.229631,1.589156,-1.728910,-0.073990,0.157628
65448,4.527484,-8.700397,1.226173,-1.540684,-0.132537,0.248759
65449,4.661045,-8.215092,1.217989,-1.435274,-0.250931,0.353464
65450,4.896508,-7.360674,1.408897,-1.625824,-0.385841,0.485328
65451,4.970418,-6.944711,1.271103,-2.082200,-0.520205,0.649616
65452,4.893955,-7.480705,0.813256,-2.624557,-0.691684,0.773299
65453,4.836085,-8.927471,0.084181,-2.936513,-0.847252,0.867404
65454,4.847502,-10.571466,-0.552684,-2.892015,-1.011896,0.953387
65455,5.203802,-11.438176,-0.832694,-2.622727,-1.175888,1.040982
65456,5.695391,-11.256153,-0.979492,-2.377702,-1.323124,1.170666
65457,5.884263,-10.724554,-1.434376,-2.264341,-1.492921,1.280892
65458,5.791788,-10.605504,-2.049467,-2.165984,-1.699596,1.315154
65459,5.668256,-10.948862,-2.213081,-1.971826,-1.929423,1.341837
65460,5.790913,-11.581266,-2.262136,-1.791869,-2.129426,1.412317
65461,6.086815,-12.404862,-2.672103,-1.552961,-2.303829,1.497066
65462,6.471764,-13.289664,-3.154489,-1.125804,-2.459236,1.535249
65463,6.867702,-14.005006,-3.646326,-0.545769,-2.605216,1.594765
65464,7.257662,-14.197513,-4.263381,0.107003,-2.751087,1.697006
65465,7.358865,-13.581682,-4.667731,0.692288,-2.911815,1.809016
65466,7.318978,-12.491632,-4.635512,0.982695,-3.085586,1.943130
65467,7.340164,-11.586239,-4.189762,0.890891,-3.223166,2.068663
65468,7.177664,-11.380764,-3.900605,0.623487,-3.316002,2.145979
65469,6.897830,-11.673913,-3.575139,0.341181,-3.375155,2.231873
65470,6.480035,-12.106592,-3.468704,0.139989,-3.407213,2.298251
65471,5.927004,-12.515275,-3.430707,0.064736,-3.421498,2.349801
65472,5.394151,-12.328599,-2.901708,0.049853,-3.408113,2.421003
65473,4.724537,-11.796206,-2.567033,-0.063231,-3.374686,2.505924
65474,4.183810,-11.448685,-2.295840,-0.213472,-3.310972,2.569114
65475,3.573024,-11.008069,-1.761822,-0.285765,-3.214922,2.604369
65476,2.811950,-10.297814,-1.534377,-0.327904,-3.107855,2.605621
65477,2.074980,-9.956255,-1.510699,-0.384856,-2.991617,2.633129
65478,1.648774,-9.617827,-1.204141,-0.381094,-2.871637,2.666128
65479,1.430243,-9.104098,-0.616264,-0.445011,-2.716283,2.652753
65480,1.004661,-9.169307,-0.542756,-0.483728,-2.567758,2.660650
65481,0.563813,-9.546796,-0.584218,-0.415306,-2.439607,2.691989
65482,0.137879,-9.633374,-1.124681,-0.234677,-2.329349,2.729862
65483,-0.037574,-9.121499,-0.831359,-0.054881,-2.216391,2.775262
65484,-0.295001,-8.570394,-0.839319,0.033599,-2.092948,2.804437
65485,-0.526808,-8.002168,-0.413382,0.113593,-1.930407,2.814762
65486,-0.886746,-7.620514,-0.215063,0.122710,-1.763831,2.821034
65487,-1.058209,-7.637817,0.002782,0.197645,-1.563396,2.813840
65488,-1.333629,-7.949893,0.049735,0.388956,-1.345453,2.801526
65489,-1.558083,-8.078322,0.294205,0.684777,-1.122071,2.803260
65490,-1.836739,-7.955723,-0.252416,1.036231,-0.903069,2.801972
65491,-1.919620,-7.514179,0.432781,1.362216,-0.676485,2.837557
65492,-1.797211,-6.839197,0.912710,1.522046,-0.396219,2.833123
65493,-2.029591,-6.428978,0.348491,1.697569,-0.126547,2.818656
65494,-2.271302,-5.715397,0.588823,1.859429,0.154437,2.777751
65495,-2.477331,-4.636823,0.158295,1.875448,0.381817,2.695430
65496,-2.630931,-3.937271,0.141335,1.744281,0.586718,2.594240
65497,-2.485227,-3.354500,1.000402,1.477916,0.876612,2.488654
65498,-2.850470,-2.245788,1.312492,1.209598,1.172963,2.320952
65499,-3.185506,-0.854404,2.268708,0.792046,1.481209,2.125303
65500,-3.631757,0.087301,2.340341,0.137270,1.787767,1.930023
65501,-3.689159,0.608227,2.608546,-0.566033,2.073476,1.730143
65502,-3.711247,0.724251,2.180832,-1.315973,2.345271,1.553722
65503,-3.496409,0.560945,2.006317,-1.991496,2.615087,1.407642
65504,-3.496096,-0.017787,1.479408,-2.587615,2.916183,1.290908
65505,-3.817676,-1.096812,0.124734,-2.954806,3.177881,1.212898
65506,-4.034337,-2.405268,-0.481051,-3.040603,3.415679,1.160451
65507,-4.122644,-3.279002,-1.243392,-2.871353,3.657294,1.075236
65508,-4.128104,-3.417005,-1.708359,-2.544909,3.929074,0.968924
65509,-4.271650,-3.295934,-1.948475,-2.264054,4.204192,0.825957
65510,-4.315054,-2.852384,-2.422265,-2.014113,4.423364,0.744497
65511,-4.283780,-2.145995,-2.834015,-1.896913,4.602746,0.676553
65512,-4.199511,-1.365980,-2.923984,-1.984682,4.766101,0.558913
65513,-4.130053,-0.819277,-2.219739,-2.249873,4.932418,0.438169
65514,-3.710088,-1.116096,-2.274124,-2.456446,5.076663,0.289665
65515,-3.675167,-1.688757,-2.879542,-2.462780,5.276870,0.181467
65516,-3.416339,-2.012613,-2.744836,-2.395336,5.413487,0.069016
65517,-2.420273,-1.899591,-2.443583,-2.326977,5.516739,-0.080170
65518,-1.594659,-1.613041,-2.813033,-2.379327,5.730333,-0.159350
65519,-1.056392,-1.432675,-3.201643,-2.494849,5.938359,-0.217725
65520,-0.665168,-1.550560,-6.188363,-2.659693,6.064404,-0.223288
65521,-0.888480,-1.697459,-11.116112,-2.698942,5.904414,0.009486
65522,-0.436549,-3.312442,-12.838356,-2.809873,5.668922,0.203136
65523,-0.102052,-5.299556,-14.991183,-2.627734,5.585436,0.256346
65524,-0.849214,-6.778191,-15.392949,-1.984491,5.511576,0.270678
65525,-1.739179,-7.568604,-13.789735,-1.170546,5.340869,0.138669
65526,-1.962684,-7.988076,-12.771846,-0.188104,5.274560,-0.045800
65527,-2.338050,-8.024572,-11.580474,0.872300,5.235675,-0.183302
65528,-1.724265,-7.731051,-9.337623,1.728272,5.107784,-0.336466
65529,-0.626958,-7.288386,-8.152491,2.476646,5.036715,-0.466619
65530,0.481415,-6.967207,-9.019013,3.118120,5.012059,-0.590432
65531,0.798100,-6.735519,-12.008712,3.881093,4.921621,-0.685952
65532,1.346715,-5.866791,-11.152700,4.482207,4.693029,-0.864741
65533,2.323640,-5.210459,-12.253571,4.794749,4.583641,-1.145374
65534,1.169062,-5.913052,-16.950125,5.339671,4.309069,-1.332340
65535,0.668500,-6.546354,-16.570658,5.741866,3.639890,-1.600809
00000,2.038991,-6.875336,-14.690990,5.905524,3.081714,-2.146638
00001,2.893251,-7.249976,-12.522030,6.238030,3.015017,-2.671567
00002,2.102952,-7.243643,-10.442088,6.732998,3.045619,-3.060391
00003,1.612262,-6.247800,-7.750505,7.276349,2.979150,-3.431472
00004,2.163653,-4.673643,-5.064834,7.684174,2.970967,-3.796710
00005,2.945004,-3.011434,-3.543084,7.925474,3.007186,-4.140581
00006,3.617799,-1.116853,-2.349055,7.880257,2.926532,-4.501610
00007,4.423142,0.762208,-1.280188,7.407322,2.695426,-4.831717
00008,5.558848,2.076516,-0.565514,6.536906,2.413207,-5.098604
00009,6.819171,2.664180,-0.188558,5.398623,2.134706,-5.284561
00010,8.159093,2.490575,0.666221,4.093736,1.927741,-5.460906
00011,9.375417,0.534026,0.452716,2.829389,1.664903,-5.741320
00012,10.951768,-2.907127,-1.521211,2.221539,1.301042,-5.994277
00013,12.919204,-7.097100,-2.783835,2.256486,0.882999,-6.128265
00014,15.657965,-10.065562,-2.883959,2.705399,0.558971,-6.139644
00015,19.007019,-12.271879,-2.223794,3.108715,0.162418,-5.918283
00016,22.193002,-13.574760,-1.285578,3.218732,-0.188740,-5.235959
00017,22.516059,-14.123382,-0.588046,2.935801,-0.377746,-4.285322
00018,18.929255,-14.861016,-0.165504,2.774791,-0.443772,-3.332701
00019,14.894826,-13.767395,0.330427,3.066750,-0.676594,-2.363734
00020,11.728011,-11.467950,0.929552,3.825430,-0.891576,-1.667494
00021,12.269171,-0.839688,6.499409,3.613106,-1.082640,-0.941311
00022,12.456397,-2.183765,7.999129,2.062407,-0.986548,-0.345826
00023,10.659395,-4.422370,6.421315,2.505530,-0.639994,-0.471562
00024,9.493359,0.474935,6.133388,3.116184,-0.390057,-0.511852
00025,9.410623,4.153857,5.444121,2.466411,-0.337274,-0.500025
00026,9.841340,4.026242,4.039551,1.369666,-0.304861,-0.510006
00027,10.276747,2.405068,2.506869,0.549091,-0.251714,-0.465983
00028,10.375058,1.026691,1.127493,0.011909,-0.221866,-0.385776
00029,10.485834,0.171336,0.357069,-0.248881,-0.184327,-0.331432
00030,10.567200,-0.608995,0.068713,-0.429954,-0.186970,-0.223865
00031,10.845164,-1.659041,-0.287602,-0.461624,-0.206115,-0.001909
00032,11.044270,-1.660704,-0.164606,-0.041794,-0.153333,0.173914
00033,10.704253,-0.557480,1.248118,0.229763,-0.024275,0.132070
00034,9.675586,0.214584,1.122404,0.020461,0.091668,0.112700
00035,8.826048,0.463123,0.471600,-0.333042,0.088646,0.122408
00036,8.527078,0.700411,0.336578,-0.832193,0.034063,0.118144
00037,8.646380,0.473970,-0.235246,-1.401013,-0.041069,0.127376
00038,8.981048,0.046897,-0.723247,-1.928765,-0.119361,0.179500
00039,9.448141,-0.051857,-0.532510,-2.283446,-0.138428,0.212661
00040,9.728596,-0.315602,-0.202820,-2.674551,-0.098248,0.188116
00041,9.565834,-1.026104,-0.747940,-2.915300,-0.098014,0.195100
00042,9.530533,-1.591106,-0.767777,-2.971436,-0.159321,0.191376
00043,9.731684,-1.948877,-0.825737,-2.923996,-0.219310,0.158107
00044,9.823603,-2.201252,-1.171937,-2.792097,-0.269777,0.137405
00045,9.743703,-2.487255,-1.420383,-2.607947,-0.321201,0.127840
00046,9.468624,-2.620655,-1.770870,-2.330930,-0.392117,0.142288
00047,9.271396,-2.484257,-1.612513,-2.066807,-0.511412,0.153790
00048,9.469162,-2.532337,-1.663715,-1.823886,-0.614614,0.178785
00049,9.660722,-2.713929,-1.638752,-1.468555,-0.694708,0.189081
00050,9.747062,-3.228060,-1.253388,-0.948435,-0.712372,0.194585
00051,9.609326,-2.575434,0.357426,-0.289690,-0.675750,0.219793
00052,9.975642,-0.929919,2.443253,-0.188971,-0.668589,0.237935
00053,10.618408,-0.361095,2.475344,-0.526359,-0.597324,0.210326
00054,10.777796,-0.402472,2.530038,-0.809975,-0.462571,0.189647
00055,10.556274,-0.706343,2.307965,-1.057827,-0.344621,0.189335
00056,10.222988,-1.114024,1.843948,-1.216021,-0.253623,0.186604
00057,9.995578,-1.407285,1.291626,-1.323857,-0.226357,0.173242
00058,9.916210,-1.747697,0.649816,-1.377437,-0.213673,0.151012
00059,9.855440,-2.059748,0.023884,-1.352032,-0.246591,0.115849
00060,9.795794,-2.282574,-0.540457,-1.234436,-0.216534,0.092645
00061,9.448387,-2.465896,-1.008431,-1.081286,-0.242263,0.046142
00062,9.581929,-2.723475,-1.355140,-0.868993,-0.308484,0.010301
00063,9.497758,-2.767548,-1.482468,-0.650653,-0.269344,0.009899
00064,9.380371,-3.114784,-1.886720,-0.377166,-0.317427,-0.027990
00065,9.356035,-2.938137,-1.813217,-0.129179,-0.290300,-0.024829
00066,9.361311,-2.697370,-1.798146,0.109775,-0.279071,-0.034548
00067,9.341189,-2.505028,-1.763864,0.232417,-0.245153,-0.046628
00068,9.407238,-2.455289,-1.594431,0.366402,-0.222579,-0.043486
00069,9.520963,-2.501280,-1.433825,0.461233,-0.186393,-0.034699
00070,9.648668,-2.520828,-1.192120,0.585360,-0.153605,-0.023282
00071,9.710107,-2.432076,-1.011447,0.714202,-0.100760,-0.007696
00072,9.741631,-2.192149,-0.940809,0.818754,-0.066318,-0.009250
00073,9.782809,-1.843955,-0.840396,0.896130,-0.030723,-0.012217
00074,9.788042,-1.534167,-0.768109,0.917733,-0.006930,-0.017171
00075,9.764575,-1.303959,-0.717536,0.888830,0.008214,-0.021547
00076,9.754485,-1.172152,-0.671610,0.840936,0.009871,-0.024219
00077,9.786548,-1.057213,-0.612047,0.783281,0.008368,-0.028987
00078,9.791272,-1.004018,-0.554733,0.699139,0.011263,-0.032255
00079,9.734968,-1.016060,-0.417161,0.628519,0.006462,-0.038377
00080,9.707263,-1.075166,-0.263268,0.559716,0.001151,-0.044282
00081,9.728423,-1.079105,-0.176184,0.498903,-0.007343,-0.049334
00082,9.754307,-1.028021,-0.116032,0.433859,-0.006202,-0.052041
00083,9.826086,-0.961027,-0.154757,0.352916,-0.002626,-0.056329
00084,9.838778,-0.943126,-0.168488,0.255231,0.003337,-0.052379
00085,9.888586,-1.020613,-0.300864,0.156582,0.011408,-0.049655
00086,9.896233,-1.081329,-0.450102,0.070748,0.024416,-0.041938
00087,9.846833,-1.175852,-0.630638,-0.000626,0.033667,-0.033531
00088,9.806032,-1.289548,-0.712729,-0.055219,0.038300,-0.027477
00089,9.782414,-1.468342,-0.833365,-0.083200,0.038471,-0.022869
00090,9.745694,-1.526432,-0.869821,-0.089729,0.034024,-0.012705
