// Start Time: Unknown
// Update Rate: 100.0Hz
// Filter Profile: human (46.1)
// Firmware Version: 4.3.5
PacketCounter,Acc_X,Acc_Y,Acc_Z,Gyr_X,Gyr_Y,Gyr_Z
59643,9.828235,-0.501615,0.561889,0.026364,0.008501,0.007453
59644,9.830794,-0.521831,0.548943,0.028054,0.006230,0.000794
59645,9.782338,-0.524328,0.543528,0.034721,0.003256,0.009246
59646,9.803870,-0.503800,0.560733,0.030120,0.001213,0.005242
59647,9.774393,-0.465274,0.585611,0.028925,0.002364,0.005088
59648,9.799320,-0.498439,0.595109,0.026560,0.001836,0.004030
59649,9.801918,-0.518574,0.581527,0.023024,-0.000372,0.002070
59650,9.801909,-0.518695,0.581573,0.021726,-0.001065,0.003053
59651,9.828724,-0.537623,0.570877,0.021959,-0.000209,0.000026
59652,9.804530,-0.538703,0.567718,0.022953,-0.005055,0.002445
59653,9.804549,-0.538604,0.567495,0.028156,-0.002292,-0.001505
59654,9.804548,-0.538684,0.567439,0.026367,-0.001861,0.006282
59655,9.800069,-0.532863,0.600982,0.029126,-0.004307,0.001662
59656,9.775886,-0.533995,0.597608,0.029026,-0.006153,0.002795
59657,9.799354,-0.499206,0.593899,0.023929,-0.007071,0.005605
59658,9.772550,-0.480677,0.604153,0.021535,-0.004763,0.005304
59659,9.799379,-0.499811,0.592977,0.021794,-0.006746,0.001524
59660,9.823608,-0.498784,0.595520,0.022968,-0.005066,0.002422
59661,9.821764,-0.512957,0.615063,0.022738,-0.005921,0.005445
59662,9.872045,-0.496855,0.600838,0.019736,-0.001743,-0.002944
59663,9.843399,-0.491565,0.631456,0.018307,-0.001441,-0.000069
59664,9.847876,-0.497423,0.597692,0.014868,-0.001805,-0.003155
59665,9.865046,-0.469828,0.647893,0.014766,-0.003649,-0.002018
59666,9.825586,-0.483930,0.574248,0.011197,-0.003021,-0.003214
59667,9.826370,-0.517493,0.580324,0.005129,-0.001925,-0.003570
59668,9.819331,-0.490979,0.627632,0.006301,-0.000244,-0.002672
59669,9.823789,-0.496904,0.594097,-0.001097,0.002999,-0.001287
59670,9.793280,-0.505408,0.644989,0.000462,0.001702,-0.006053
59671,9.824567,-0.529991,0.600757,-0.003338,0.001480,-0.004222
59672,9.797757,-0.510693,0.611720,-0.003365,0.004316,-0.003473
59673,9.771699,-0.525280,0.629107,-0.004435,0.004478,-0.005510
59674,9.826417,-0.514843,0.581888,-0.006934,0.004944,-0.004670
59675,9.827162,-0.548349,0.588843,-0.006859,0.009624,-0.005060
59676,9.826378,-0.513803,0.583467,-0.005428,0.009320,-0.007938
59677,9.846858,-0.539615,0.627474,-0.007593,0.012480,-0.011265
59678,9.824489,-0.525844,0.605663,-0.006523,0.012317,-0.009229
59679,9.831570,-0.551173,0.559463,-0.009022,0.012782,-0.008391
59680,9.828925,-0.530227,0.574316,-0.006391,0.011324,-0.011120
59681,9.851260,-0.541814,0.598560,-0.003685,0.014545,-0.014240
59682,9.802853,-0.542722,0.593822,-0.003786,0.012701,-0.013102
59683,9.852040,-0.573069,0.607341,0.001215,0.011771,-0.014782
59684,9.822562,-0.532363,0.633062,0.010225,0.014753,-0.020571
59685,9.820185,-0.428289,0.615916,0.008064,0.017909,-0.023904
59686,9.785313,-0.346503,0.669846,0.001475,0.025537,-0.032762
59687,9.764784,-0.316465,0.629361,-0.012892,0.026188,-0.036436
59688,9.786258,-0.291344,0.648599,-0.026754,0.025699,-0.046927
59689,9.790803,-0.292595,0.617278,-0.041909,0.024513,-0.056442
59690,9.793521,-0.307122,0.606118,-0.050015,0.030579,-0.061318
59691,9.849217,-0.324774,0.567942,-0.057979,0.035647,-0.068097
59692,9.872531,-0.282746,0.568180,-0.068130,0.036348,-0.078592
59693,9.892065,-0.185610,0.576819,-0.079117,0.051225,-0.092335
59694,9.805377,-0.079689,0.641357,-0.086921,0.053167,-0.116778
59695,9.876831,-0.112686,0.681842,-0.108271,0.052104,-0.123820
59696,9.857384,-0.189876,0.682140,-0.119523,0.053884,-0.134625
59697,9.808912,-0.179529,0.681147,-0.126986,0.058725,-0.146535
59698,9.762262,-0.153932,0.660288,-0.131794,0.054611,-0.161584
59699,9.752354,-0.156811,0.560641,-0.126774,0.045030,-0.177694
59700,9.695597,-0.194825,0.459229,-0.117030,0.029044,-0.192054
59701,9.615036,-0.232459,0.352821,-0.090801,0.010171,-0.214275
59702,9.831772,-0.086172,0.522910,-0.063234,0.010951,-0.222084
59703,9.836554,-0.039792,0.663133,-0.072210,0.032731,-0.243662
59704,9.844338,0.036304,0.765147,-0.089527,0.036616,-0.252739
59705,9.898764,0.024254,0.747193,-0.128325,0.034565,-0.252030
59706,9.910221,-0.093506,0.739798,-0.154006,0.035459,-0.247914
59707,9.930437,-0.188502,0.658873,-0.165248,0.034932,-0.241840
59708,9.944340,-0.244389,0.606011,-0.171469,0.040639,-0.237841
59709,9.893338,-0.254751,0.642661,-0.174238,0.046213,-0.231728
59710,9.878063,-0.259938,0.595590,-0.168512,0.045881,-0.225359
59711,9.821719,-0.106391,0.571369,-0.154659,0.045540,-0.228669
59712,9.817312,-0.128196,0.634460,-0.156581,0.046241,-0.232115
59713,9.852961,-0.058172,0.707915,-0.147857,0.049653,-0.232782
59714,10.031595,-0.031009,0.668822,-0.162454,0.053164,-0.230432
59715,10.224575,-0.207555,0.662574,-0.160480,0.074976,-0.225749
59716,10.227333,-0.323846,0.567445,-0.140469,0.096383,-0.219842
59717,10.058416,-0.437156,0.463523,-0.085203,0.095660,-0.213013
59718,9.945589,-0.299030,0.491125,-0.045506,0.080920,-0.219329
59719,9.801566,-0.229078,0.432722,-0.030365,0.049656,-0.207246
59720,9.671808,-0.015713,0.512154,-0.035230,0.014193,-0.200566
59721,9.677186,-0.001604,0.478337,-0.068242,-0.014560,-0.191691
59722,9.678046,-0.111411,0.564768,-0.095497,-0.013689,-0.172122
59723,9.673132,-0.288262,0.570514,-0.104512,-0.014107,-0.153272
59724,9.669299,-0.389081,0.512634,-0.101194,-0.015436,-0.124506
59725,9.694492,-0.439793,0.558286,-0.079705,-0.008966,-0.097734
59726,9.714322,-0.487914,0.638187,-0.065205,-0.006236,-0.085509
59727,9.756211,-0.486289,0.697655,-0.047225,-0.001737,-0.060110
59728,9.835788,-0.527313,0.698745,-0.020206,0.010129,-0.029965
59729,9.885770,-0.568942,0.731523,-0.000734,0.023127,-0.009423
59730,9.956074,-0.655031,0.827081,0.013684,0.032593,0.026149
59731,9.988789,-0.758402,0.848838,0.040753,0.035381,0.057501
59732,10.015629,-0.860419,0.905615,0.076970,0.049663,0.092156
59733,10.052621,-0.975085,0.896494,0.130044,0.058216,0.141408
59734,10.164945,-1.106189,0.885547,0.173979,0.073481,0.197158
59735,10.111806,-1.216584,0.794194,0.210034,0.089879,0.248106
59736,10.177774,-1.383128,0.766734,0.261545,0.096358,0.305287
59737,10.183051,-1.488176,0.758043,0.320728,0.109093,0.372222
59738,10.047438,-1.562283,0.829620,0.382233,0.114702,0.432078
59739,9.993396,-1.643876,0.846070,0.445038,0.115974,0.495246
59740,10.031645,-1.688265,0.873420,0.509177,0.127116,0.560949
59741,9.940518,-1.660679,0.887812,0.593311,0.147822,0.614124
59742,9.945523,-1.580708,0.892831,0.653198,0.158600,0.659941
59743,10.036911,-1.627158,0.882543,0.720365,0.189652,0.700075
59744,9.984205,-1.579545,0.958803,0.784178,0.215983,0.731138
59745,10.004341,-1.447332,1.014155,0.827663,0.234240,0.762785
59746,10.081309,-1.389788,1.058251,0.856721,0.259543,0.797899
59747,10.147299,-1.453251,1.056523,0.871772,0.294699,0.832259
59748,10.125456,-1.488640,1.126516,0.875014,0.327306,0.865589
59749,10.158941,-1.587469,1.169499,0.876302,0.346527,0.907691
59750,10.164898,-1.602760,1.207637,0.871155,0.372052,0.931437
59751,10.078421,-1.697487,1.215409,0.872782,0.394201,0.951493
59752,10.039567,-1.847557,1.230747,0.895695,0.401872,0.982440
59753,10.110550,-1.827286,1.311732,0.909412,0.421833,1.016339
59754,10.131558,-1.936616,1.257988,0.921556,0.437982,1.043299
59755,10.101085,-1.988723,1.344861,0.934595,0.467191,1.075078
59756,10.160404,-2.055996,1.474297,0.936536,0.485587,1.102002
59757,10.268200,-2.171299,1.594498,0.934682,0.503270,1.133181
59758,10.313306,-2.211381,1.662024,0.935057,0.534110,1.156637
59759,10.234120,-2.280569,1.717826,0.948505,0.547366,1.180031
59760,10.241671,-2.322264,1.837808,0.955724,0.557495,1.203452
59761,10.237837,-2.222620,1.939674,0.954274,0.578458,1.226054
59762,10.186073,-2.309854,1.971906,0.936268,0.587293,1.264669
59763,10.121864,-2.445983,1.927369,0.926371,0.604036,1.284510
59764,10.036639,-2.477711,2.007109,0.888243,0.629299,1.315235
59765,9.885994,-2.561042,2.018634,0.842620,0.638343,1.333045
59766,9.853450,-2.710790,2.122896,0.819214,0.649715,1.356475
59767,9.776146,-2.796849,2.131269,0.766254,0.667562,1.384011
59768,9.643428,-2.936903,2.211405,0.700353,0.684138,1.405654
59769,9.651989,-3.271425,2.300547,0.674127,0.693708,1.431964
59770,9.532841,-3.287439,2.463439,0.648502,0.741887,1.461447
59771,9.433174,-3.411560,2.490101,0.612723,0.770356,1.495485
59772,9.376451,-3.614983,2.648008,0.583494,0.790283,1.533722
59773,9.297679,-3.745011,2.743370,0.546896,0.806953,1.577633
59774,9.359567,-3.819958,2.917319,0.466456,0.833918,1.628491
59775,9.464146,-4.039153,2.937137,0.404201,0.856636,1.685481
59776,9.458586,-4.006297,3.069738,0.335198,0.874151,1.733645
59777,9.480064,-4.210907,3.095756,0.250056,0.869527,1.778204
59778,9.357876,-4.165170,3.120070,0.152492,0.862617,1.815451
59779,9.195327,-4.350502,3.060568,0.077832,0.854418,1.856557
59780,9.016956,-4.739225,3.052900,0.023016,0.837633,1.896858
59781,8.767515,-4.983557,3.041868,-0.019592,0.819427,1.937827
59782,8.605211,-5.061427,3.026077,-0.015581,0.791140,1.965100
59783,8.470862,-5.256797,3.024681,0.003595,0.763130,1.973984
59784,8.350186,-5.149794,3.148041,0.057440,0.732902,1.972910
59785,8.332779,-5.172233,3.185072,0.068664,0.694573,1.963561
59786,8.290467,-5.394431,3.197486,0.103496,0.667966,1.956128
59787,8.188397,-5.436407,3.149397,0.170468,0.646507,1.937815
59788,8.015824,-5.456578,3.202934,0.224091,0.620155,1.907173
59789,7.808379,-5.356484,3.217856,0.264595,0.607794,1.871635
59790,7.626118,-5.442731,3.216899,0.297821,0.593173,1.833570
59791,7.392643,-5.356865,3.431203,0.321053,0.558577,1.798345
59792,7.341327,-5.328548,3.544076,0.307643,0.523201,1.766823
59793,7.252587,-5.605495,3.542001,0.292432,0.505076,1.745021
59794,7.165268,-5.796541,3.461881,0.314499,0.489247,1.732873
59795,7.015678,-5.913114,3.346563,0.360720,0.483104,1.720944
59796,6.817564,-6.198060,3.369810,0.399771,0.454658,1.705274
59797,6.557221,-6.413862,3.238348,0.475030,0.429283,1.683090
59798,6.417308,-6.661210,3.194671,0.540867,0.392295,1.656406
59799,6.168422,-6.765757,3.107757,0.618814,0.347285,1.627736
59800,5.951648,-6.760217,3.100591,0.698969,0.290311,1.606154
59801,5.902061,-6.662130,3.324773,0.756698,0.229564,1.574948
59802,5.947941,-6.589021,3.641764,0.766973,0.184009,1.547243
59803,5.932089,-6.395591,3.838386,0.796747,0.168071,1.526631
59804,5.852394,-6.176210,4.097769,0.776916,0.164484,1.499061
59805,5.683563,-6.250921,4.166490,0.714360,0.172803,1.477032
59806,5.543167,-6.342119,4.316887,0.685881,0.158184,1.470420
59807,5.398843,-6.367323,4.725882,0.606343,0.155377,1.478116
59808,5.294753,-6.320858,5.025191,0.503039,0.162234,1.488502
59809,5.204222,-6.605930,5.055540,0.397656,0.189278,1.484163
59810,5.036222,-6.917217,4.855881,0.376202,0.202621,1.469771
59811,5.005940,-7.144775,4.651863,0.381463,0.188994,1.450836
59812,5.038212,-7.451578,4.516516,0.419072,0.159142,1.451198
59813,5.000871,-7.634099,4.461909,0.473478,0.136061,1.442311
59814,4.812807,-7.716032,4.403102,0.559962,0.122327,1.441113
59815,4.653863,-7.626121,4.386188,0.651647,0.097553,1.423012
59816,4.412784,-7.267998,4.540146,0.743671,0.064007,1.397334
59817,4.225142,-6.926716,4.668155,0.805701,0.038659,1.365250
59818,4.255008,-6.532895,4.799040,0.810798,0.015945,1.349532
59819,4.247206,-6.190903,4.904058,0.756052,0.020541,1.335778
59820,4.216538,-6.173532,4.783386,0.654225,0.017475,1.331009
59821,4.243498,-6.311648,4.816866,0.560315,-0.019095,1.333439
59822,4.113086,-6.367048,4.856479,0.488336,-0.049036,1.325473
59823,3.951357,-6.519888,4.845396,0.414018,-0.093364,1.307130
59824,3.870281,-6.674398,5.014872,0.377709,-0.117009,1.286420
59825,3.721793,-6.938725,5.061803,0.364365,-0.115628,1.270176
59826,3.337173,-7.041876,4.880361,0.396884,-0.125333,1.233107
59827,3.044852,-7.122409,4.696388,0.486184,-0.164994,1.173590
59828,3.174267,-7.070445,4.866788,0.593067,-0.204763,1.130089
59829,3.248411,-6.591339,5.199292,0.648575,-0.213686,1.099214
59830,3.261456,-6.119891,5.481630,0.603906,-0.204262,1.054055
59831,3.106013,-5.822209,5.632418,0.499559,-0.188621,0.991086
59832,2.892191,-5.801044,5.625557,0.380615,-0.179631,0.919513
59833,2.779962,-6.171994,5.511431,0.340719,-0.170702,0.863837
59834,2.642225,-6.234484,5.597560,0.364610,-0.160307,0.809059
59835,2.560106,-6.000145,5.744744,0.386644,-0.150957,0.739983
59836,2.554201,-5.570813,5.790276,0.369190,-0.137091,0.656933
59837,2.605481,-5.053697,5.745354,0.324252,-0.108369,0.556690
59838,2.676837,-4.695305,6.020210,0.234716,-0.052908,0.448787
59839,2.512287,-4.724313,6.115938,0.126865,-0.001538,0.341367
59840,2.356237,-5.048844,5.842875,0.093936,-0.016464,0.243164
59841,2.363977,-5.081263,5.878659,0.114059,-0.010080,0.148141
59842,2.399434,-4.910719,6.160880,0.072360,0.010755,0.055591
59843,2.531172,-4.909529,6.244237,-0.020597,0.029961,-0.041419
59844,2.712360,-5.202317,6.172808,-0.145864,0.060135,-0.116099
59845,2.657811,-5.529955,6.192577,-0.257051,0.076240,-0.181122
59846,2.612281,-5.892715,6.130261,-0.353672,0.092471,-0.228048
59847,2.570341,-6.300141,6.054159,-0.400651,0.105180,-0.272703
59848,2.654049,-6.620540,5.964340,-0.429203,0.120931,-0.305315
59849,2.612047,-6.754972,5.877533,-0.418467,0.147025,-0.345525
59850,2.643893,-6.678856,5.907964,-0.397542,0.157358,-0.396448
59851,2.730483,-6.572819,6.021024,-0.402340,0.175243,-0.453786
59852,2.796260,-6.407471,6.056258,-0.420369,0.194409,-0.540577
59853,2.784770,-5.899044,6.173087,-0.440275,0.214585,-0.664109
59854,3.007070,-5.444846,6.250767,-0.473853,0.248352,-0.795137
59855,3.309022,-5.523950,6.223275,-0.554459,0.302058,-0.897453
59856,3.490176,-5.913899,6.146308,-0.632767,0.327099,-0.991053
59857,3.558963,-6.074514,6.120902,-0.660988,0.326966,-1.112161
59858,3.549540,-5.982853,6.073525,-0.602124,0.330858,-1.301948
59859,3.547010,-5.503511,6.107515,-0.473190,0.333638,-1.548071
59860,3.815332,-5.094803,6.032801,-0.342504,0.361790,-1.795068
59861,4.188060,-5.031801,6.205065,-0.315008,0.364548,-1.920638
59862,4.497201,-5.423919,6.212845,-0.363113,0.326508,-1.877063
59863,4.445657,-6.039593,5.815186,-0.419356,0.368715,-1.782229
59864,3.844341,-6.921661,5.539241,-0.441245,0.454513,-1.701475
59865,3.375137,-7.855436,5.344746,-0.376468,0.495585,-1.689619
59866,3.282301,-8.086336,5.187404,-0.193150,0.502007,-1.770359
59867,3.405793,-7.371370,5.100523,0.047669,0.491186,-1.927566
59868,3.940962,-6.592908,4.899610,0.226673,0.447871,-2.095351
59869,4.584553,-5.778798,4.934613,0.248621,0.384049,-2.162670
59870,5.550910,-5.611817,5.034210,0.099758,0.298475,-2.082696
59871,6.016891,-5.681259,5.119517,-0.123613,0.347104,-1.960629
59872,5.518494,-6.224325,5.232336,-0.381971,0.444363,-1.867693
59873,4.962634,-7.099847,5.339223,-0.551490,0.492601,-1.846784
59874,4.664601,-7.407001,5.321967,-0.554650,0.512407,-1.899282
59875,4.529422,-7.318025,5.114340,-0.449826,0.493244,-1.998508
59876,4.733254,-6.801264,4.768076,-0.257448,0.447834,-2.091404
59877,5.228724,-6.178168,4.759617,-0.114824,0.406093,-2.151127
59878,5.980657,-5.867587,4.996412,-0.099431,0.363750,-2.102389
59879,6.655177,-5.812330,5.048109,-0.191631,0.380088,-1.987875
59880,6.656367,-5.980389,4.939484,-0.364691,0.459739,-1.913135
59881,6.267521,-6.327847,4.866238,-0.509844,0.458189,-1.904060
59882,6.006526,-6.452947,4.832325,-0.558651,0.391665,-1.948086
59883,5.946023,-6.294230,4.482571,-0.517269,0.304564,-2.041565
59884,5.959253,-5.870320,4.193665,-0.436183,0.234724,-2.150781
59885,6.046192,-5.510819,4.088637,-0.337494,0.178449,-2.211846
59886,6.238131,-5.387749,4.362477,-0.244710,0.130792,-2.201898
59887,6.627410,-5.190250,4.635872,-0.238651,0.156052,-2.139190
59888,6.686865,-5.166646,4.721459,-0.317155,0.186366,-2.068443
59889,6.652699,-5.209398,4.740991,-0.429521,0.177172,-2.020977
59890,6.736144,-5.279904,4.653496,-0.514654,0.110962,-2.031897
59891,7.055966,-5.201346,4.320709,-0.534439,0.035457,-2.080600
59892,7.270851,-5.019512,4.166803,-0.545128,-0.015455,-2.156321
59893,7.562467,-4.956090,4.161990,-0.513421,-0.050902,-2.197644
59894,7.685385,-4.898905,4.470827,-0.485006,-0.045095,-2.183351
59895,7.846981,-4.953795,4.583305,-0.456524,-0.036602,-2.131373
59896,7.919803,-5.095400,4.549698,-0.465432,-0.022807,-2.059278
59897,7.824389,-5.119907,4.592668,-0.456589,-0.052304,-2.015068
59898,7.943840,-5.062182,4.376715,-0.426136,-0.114098,-2.014868
59899,8.117315,-4.910494,3.889491,-0.366148,-0.189767,-2.053357
59900,8.077141,-4.562840,3.686608,-0.301066,-0.243110,-2.119881
59901,7.983522,-4.128217,3.543080,-0.234913,-0.327761,-2.183399
59902,8.146837,-3.924795,3.608692,-0.158572,-0.412183,-2.228935
59903,8.135995,-3.645901,4.063896,-0.127816,-0.425561,-2.256300
59904,8.039478,-3.469759,4.677042,-0.158274,-0.421702,-2.233848
59905,8.189188,-3.321962,4.809217,-0.222519,-0.422206,-2.179906
59906,8.416942,-3.366839,4.535910,-0.292597,-0.433600,-2.118872
59907,8.720370,-3.518865,4.156862,-0.341774,-0.457123,-2.088856
59908,8.969327,-3.678864,3.677925,-0.346486,-0.501648,-2.057984
59909,8.932763,-3.647985,3.370257,-0.295200,-0.555479,-2.053705
59910,8.832398,-3.540222,3.225023,-0.219339,-0.601501,-2.053417
59911,8.509647,-3.432914,3.288587,-0.139400,-0.643375,-2.048657
59912,8.289905,-3.340798,3.562126,-0.099157,-0.682557,-2.008946
59913,8.288200,-3.086509,3.895960,-0.108090,-0.701393,-1.939033
59914,8.405284,-2.834123,3.983370,-0.139266,-0.718780,-1.865143
59915,8.797426,-2.842351,3.756095,-0.149821,-0.746363,-1.775824
59916,9.274311,-2.855370,3.469419,-0.158034,-0.777118,-1.690245
59917,9.565914,-2.855484,3.294832,-0.157492,-0.798812,-1.618972
59918,9.551850,-2.784190,3.210118,-0.117290,-0.821284,-1.563708
59919,9.348893,-2.643059,3.264033,-0.081101,-0.850484,-1.532988
59920,9.055221,-2.482648,3.486263,-0.068913,-0.863317,-1.489255
59921,8.774018,-2.202184,3.844385,-0.061468,-0.864120,-1.436544
59922,8.935343,-2.062160,3.893717,-0.069588,-0.871607,-1.358038
59923,9.167909,-1.911097,3.795282,-0.082624,-0.864404,-1.260290
59924,9.404844,-1.901630,3.634222,-0.098519,-0.849279,-1.170607
59925,9.548639,-1.749955,3.468957,-0.110028,-0.841224,-1.098709
59926,9.727286,-1.564059,3.155958,-0.129223,-0.838154,-1.050199
59927,9.619376,-1.331153,2.791215,-0.162760,-0.843593,-1.018855
59928,9.347467,-1.125440,2.476442,-0.127304,-0.852644,-1.018078
59929,9.225128,-0.632639,2.527972,-0.048525,-0.893947,-1.039057
59930,9.498820,-0.232177,2.783879,-0.033295,-0.940185,-1.020154
59931,9.832376,-0.024520,2.945584,-0.074426,-0.932342,-0.955973
59932,10.111933,0.015799,3.092190,-0.158593,-0.895432,-0.863852
59933,10.239353,-0.069131,3.134456,-0.239577,-0.869106,-0.773040
59934,10.330826,-0.272184,3.178149,-0.326245,-0.869374,-0.684083
59935,10.437850,-0.457797,3.179970,-0.430489,-0.876858,-0.610783
59936,10.360241,-0.722371,3.074871,-0.526693,-0.873289,-0.547815
59937,10.229495,-1.093223,2.943121,-0.559223,-0.868224,-0.485142
59938,10.147909,-1.374789,2.926905,-0.523868,-0.857217,-0.426897
59939,10.034215,-1.603943,2.760838,-0.446513,-0.825763,-0.363241
59940,9.899128,-1.751030,2.692369,-0.311409,-0.792751,-0.319191
59941,9.851018,-1.791040,2.703879,-0.150711,-0.762263,-0.253265
59942,9.848215,-1.777661,2.712199,0.013944,-0.740025,-0.184685
59943,9.886504,-1.677167,2.710292,0.150794,-0.713140,-0.112562
59944,9.849930,-1.460573,2.636056,0.273335,-0.672653,-0.036016
59945,9.884796,-1.209884,2.640878,0.356305,-0.637111,0.030304
59946,9.905867,-0.971929,2.608899,0.408033,-0.593051,0.093844
59947,9.988589,-0.864299,2.434883,0.424865,-0.544824,0.160771
59948,10.015748,-0.800463,2.288730,0.441284,-0.513666,0.218021
59949,10.075478,-0.888887,2.104912,0.463623,-0.482556,0.291448
59950,10.094353,-0.901856,1.826446,0.505891,-0.467363,0.352357
59951,10.067454,-0.818048,1.648346,0.579212,-0.442852,0.385346
59952,10.036038,-0.619824,1.706404,0.630212,-0.414595,0.406722
59953,9.996806,-0.368365,1.770764,0.664264,-0.391300,0.428065
59954,9.950157,-0.195517,1.718429,0.694010,-0.376704,0.439900
59955,10.030915,0.033849,1.634162,0.700284,-0.362557,0.460259
59956,9.992896,0.099313,1.510506,0.695549,-0.360477,0.465203
59957,10.013573,0.119907,1.484314,0.694406,-0.354178,0.470997
59958,9.979354,0.234137,1.422380,0.688973,-0.355907,0.464517
59959,9.964234,0.372082,1.375869,0.662205,-0.366099,0.458717
59960,10.005566,0.462290,1.333179,0.619520,-0.384372,0.449811
59961,10.080219,0.666743,1.303355,0.563639,-0.415689,0.426874
59962,10.280592,0.866339,1.280516,0.496191,-0.457268,0.394976
59963,10.652049,0.603829,1.430920,0.452527,-0.419559,0.405488
59964,10.320142,-0.272366,1.564537,0.450869,-0.321503,0.522701
59965,9.923719,-0.805392,1.421453,0.481355,-0.383083,0.571703
59966,10.058034,-0.657965,0.976304,0.482703,-0.435500,0.537083
59967,10.006404,-0.146143,0.513591,0.445172,-0.393191,0.471031
59968,9.924949,0.551534,0.799240,0.407898,-0.327226,0.409088
59969,9.876820,0.784801,1.190942,0.342224,-0.288969,0.368411
59970,9.840091,0.746601,1.265217,0.297742,-0.247316,0.348587
59971,9.765816,0.753496,1.250229,0.270405,-0.214823,0.319972
59972,9.760066,0.844769,1.373920,0.247414,-0.206778,0.271756
59973,9.885883,0.888064,1.485266,0.222633,-0.196981,0.203414
59974,9.969086,0.947870,1.401895,0.191343,-0.191597,0.134113
59975,10.029980,1.023242,1.293898,0.153952,-0.176885,0.061451
59976,10.007488,1.052233,1.261277,0.088979,-0.162963,0.008162
59977,10.024298,0.858010,1.252864,0.016061,-0.165240,-0.032140
59978,10.033451,0.470540,1.084738,-0.038751,-0.150655,-0.063114
59979,9.971792,0.243512,0.965690,-0.069681,-0.147099,-0.093164
59980,9.904128,0.028833,0.879585,-0.083853,-0.140408,-0.113666
59981,9.821138,-0.065330,0.827797,-0.086944,-0.138413,-0.131373
59982,9.767192,-0.210516,0.779089,-0.081945,-0.138322,-0.141713
59983,9.743538,-0.243976,0.793778,-0.073199,-0.130481,-0.139195
59984,9.802187,-0.380097,0.817911,-0.083622,-0.132966,-0.134985
59985,9.869892,-0.712002,0.738364,-0.090366,-0.109648,-0.117267
59986,9.740253,-0.767862,0.651049,-0.048328,-0.095074,-0.095155
59987,9.746382,-0.572598,0.659131,-0.020029,-0.101574,-0.087112
59988,9.788219,-0.517568,0.679383,-0.014916,-0.088013,-0.075067
59989,9.794303,-0.446198,0.763064,-0.010808,-0.064877,-0.066000
59990,9.811750,-0.395537,0.782598,-0.012276,-0.066135,-0.051252
59991,9.928970,-0.358198,0.805482,-0.014380,-0.054961,-0.043140
59992,9.977305,-0.394159,0.838599,-0.035991,-0.052868,-0.041623
59993,10.073876,-0.544670,0.786228,-0.053946,-0.053668,-0.038625
59994,9.972371,-0.704287,0.738689,-0.036829,-0.045356,-0.033309
59995,9.929024,-0.638190,0.652647,-0.013355,-0.048385,-0.028016
59996,9.949633,-0.656250,0.694440,0.010803,-0.040671,-0.030094
59997,9.850568,-0.551955,0.625479,0.025869,-0.030299,-0.029770
59998,9.838055,-0.452085,0.646357,0.032969,-0.029931,-0.025005
59999,9.867818,-0.501765,0.646586,0.040871,-0.015904,-0.016416
60000,9.797724,-0.495842,0.613738,0.041080,-0.011008,-0.006139
60001,9.822004,-0.448224,0.585016,0.053320,-0.006226,-0.002499
60002,9.833227,-0.348086,0.611760,0.061238,-0.003223,-0.005996
60003,9.851685,-0.334894,0.647965,0.055084,0.001963,-0.007818
60004,9.837101,-0.322737,0.569714,0.056490,0.007295,-0.009474
60005,9.831731,-0.222439,0.540146,0.059515,0.011807,-0.014615
60006,9.839003,-0.143862,0.610740,0.052915,0.006168,-0.023927
60007,9.877919,-0.224187,0.570409,0.035640,0.010996,-0.028323
60008,9.870675,-0.297616,0.502476,0.034346,0.019711,-0.028531
60009,9.841077,-0.242808,0.501609,0.031717,0.013018,-0.027024
60010,9.891019,-0.267904,0.519787,0.024572,0.005618,-0.030834
60011,9.898559,-0.307634,0.498299,0.019290,0.009320,-0.028827
60012,9.876462,-0.295696,0.474524,0.027904,0.011970,-0.026629
60013,9.848714,-0.273276,0.483046,0.026870,0.003485,-0.040697
60014,9.867156,-0.256963,0.519604,0.026487,0.005693,-0.037030
60015,9.817233,-0.269472,0.534663,0.025451,0.003219,-0.039025
60016,9.787592,-0.258002,0.564020,0.025572,0.000155,-0.039915
60017,9.787692,-0.254087,0.564058,0.025304,-0.000710,-0.037152
60018,9.791593,-0.271721,0.553019,0.026544,0.000680,-0.036965
60019,9.765725,-0.237761,0.539263,0.027432,-0.000775,-0.033101
60020,9.787909,-0.198876,0.532431,0.028947,0.001487,-0.035664
60021,9.782253,-0.185105,0.565320,0.021733,0.004155,-0.039524
60022,9.804374,-0.145715,0.558928,0.019226,0.006439,-0.039898
60023,9.784206,-0.165660,0.545112,0.012894,0.007642,-0.039907
60024,9.856442,-0.198289,0.588131,0.006759,0.007744,-0.041739
60025,9.834422,-0.229800,0.596084,-0.008899,0.012639,-0.037583
60026,9.829788,-0.335979,0.538337,-0.011838,0.010100,-0.033361
60027,9.879754,-0.316721,0.524794,-0.001665,0.010956,-0.021639
60028,9.879927,-0.358994,0.557485,-0.003050,0.005626,-0.019964
60029,9.863570,-0.358179,0.500466,0.001856,0.004150,-0.018299
60030,9.835827,-0.382287,0.540525,0.005961,0.007068,-0.009348
60031,9.835824,-0.381568,0.541075,0.006767,0.003632,-0.004574
60032,9.841722,-0.435882,0.540962,0.014419,0.006761,0.006759
60033,9.797335,-0.418921,0.491813,0.024106,0.006883,0.010987
60034,9.767454,-0.412728,0.521489,0.036233,0.002760,0.016530
60035,9.785494,-0.357182,0.526026,0.047836,0.002950,0.014559
60036,9.781395,-0.293078,0.505518,0.048247,0.001727,0.022990
60037,9.821580,-0.247078,0.535324,0.048162,0.011829,0.022942
60038,9.813700,-0.206195,0.558578,0.046935,0.010453,0.022778
60039,9.815484,-0.196745,0.538269,0.039442,0.012235,0.021653
60040,9.817354,-0.231266,0.550120,0.041159,0.013396,0.017273
60041,9.841214,-0.185770,0.522839,0.044155,0.010897,0.013107
60042,9.811271,-0.134944,0.520902,0.038215,0.009883,0.009438
60043,9.809300,-0.146571,0.543524,0.029078,0.011486,-0.000307
60044,9.789070,-0.170454,0.530463,0.030196,0.015953,0.000769
60045,9.763024,-0.139836,0.517567,0.018270,0.006888,-0.005626
60046,9.811095,-0.177962,0.557487,0.012482,0.009807,-0.011164
60047,9.818832,-0.219674,0.536448,0.008853,0.007616,-0.012630
60048,9.874584,-0.212172,0.490230,0.006060,0.009021,-0.010276
60049,9.866802,-0.167928,0.512774,-0.009739,0.003908,-0.016361
60050,9.894787,-0.229605,0.537774,-0.015205,0.003641,-0.012547
60051,9.852627,-0.287823,0.530662,-0.025178,0.002631,-0.014055
60052,9.830536,-0.278148,0.505742,-0.019590,0.000819,-0.006694
60053,9.826739,-0.300153,0.548642,-0.011686,-0.003154,-0.009183
60054,9.852790,-0.329989,0.562227,-0.015116,-0.005460,-0.000406
60055,9.814542,-0.411259,0.543350,-0.010809,-0.003616,0.006736
60056,9.824235,-0.443675,0.499418,0.000243,-0.005163,0.010277
60057,9.922190,-0.423472,0.491745,0.015637,0.002153,0.019999
60058,9.948055,-0.455946,0.506561,0.024969,0.011524,0.026936
60059,9.921905,-0.472508,0.526156,0.036063,0.017004,0.029527
60060,9.885253,-0.545254,0.487815,0.049001,0.009490,0.039913
60061,9.873336,-0.529133,0.554225,0.063102,0.013473,0.050423
60062,9.854752,-0.546792,0.519935,0.080126,0.012986,0.057712
60063,9.818797,-0.490200,0.550674,0.102669,0.007728,0.061259
60064,9.807036,-0.387017,0.552370,0.120479,0.007893,0.061284
60065,9.839520,-0.300902,0.604238,0.128757,0.011853,0.055179
60066,9.785563,-0.255905,0.599091,0.133286,0.016694,0.048491
60067,9.809732,-0.169283,0.539520,0.126331,0.013213,0.042875
60068,9.798004,-0.151452,0.605818,0.118570,0.013112,0.032431
60069,9.770257,-0.090550,0.582074,0.106845,0.014985,0.023185
60070,9.809562,-0.132370,0.511898,0.089041,0.019943,0.023162
60071,9.787181,-0.169026,0.521315,0.077127,0.017847,0.015749
60072,9.831087,-0.187432,0.573511,0.068097,0.017376,0.017141
60073,9.812485,-0.245446,0.571896,0.054363,0.012173,0.015036
