// Start Time: Unknown
// Update Rate: 100.0Hz
// Filter Profile: human (46.1)
// Firmware Version: 4.3.5
PacketCounter,Acc_X,Acc_Y,Acc_Z,Gyr_X,Gyr_Y,Gyr_Z
34771,9.651020,1.102415,1.350379,0.002433,0.009654,-0.006208
34772,9.694405,1.097210,1.318690,0.017082,0.006833,-0.005157
34773,9.702771,1.113558,1.364692,0.015355,0.010128,0.001543
34774,9.718037,1.098987,1.315249,0.010501,0.008452,-0.005095
34775,9.738378,1.177770,1.310732,0.025395,0.007265,-0.002614
34776,9.697137,1.161495,1.351616,0.014306,0.015693,-0.009897
34777,9.697797,1.108190,1.345102,-0.013916,0.002367,-0.006070
34778,9.710561,1.117015,1.287458,0.013735,0.001546,-0.008716
34779,9.705088,1.180144,1.398415,0.030191,0.011667,-0.009101
34780,9.676772,1.172060,1.380973,0.011512,0.001581,-0.004880
34781,9.720278,1.167007,1.348439,-0.000143,-0.004146,-0.010979
34782,9.742413,1.138044,1.328449,0.012487,0.002764,-0.008469
34783,9.673831,1.198169,1.373322,0.021755,0.008410,-0.011419
34784,9.679432,1.238974,1.411486,0.015413,0.006311,-0.019238
34785,9.674900,1.232912,1.389201,0.002034,0.003877,-0.018635
34786,9.677154,1.211691,1.397514,-0.011255,0.008299,-0.020177
34787,9.704180,1.260725,1.297968,-0.017970,0.011111,-0.021786
34788,9.683006,1.323862,1.334630,-0.023490,0.020768,-0.027464
34789,9.669301,1.441439,1.299436,-0.047376,0.032848,-0.031549
34790,9.656022,1.520806,1.384089,-0.085022,0.038038,-0.036260
34791,9.679283,1.609301,1.407719,-0.142852,0.047665,-0.043973
34792,9.687640,1.658240,1.476375,-0.185166,0.065098,-0.046892
34793,9.700658,1.660803,1.563106,-0.234878,0.090247,-0.058247
34794,9.699642,1.569482,1.687250,-0.281814,0.105421,-0.063374
34795,9.807139,1.490213,1.736327,-0.328979,0.115086,-0.055338
34796,9.900887,1.355579,1.703242,-0.354602,0.135769,-0.049144
34797,9.950748,1.225334,1.703997,-0.355528,0.160117,-0.038446
34798,9.980681,1.225982,1.640629,-0.355669,0.186927,-0.033002
34799,9.971786,1.269431,1.650748,-0.350113,0.213730,-0.024182
34800,9.903976,1.403329,1.645104,-0.361640,0.248097,-0.037504
34801,9.888772,1.494055,1.647981,-0.407112,0.261614,-0.044421
34802,9.787443,1.582274,1.590688,-0.469208,0.273841,-0.052459
34803,9.766879,1.636075,1.559495,-0.507960,0.287059,-0.066731
34804,9.698102,1.688332,1.538642,-0.530952,0.294664,-0.081511
34805,9.747993,1.735360,1.631555,-0.573450,0.299024,-0.098330
34806,9.895773,1.696318,1.840070,-0.638021,0.318049,-0.106760
34807,9.926343,1.639045,1.945236,-0.693121,0.340965,-0.111874
34808,9.879967,1.539131,2.023014,-0.726039,0.349245,-0.118380
34809,9.858294,1.510809,1.975102,-0.737847,0.347644,-0.114605
34810,9.809122,1.416153,1.871164,-0.739399,0.341585,-0.116041
34811,9.662137,1.340197,1.773337,-0.707005,0.334629,-0.122494
34812,9.652029,1.393637,1.827535,-0.660110,0.334670,-0.139763
34813,9.687882,1.435786,2.030922,-0.659420,0.335912,-0.138223
34814,9.628257,1.356064,2.198448,-0.709277,0.342409,-0.142402
34815,9.642860,1.239019,2.163806,-0.750849,0.355890,-0.129637
34816,9.535010,1.076729,2.101424,-0.758271,0.361398,-0.119600
34817,9.493074,0.935600,1.974214,-0.728738,0.345588,-0.116296
34818,9.491875,0.770815,1.944696,-0.657025,0.340906,-0.116446
34819,9.553768,0.639327,2.049364,-0.593110,0.328043,-0.101367
34820,9.582042,0.514249,2.078726,-0.552966,0.327906,-0.074403
34821,9.625456,0.400524,2.028740,-0.508100,0.338131,-0.044600
34822,9.611471,0.408915,2.011771,-0.436940,0.348710,-0.008300
34823,9.539827,0.409114,2.149932,-0.394135,0.345502,0.024109
34824,9.482678,0.447655,2.228951,-0.403223,0.333461,0.061472
34825,9.461367,0.420236,2.364074,-0.428455,0.326004,0.094829
34826,9.418064,0.302050,2.438763,-0.463488,0.311042,0.131716
34827,9.367988,0.104897,2.349244,-0.511261,0.293441,0.172989
34828,9.264147,-0.082953,2.208250,-0.512373,0.274066,0.211756
34829,9.245327,-0.269395,2.205720,-0.453459,0.258671,0.268024
34830,9.319548,-0.341277,2.276417,-0.401580,0.233826,0.323352
34831,9.405318,-0.508795,2.406458,-0.400167,0.230720,0.380895
34832,9.409127,-0.704513,2.420096,-0.365990,0.234519,0.439006
34833,9.350708,-0.789807,2.397813,-0.279450,0.238831,0.485511
34834,9.316009,-0.817528,2.440799,-0.184197,0.231630,0.531870
34835,9.354887,-0.812803,2.523897,-0.136570,0.209549,0.579770
34836,9.305960,-0.766790,2.407717,-0.096979,0.184866,0.619009
34837,9.287385,-0.793414,2.297087,-0.036458,0.171105,0.650761
34838,9.271719,-0.788006,2.255605,0.029079,0.160114,0.672722
34839,9.286187,-0.716914,2.351479,0.080266,0.141622,0.702963
34840,9.381171,-0.736687,2.502527,0.105254,0.141390,0.735426
34841,9.374051,-0.641197,2.645720,0.129882,0.162139,0.763708
34842,9.294787,-0.548266,2.793770,0.139242,0.171048,0.779436
34843,9.159412,-0.504067,2.752656,0.109309,0.158274,0.799117
34844,9.071215,-0.592696,2.624230,0.088519,0.121648,0.804989
34845,9.156537,-0.602734,2.523685,0.130769,0.078229,0.807333
34846,9.394642,-0.555592,2.504236,0.167502,0.049739,0.815623
34847,9.495881,-0.303072,2.563074,0.215210,0.060875,0.825832
34848,9.545974,-0.410179,2.718763,0.085806,0.065495,0.848266
34849,9.558621,-0.706348,2.775924,0.029063,0.054749,0.871003
34850,9.691364,-0.896727,2.763224,0.017003,0.053486,0.889330
34851,9.602103,-1.057884,2.732950,-0.010636,0.061912,0.902431
34852,9.460009,-1.178430,2.602006,0.007468,0.062492,0.892610
34853,9.407112,-1.157257,2.621660,0.077115,0.052487,0.868714
34854,9.455621,-1.133575,2.685097,0.115172,0.039499,0.843427
34855,9.503082,-1.113480,2.699829,0.145610,0.039270,0.817078
34856,9.451965,-1.086891,2.671047,0.201646,0.052319,0.788277
34857,9.338089,-1.007665,2.764064,0.254843,0.061645,0.757122
34858,9.245251,-0.938581,2.758775,0.281443,0.043282,0.738247
34859,9.237704,-0.963001,2.661129,0.297814,0.021540,0.719097
34860,9.271057,-0.882841,2.620105,0.318712,0.018760,0.697434
34861,9.375905,-0.866095,2.707151,0.329784,0.019383,0.680929
34862,9.376176,-0.872187,2.704253,0.326204,0.011504,0.659105
34863,9.435705,-0.841452,2.816272,0.335895,0.016921,0.627083
34864,9.483559,-0.744612,2.993820,0.330561,0.018179,0.579803
34865,9.499962,-0.691190,3.155142,0.292634,0.021842,0.541548
34866,9.506510,-0.812953,3.145579,0.213131,0.014904,0.523804
34867,9.508778,-1.065345,2.957108,0.157459,-0.005212,0.518954
34868,9.442775,-1.277229,2.790435,0.169845,-0.010747,0.495646
34869,9.418059,-1.403577,2.707917,0.231421,-0.011610,0.467416
34870,9.392369,-1.410758,2.707123,0.291753,-0.013327,0.435115
34871,9.445323,-1.400652,2.723263,0.310732,-0.034987,0.416422
34872,9.467587,-1.415882,2.694725,0.304011,-0.046139,0.396987
34873,9.466400,-1.424472,2.666346,0.323958,-0.049232,0.374479
34874,9.395605,-1.320210,2.873399,0.369879,-0.027798,0.324078
34875,9.287643,-1.140412,2.997495,0.383909,-0.017852,0.267932
34876,9.198397,-0.976354,3.024372,0.377778,-0.012294,0.212934
34877,9.257679,-0.928070,2.986957,0.338900,-0.019861,0.183434
34878,9.410656,-1.027260,2.943771,0.288685,-0.041894,0.173092
34879,9.553642,-1.174167,2.909665,0.274140,-0.035251,0.165463
34880,9.632953,-1.290847,3.076300,0.282074,-0.003330,0.142517
34881,9.590042,-1.274294,3.255272,0.300947,0.037417,0.119076
34882,9.403326,-1.094696,3.315919,0.320021,0.056107,0.076168
34883,9.497479,-0.915629,3.632402,0.324319,0.063515,0.044073
34884,9.604285,-0.895234,3.932145,0.208701,0.109064,0.034378
34885,9.499028,-0.976328,3.696084,0.106101,0.158876,0.010440
34886,9.312109,-0.989966,3.680990,0.168613,0.208331,-0.020293
34887,9.276315,-0.904135,4.015105,0.204522,0.254488,-0.039539
34888,9.502601,-0.960309,4.089383,0.122631,0.249229,-0.038379
34889,9.708472,-1.194526,3.704146,0.127836,0.265547,-0.048991
34890,9.902300,-1.269958,3.541764,0.266552,0.305379,-0.078380
34891,9.987978,-1.156968,3.626661,0.359395,0.328576,-0.102887
34892,9.967477,-0.947668,3.674212,0.370955,0.350613,-0.140643
34893,9.978664,-0.806032,3.988651,0.402803,0.382032,-0.179050
34894,9.942169,-0.751547,4.202948,0.374886,0.410212,-0.189749
34895,9.920803,-0.851805,4.329483,0.305714,0.441669,-0.183679
34896,9.886533,-1.023876,4.274710,0.244759,0.467793,-0.166902
34897,9.828485,-1.189955,4.247097,0.203295,0.519341,-0.141183
34898,9.812437,-1.388590,4.254497,0.164733,0.556559,-0.104736
34899,9.750450,-1.595708,4.114510,0.091796,0.571205,-0.049724
34900,9.863768,-1.759340,4.236697,0.031846,0.582125,0.008359
34901,9.955287,-1.880290,4.449987,-0.024297,0.622429,0.077634
34902,9.940884,-2.067558,4.454577,-0.139543,0.677406,0.150254
34903,9.724931,-2.393802,4.389494,-0.255467,0.723133,0.225743
34904,9.450706,-2.887310,4.257821,-0.341749,0.763713,0.306317
34905,9.299270,-3.262306,4.122689,-0.288959,0.827496,0.376778
34906,9.178812,-3.380674,4.258896,-0.144611,0.872286,0.451816
34907,9.230842,-3.256721,4.426252,-0.057881,0.909276,0.532096
34908,9.183935,-3.175001,4.451714,-0.096001,0.930772,0.633587
34909,9.231457,-3.295964,4.551213,-0.181474,0.946129,0.740479
34910,9.275285,-3.442227,4.603438,-0.234112,0.959896,0.848178
34911,9.176581,-3.579315,4.569393,-0.233325,1.013081,0.935066
34912,9.006741,-3.682196,4.901037,-0.238919,1.075116,1.027695
34913,8.719372,-3.832453,5.004548,-0.304624,1.077478,1.143228
34914,8.608265,-3.901627,4.922880,-0.348900,1.090048,1.241099
34915,8.587235,-3.929456,4.992053,-0.334723,1.147441,1.328884
34916,8.620607,-3.978628,5.426459,-0.393967,1.186918,1.436674
34917,8.687963,-4.053705,5.467453,-0.520610,1.222350,1.537074
34918,8.735846,-4.256758,5.632811,-0.636494,1.283547,1.639540
34919,8.571146,-4.597928,5.518254,-0.750210,1.310048,1.739852
34920,8.249282,-4.899212,5.643640,-0.754375,1.349476,1.814950
34921,8.346288,-5.092080,5.634649,-0.701810,1.365598,1.890285
34922,8.246515,-5.143006,5.673641,-0.670807,1.420637,1.977877
34923,8.017629,-5.337928,5.616856,-0.718787,1.405573,2.051967
34924,8.161579,-5.325698,5.511184,-0.731751,1.440282,2.114552
34925,8.045730,-5.424342,5.912535,-0.744148,1.471352,2.192768
34926,8.119782,-5.517629,5.796222,-0.827981,1.510244,2.259633
34927,7.945430,-5.693072,5.846824,-0.889183,1.600064,2.301830
34928,7.570220,-5.854972,6.207018,-0.899079,1.671895,2.338484
34929,7.002290,-6.038784,6.393459,-0.915472,1.695714,2.383436
34930,6.801485,-6.116674,6.186162,-0.970777,1.705065,2.429056
34931,6.516161,-6.097348,6.140708,-0.946359,1.699131,2.499145
34932,6.375743,-6.220467,6.104738,-0.987970,1.687782,2.535525
34933,6.499351,-6.219956,6.047223,-1.054225,1.698751,2.583429
34934,6.330087,-6.346133,5.868453,-1.127657,1.729826,2.589642
34935,5.979235,-6.353666,6.076009,-1.170194,1.797697,2.574915
34936,5.475204,-6.427950,6.339585,-1.242338,1.790799,2.576471
34937,5.188709,-6.565421,6.021799,-1.340069,1.798309,2.580273
34938,4.890084,-6.851280,5.815046,-1.415297,1.839070,2.575167
34939,4.286942,-7.034018,5.941247,-1.401576,1.863872,2.573685
34940,4.052194,-7.065221,6.051974,-1.399488,1.813371,2.572304
34941,3.898524,-7.117049,5.765223,-1.459211,1.766425,2.561544
34942,3.768247,-7.293794,5.360237,-1.518451,1.716921,2.549260
34943,3.226602,-7.384807,5.205902,-1.465357,1.673756,2.543913
34944,2.818749,-7.356665,5.196761,-1.404410,1.584337,2.511111
34945,2.848525,-7.275918,4.976654,-1.398880,1.524406,2.469363
34946,2.553617,-7.291677,4.989282,-1.395957,1.512973,2.413341
34947,2.329503,-7.351525,5.177353,-1.420206,1.514668,2.373494
34948,2.027869,-7.510094,5.055099,-1.431073,1.508845,2.352020
34949,1.545234,-7.666288,4.825044,-1.400461,1.455206,2.319487
34950,1.462581,-7.781602,4.609468,-1.317278,1.395791,2.286035
34951,1.197535,-7.739740,4.640675,-1.200885,1.372754,2.254284
34952,0.747966,-7.498321,4.680845,-1.110307,1.292599,2.214319
34953,0.400290,-7.338944,4.582211,-1.148868,1.187851,2.132163
34954,0.419266,-7.494123,4.159526,-1.234202,1.103339,2.083050
34955,0.331074,-7.898129,3.815713,-1.109612,1.079766,2.023388
34956,0.243059,-7.911465,3.690098,-0.865854,1.090611,1.952726
34957,-0.132405,-7.692380,3.827526,-0.639260,1.093310,1.881988
34958,-0.526492,-7.382498,3.763442,-0.557584,1.038734,1.789096
34959,-0.768651,-7.068678,3.732956,-0.491442,0.968824,1.682441
34960,-0.775579,-6.823462,3.895996,-0.495268,0.913237,1.562858
34961,-0.666321,-6.793552,3.870091,-0.550694,0.917522,1.496796
34962,-1.136968,-6.887610,3.813385,-0.561170,0.891168,1.422592
34963,-1.523816,-6.856449,4.087997,-0.558912,0.815035,1.324213
34964,-1.815394,-6.973188,3.957812,-0.699261,0.699533,1.207790
34965,-1.867010,-7.209359,3.304800,-0.746556,0.611862,1.105836
34966,-1.700290,-7.296758,2.936076,-0.543160,0.585849,1.030883
34967,-1.527571,-7.191512,2.977338,-0.365910,0.622430,0.985554
34968,-1.845354,-7.070238,3.119239,-0.272552,0.689990,0.939764
34969,-2.246559,-6.981700,3.297938,-0.233273,0.677157,0.889014
34970,-2.521731,-6.915571,3.356994,-0.196640,0.645587,0.828859
34971,-2.716623,-6.695879,3.472029,-0.198706,0.605346,0.764341
34972,-2.642185,-6.584322,3.531575,-0.265196,0.550680,0.702925
34973,-2.589327,-6.720388,3.274604,-0.328445,0.527989,0.660160
34974,-2.656325,-7.081020,3.096177,-0.287012,0.524889,0.601599
34975,-2.908007,-7.162899,3.150721,-0.210146,0.513476,0.533354
34976,-3.120878,-7.248007,3.203723,-0.198146,0.453656,0.455698
34977,-3.143840,-7.281503,3.076642,-0.132791,0.379012,0.371921
34978,-3.018934,-7.289832,2.906357,-0.008217,0.319381,0.285097
34979,-2.908788,-7.136611,2.816983,0.096939,0.276934,0.196757
34980,-2.845278,-6.976877,2.915385,0.192140,0.250819,0.112655
34981,-2.830208,-6.731196,3.048872,0.242058,0.220385,0.022930
34982,-2.807757,-6.506601,3.221631,0.239437,0.164013,-0.083544
34983,-2.731172,-6.411202,3.073763,0.196765,0.099515,-0.194693
34984,-2.773093,-6.458033,2.885814,0.196910,0.039185,-0.302064
34985,-2.731386,-6.489098,2.727214,0.248144,-0.029892,-0.410566
34986,-2.579159,-6.383468,2.755549,0.286186,-0.123046,-0.510005
34987,-2.486518,-6.460296,2.678986,0.323724,-0.171865,-0.590741
34988,-2.720251,-6.628862,2.738799,0.398913,-0.205447,-0.659097
34989,-2.859652,-6.869194,2.897597,0.482821,-0.262588,-0.733491
34990,-2.836807,-6.999862,3.070005,0.560276,-0.312657,-0.801695
34991,-2.786448,-7.127202,3.266252,0.645663,-0.340047,-0.864673
34992,-2.777880,-7.089066,3.518967,0.735548,-0.393431,-0.921125
34993,-2.694838,-6.980048,3.495081,0.805357,-0.453546,-0.965729
34994,-2.551428,-6.799246,3.472942,0.853814,-0.517230,-1.023411
34995,-2.124473,-6.735214,3.549468,0.853484,-0.605256,-1.116598
34996,-1.421523,-6.781450,3.580373,0.842268,-0.656697,-1.227908
34997,-1.100381,-6.904795,3.723580,0.858582,-0.640481,-1.326747
34998,-1.256407,-7.104721,4.034313,0.875961,-0.610334,-1.410899
34999,-1.555824,-7.428336,4.062902,0.913916,-0.646120,-1.483988
35000,-1.779516,-7.753933,4.027801,1.032704,-0.688875,-1.542560
35001,-1.805905,-7.882923,4.080376,1.167573,-0.772867,-1.611967
35002,-1.138053,-7.639524,4.223918,1.312962,-0.869142,-1.679287
35003,-0.559449,-7.219316,4.381031,1.367738,-0.921395,-1.737177
35004,-0.402739,-7.129381,4.528101,1.360265,-0.941343,-1.819170
35005,-0.260006,-7.186187,4.690455,1.381403,-0.961130,-1.914203
35006,-0.163566,-7.306317,4.984058,1.448027,-0.975698,-1.976523
35007,-0.260857,-7.525797,5.155300,1.506157,-0.991978,-2.006594
35008,-0.435469,-7.726493,5.087037,1.587693,-0.999900,-2.010739
35009,-0.610734,-7.778250,5.180131,1.657756,-1.036995,-2.009409
35010,-0.417760,-7.536324,5.265226,1.711960,-1.150676,-2.026492
35011,0.163375,-7.020389,5.132928,1.739363,-1.307090,-2.086268
35012,1.199196,-6.526611,5.121811,1.707620,-1.437962,-2.182270
35013,2.170879,-6.517362,5.506016,1.627604,-1.434406,-2.274338
35014,2.351008,-6.922802,6.147782,1.574144,-1.291562,-2.325955
35015,1.864434,-7.316297,6.557784,1.630969,-1.193367,-2.311236
35016,1.714537,-7.309673,6.433123,1.756762,-1.245235,-2.288012
35017,1.993806,-7.044094,6.093626,1.862489,-1.336598,-2.290653
35018,2.079423,-6.720574,5.972046,1.909620,-1.407915,-2.325793
35019,2.278941,-6.290120,6.125396,1.935620,-1.512108,-2.365287
35020,2.799391,-5.774830,6.205870,1.889024,-1.583092,-2.400721
35021,3.434432,-5.502304,6.649602,1.767092,-1.589915,-2.454086
35022,3.926250,-5.551047,7.063027,1.595297,-1.534042,-2.482085
35023,3.866076,-5.845162,7.068761,1.520798,-1.432087,-2.475461
35024,3.695644,-5.868467,6.869483,1.571102,-1.464196,-2.474196
35025,3.944562,-5.645596,6.671788,1.584364,-1.568138,-2.477733
35026,4.257905,-5.497291,6.376999,1.576511,-1.650697,-2.490445
35027,4.480886,-5.282346,6.266416,1.612402,-1.708770,-2.499296
35028,4.768662,-5.143473,6.568113,1.647836,-1.730564,-2.489857
35029,5.139099,-5.079523,6.645855,1.635992,-1.686000,-2.462603
35030,5.404960,-4.995786,6.779942,1.637682,-1.597634,-2.415458
35031,5.587166,-4.716657,7.187857,1.636341,-1.529205,-2.347091
35032,5.980910,-4.359412,7.526926,1.527999,-1.552934,-2.233176
35033,6.478453,-4.178313,7.328817,1.285211,-1.633736,-2.097639
35034,6.671140,-4.380727,6.885075,1.116163,-1.682427,-1.983430
35035,6.873192,-4.669744,6.299330,1.115207,-1.711991,-1.910804
35036,7.071336,-4.541755,5.930592,1.236354,-1.718571,-1.872742
35037,7.202320,-4.126851,6.030992,1.364342,-1.721920,-1.867068
35038,7.404972,-3.667314,6.523732,1.416540,-1.707169,-1.879673
35039,7.868085,-3.171517,7.199047,1.320309,-1.682121,-1.849842
35040,8.398702,-2.743604,7.463793,1.062544,-1.667856,-1.762150
35041,8.674843,-2.867040,7.674889,0.789955,-1.591751,-1.629622
35042,8.580805,-3.243204,7.563062,0.594919,-1.512020,-1.458117
35043,8.129802,-3.569529,7.059418,0.517455,-1.481464,-1.299495
35044,7.802017,-3.736356,6.717568,0.523913,-1.481966,-1.164719
35045,7.727070,-3.805164,5.980672,0.534253,-1.479231,-1.071791
35046,7.710504,-3.581646,5.686756,0.674368,-1.424082,-1.049763
35047,7.889226,-2.809035,6.239454,0.902901,-1.407775,-1.028890
35048,8.405948,-2.072867,6.752168,0.861980,-1.381792,-0.961457
35049,8.834230,-1.819146,7.215475,0.500428,-1.295029,-0.838504
35050,8.892977,-2.178906,7.241385,0.110301,-1.216558,-0.664832
35051,8.852971,-2.820900,6.723352,-0.045418,-1.146216,-0.484773
35052,8.861140,-3.132800,6.115223,0.023320,-1.093753,-0.331450
35053,8.993041,-3.130893,5.677864,0.139970,-1.051724,-0.218611
35054,9.045617,-2.815589,5.108248,0.256343,-1.003658,-0.158037
35055,8.976258,-2.247152,5.278855,0.414276,-0.925257,-0.145477
35056,8.987320,-1.685627,5.757350,0.423859,-0.899040,-0.113769
35057,9.201292,-1.434032,6.153165,0.155330,-0.902577,-0.011736
35058,9.459037,-1.567901,5.962566,-0.194418,-0.880171,0.105888
35059,9.637112,-2.108785,5.567327,-0.381996,-0.820406,0.237634
35060,9.548366,-2.514998,5.038728,-0.320264,-0.732841,0.331364
35061,9.295760,-2.468881,5.058579,-0.053023,-0.650913,0.347932
35062,8.989910,-2.049553,5.308982,0.117326,-0.602322,0.308035
35063,8.844342,-1.641901,5.516887,0.188434,-0.570951,0.269579
35064,8.864860,-1.236982,5.647056,0.188897,-0.521257,0.246672
35065,8.980856,-1.179269,5.744639,0.074830,-0.484747,0.267814
35066,9.040285,-1.278309,5.392979,-0.059068,-0.494747,0.305731
35067,9.241799,-1.469265,5.131378,-0.083183,-0.494896,0.333054
35068,9.287051,-1.555850,4.846359,-0.047315,-0.487525,0.358156
35069,9.252253,-1.562408,4.503981,-0.017533,-0.500042,0.353651
35070,9.202454,-1.378628,4.334480,0.045987,-0.474165,0.303922
35071,9.100376,-1.109756,4.294966,0.120779,-0.440964,0.244939
35072,9.070812,-0.935964,4.321648,0.148364,-0.431680,0.197561
35073,9.217130,-0.767218,4.542397,0.117418,-0.413845,0.168366
35074,9.399592,-0.753184,4.634617,0.021188,-0.393433,0.166448
35075,9.428168,-0.961938,4.584358,-0.062305,-0.365370,0.184604
35076,9.507472,-1.249568,4.589579,-0.065483,-0.315961,0.196573
35077,9.388725,-1.379949,4.616922,-0.034835,-0.259354,0.212333
35078,9.200521,-1.375805,4.603525,-0.018105,-0.227925,0.210289
35079,9.079538,-1.431698,4.537810,-0.034191,-0.220144,0.221454
35080,9.100481,-1.437663,4.410754,-0.040341,-0.206690,0.211078
35081,9.107754,-1.472037,4.345817,-0.010030,-0.191344,0.190910
35082,9.036336,-1.413881,4.252551,0.022692,-0.161088,0.161066
35083,9.008311,-1.405092,4.360161,0.051219,-0.145892,0.124534
35084,9.020073,-1.413114,4.271797,0.059838,-0.127224,0.109169
35085,8.978333,-1.439253,4.164641,0.072784,-0.109380,0.101828
35086,8.949639,-1.537800,4.005665,0.088507,-0.109552,0.104126
35087,8.987298,-1.697964,3.790859,0.103331,-0.123117,0.115674
35088,9.028878,-1.813467,3.637911,0.135723,-0.134221,0.127493
35089,9.099818,-1.918906,3.457134,0.193195,-0.134761,0.127556
35090,9.059976,-1.880791,3.461513,0.276036,-0.119767,0.116268
35091,9.081475,-1.608513,3.650547,0.349607,-0.091750,0.089729
35092,8.973405,-1.356399,3.821859,0.369761,-0.071295,0.066574
35093,8.943559,-1.031675,3.866604,0.344210,-0.062715,0.048300
35094,8.938122,-0.816251,3.921174,0.261715,-0.062813,0.043027
35095,8.964166,-0.826464,3.896135,0.135461,-0.066142,0.056700
35096,9.120742,-0.928576,3.875088,0.028660,-0.072405,0.074185
35097,9.170150,-1.057579,3.860985,-0.026970,-0.048958,0.075853
35098,9.164688,-1.072537,3.910499,-0.077006,-0.033890,0.069933
35099,9.134735,-1.058896,4.027587,-0.130241,-0.025392,0.053043
35100,9.117347,-1.033287,4.036999,-0.185104,-0.022160,0.034436
35101,9.189957,-1.109107,3.900199,-0.240955,-0.028201,0.027149
35102,9.263758,-1.232224,3.623102,-0.274674,-0.039356,0.009462
35103,9.313709,-1.307872,3.457584,-0.249165,-0.056537,-0.005026
35104,9.374691,-1.367498,3.494308,-0.193116,-0.041030,-0.037020
35105,9.447007,-1.330467,3.656683,-0.142627,-0.031004,-0.081164
35106,9.395468,-1.298682,3.771703,-0.142759,-0.020406,-0.127402
35107,9.304136,-1.305601,3.644077,-0.113706,-0.027470,-0.173022
35108,9.200890,-1.194349,3.684422,-0.043407,-0.051359,-0.227993
35109,9.251884,-0.967647,3.689002,0.021304,-0.070875,-0.290074
35110,9.273150,-0.742975,3.721329,0.063940,-0.079988,-0.341604
35111,9.270444,-0.529744,3.681356,0.086640,-0.088976,-0.396504
35112,9.255706,-0.356470,3.655341,0.088615,-0.095643,-0.446680
35113,9.235124,-0.217103,3.589164,0.063054,-0.111926,-0.499086
35114,9.304325,-0.124458,3.512764,0.023369,-0.133158,-0.550601
35115,9.362624,-0.057615,3.495900,-0.040403,-0.145053,-0.610813
35116,9.440750,-0.044626,3.394050,-0.109798,-0.163142,-0.676839
35117,9.375542,-0.109153,3.342373,-0.150035,-0.177571,-0.756353
35118,9.325318,-0.172080,3.445568,-0.151737,-0.179698,-0.832283
35119,9.273040,-0.244431,3.578108,-0.152814,-0.202949,-0.908491
35120,9.156300,-0.292152,3.651294,-0.149574,-0.195887,-0.976847
35121,8.994108,-0.343241,3.675671,-0.120296,-0.194752,-1.049855
35122,8.924372,-0.278633,3.691525,-0.089318,-0.192489,-1.103995
35123,8.967561,-0.333191,3.619839,-0.074267,-0.212238,-1.128552
35124,9.131334,-0.413685,3.582960,-0.037775,-0.243250,-1.144249
35125,9.236078,-0.439701,3.425034,0.034826,-0.246360,-1.166650
35126,9.216487,-0.447409,3.338515,0.136506,-0.232756,-1.203491
35127,9.126459,-0.352411,3.373873,0.235143,-0.243436,-1.233759
35128,9.111054,-0.281944,3.342145,0.283489,-0.263049,-1.262578
35129,9.193955,-0.221866,3.290016,0.329134,-0.279112,-1.268362
35130,9.295734,-0.167456,3.368733,0.371698,-0.283619,-1.264004
35131,9.302070,-0.122935,3.396831,0.373998,-0.283469,-1.247210
35132,9.258904,-0.063816,3.469711,0.359100,-0.280600,-1.221329
35133,9.169248,-0.001305,3.487412,0.326001,-0.279519,-1.189561
35134,9.204142,0.008760,3.447627,0.271104,-0.289725,-1.159303
35135,9.216410,-0.055313,3.431223,0.219149,-0.283065,-1.119548
35136,9.162870,-0.228414,3.345675,0.166763,-0.288766,-1.075785
35137,9.235680,-0.373296,3.201669,0.160955,-0.278946,-1.028277
35138,9.284399,-0.498476,3.127555,0.196756,-0.268078,-0.971171
35139,9.231805,-0.539871,3.097836,0.237270,-0.260763,-0.910441
35140,9.181841,-0.582003,2.937358,0.281833,-0.275624,-0.847730
35141,9.145816,-0.468197,2.642217,0.399702,-0.276943,-0.807234
35142,9.066237,-0.183991,2.542954,0.561644,-0.268539,-0.773524
35143,9.019222,0.227998,2.498755,0.663678,-0.284778,-0.741699
35144,9.041640,0.630126,2.478967,0.671228,-0.324351,-0.699345
35145,9.226734,0.852228,2.497955,0.572066,-0.374083,-0.632593
35146,9.366404,0.811255,2.478587,0.409428,-0.403969,-0.555562
35147,9.366826,0.703564,2.423908,0.302709,-0.407898,-0.479585
35148,9.269618,0.588700,2.340881,0.266137,-0.399229,-0.412615
35149,9.178418,0.635460,2.349847,0.225330,-0.398680,-0.345454
35150,9.104347,0.717975,2.262963,0.180194,-0.417094,-0.289103
35151,9.099106,0.834537,2.185850,0.125842,-0.446931,-0.228070
35152,9.136972,0.968513,2.018153,0.088167,-0.480182,-0.177940
35153,9.213588,1.034841,2.006046,0.042555,-0.494203,-0.135681
35154,9.273454,1.057745,2.034485,-0.007010,-0.506444,-0.094379
35155,9.347821,1.042070,2.234681,-0.043341,-0.500956,-0.057020
35156,9.337640,1.092397,2.380728,-0.073977,-0.481210,-0.022921
35157,9.252524,1.133341,2.479547,-0.096905,-0.454065,-0.004999
35158,9.238303,1.334091,2.489871,-0.064908,-0.421378,-0.000986
35159,9.327404,1.718714,2.585088,-0.027932,-0.400574,0.007404
35160,9.592470,1.941822,2.742614,-0.085673,-0.396980,0.044514
35161,9.458166,1.425621,2.779315,-0.200230,-0.418526,0.186701
35162,9.030592,0.603485,2.328904,-0.125683,-0.549274,0.320343
35163,9.261757,0.192651,1.890210,0.158620,-0.715721,0.363457
35164,9.863503,0.037523,1.583948,0.527515,-0.767352,0.332181
35165,10.253253,0.290139,1.433589,0.884291,-0.680637,0.262975
35166,10.153379,0.941990,1.332690,1.142249,-0.537125,0.216812
35167,9.913906,1.883269,1.382884,1.244596,-0.399246,0.169398
35168,9.810238,2.684602,1.776336,1.137353,-0.303045,0.148413
35169,9.686442,3.323038,2.219421,0.860678,-0.240316,0.159000
35170,9.659345,3.644388,2.539076,0.417085,-0.238623,0.186003
35171,9.563875,3.758832,2.537140,-0.127311,-0.275536,0.222925
35172,9.613061,3.483072,2.390666,-0.595818,-0.321163,0.242021
35173,9.730962,2.985335,2.235312,-0.925845,-0.342401,0.257920
35174,9.674610,2.371622,2.008243,-1.125860,-0.362858,0.258467
35175,9.757396,1.734546,1.713894,-1.167186,-0.384275,0.244186
35176,9.862658,1.273036,1.544654,-1.045577,-0.349494,0.234387
35177,9.891693,0.899761,1.606583,-0.852016,-0.304739,0.235354
35178,9.840239,0.638200,1.707173,-0.684387,-0.294170,0.234561
35179,9.850230,0.480504,1.626695,-0.429260,-0.268017,0.216307
35180,9.888125,0.789766,1.708878,-0.076376,-0.179985,0.187503
35181,9.767996,1.260542,1.993227,0.128540,-0.103696,0.159108
35182,9.555012,1.659241,2.111510,0.102627,-0.079736,0.126399
35183,9.395722,1.734376,1.903636,-0.024968,-0.101376,0.103802
35184,9.410905,1.619202,1.749437,-0.111624,-0.120616,0.083108
35185,9.554500,1.510703,1.629616,-0.125960,-0.116183,0.073011
35186,9.712053,1.415086,1.609678,-0.125645,-0.088180,0.074354
35187,9.748617,1.339898,1.624368,-0.136355,-0.084770,0.073367
35188,9.964360,1.148240,1.607551,-0.161478,-0.103098,0.075482
35189,10.107274,0.976406,1.459047,-0.173531,-0.098442,0.074639
35190,10.108185,0.837455,1.528075,-0.077503,-0.065881,0.069695
35191,10.033822,0.878005,1.540933,0.045516,-0.037084,0.069625
35192,9.946754,0.984310,1.663608,0.100336,-0.031315,0.064048
35193,9.922020,1.098698,1.564780,0.164561,-0.018996,0.071596
35194,9.891368,1.232519,1.592072,0.218317,0.005670,0.067180
35195,9.751400,1.450177,1.602522,0.220336,0.017303,0.061695
35196,9.687697,1.557301,1.566421,0.183346,0.005117,0.051518
35197,9.682004,1.600356,1.546679,0.120373,-0.014072,0.044489
35198,9.725636,1.489413,1.448453,0.085559,-0.015204,0.039277
35199,9.745062,1.376466,1.354788,0.083909,-0.011588,0.035957
35200,9.739726,1.325213,1.294210,0.104335,0.006591,0.028113
35201,9.763901,1.326176,1.289979,0.126172,0.019532,0.022106
35202,9.745945,1.341779,1.339152,0.119208,0.017674,0.019222
35203,9.716146,1.289883,1.284425,0.098075,0.015785,0.018654
35204,9.691548,1.312069,1.146142,0.099294,0.011764,0.018742
35205,9.673232,1.390963,1.222704,0.091106,0.013930,0.015763
35206,9.633885,1.477041,1.325922,0.051689,0.012221,0.015402
35207,9.616293,1.429296,1.347756,0.026115,0.010047,0.009613
35208,9.622695,1.383408,1.365748,-0.002928,0.006190,0.008307
35209,9.644567,1.248032,1.284945,-0.061241,0.001101,0.015323
35210,9.630151,1.137111,1.145401,-0.062391,-0.007472,0.018313
35211,9.699255,1.163379,1.124829,-0.006432,-0.001210,0.013477
35212,9.704702,1.306768,1.225372,0.006677,0.007385,0.012076
35213,9.666097,1.265848,1.273603,-0.040158,-0.001227,0.004746
35214,9.684388,1.217062,1.210844,-0.057624,-0.011242,0.002569
35215,9.684484,1.216481,1.210664,-0.025071,-0.002871,-0.000919
35216,9.657334,1.307472,1.390052,-0.020311,0.000477,-0.005945
35217,9.630433,1.265010,1.357897,-0.051770,-0.005017,-0.004786
35218,9.672795,1.187587,1.277071,-0.048502,-0.010719,-0.009967
35219,9.705836,1.217029,1.340151,-0.030491,-0.008557,-0.013587
35220,9.754053,1.189779,1.317689,-0.052531,-0.014523,-0.010067
35221,9.741978,1.154558,1.227160,-0.054487,-0.008538,-0.016850
35222,9.753760,1.222725,1.331243,-0.021954,0.001218,-0.008901
35223,9.705412,1.250906,1.353765,-0.070871,0.000042,-0.011719
35224,9.672917,1.127258,1.248354,-0.088818,-0.017598,-0.004702
35225,9.792709,1.199490,1.256179,-0.046581,-0.005206,-0.004666
35226,9.729284,1.283394,1.364401,-0.063658,0.005304,-0.006158
35227,9.704971,1.312290,1.383897,-0.113412,0.001772,-0.003627
35228,9.729491,1.218152,1.339503,-0.127505,0.003476,-0.000036
35229,9.708655,1.191628,1.353833,-0.149823,0.001645,0.001239
35230,9.739319,1.114313,1.354181,-0.162900,-0.005192,0.003817
35231,9.722197,1.001876,1.347393,-0.149300,-0.010111,-0.002753
35232,9.815074,1.031115,1.323952,-0.110252,-0.002019,-0.007779
35233,9.766708,1.058440,1.347420,-0.084479,0.007285,-0.014220
35234,9.751699,1.051203,1.406529,-0.084156,0.007753,-0.011106
35235,9.721672,1.000390,1.352278,-0.065381,0.005055,-0.007660
35236,9.745099,1.065422,1.378144,-0.024787,0.007816,-0.010681
35237,9.747362,1.137901,1.430993,-0.002615,0.019462,-0.014667
35238,9.722341,1.200606,1.466031,-0.015704,0.026781,-0.026805
35239,9.718928,1.162819,1.431500,-0.035662,0.018034,-0.027057
35240,9.709364,1.139063,1.365978,-0.043702,0.021898,-0.028645
35241,9.681771,1.130523,1.349785,-0.036781,0.020896,-0.025459
35242,9.660443,1.107806,1.364154,-0.047764,0.015250,-0.028491
35243,9.712085,0.996794,1.323007,-0.048545,0.009951,-0.022758
35244,9.681743,0.979640,1.283013,-0.012110,0.013001,-0.027905
35245,9.698518,1.061115,1.278506,0.021360,0.016435,-0.024048
35246,9.655583,1.108329,1.347566,0.013137,0.018643,-0.027054
35247,9.661299,1.096852,1.379739,0.009273,0.010764,-0.025139
35248,9.652064,1.073711,1.312554,0.008914,0.007462,-0.027974
35249,9.676110,1.046717,1.294552,0.018004,0.002062,-0.016598
35250,9.669640,1.062922,1.263952,0.044353,0.010610,-0.018020
35251,9.680670,1.131197,1.369556,0.054950,0.012980,-0.017841
35252,9.677790,1.093065,1.333130,0.014682,0.007736,-0.011418
35253,9.689574,1.093162,1.253338,0.021434,0.002217,-0.009299
35254,9.667525,1.164259,1.308890,0.059121,0.012730,-0.015664
35255,9.653733,1.292906,1.447238,0.042809,0.017214,-0.008515
35256,9.735422,1.231581,1.461260,-0.006578,0.004305,-0.000379
35257,9.763422,1.143451,1.280890,-0.037277,-0.005652,-0.002554
35258,9.793544,1.127123,1.151986,-0.001805,0.007694,-0.005351
35259,9.756173,1.221407,1.279977,0.028013,0.015115,-0.010903
35260,9.722380,1.262079,1.401750,-0.012356,0.004017,-0.016961
