// Start Time: Unknown
// Update Rate: 100.0Hz
// Filter Profile: human (46.1)
// Firmware Version: 4.3.5
PacketCounter,Acc_X,Acc_Y,Acc_Z,Gyr_X,Gyr_Y,Gyr_Z
39066,9.625550,-2.302946,0.882003,0.004762,0.006010,-0.023540
39067,9.549443,-2.291021,0.882102,0.000120,0.006270,-0.024192
39068,9.544003,-2.275130,0.863322,-0.006966,0.009280,-0.026285
39069,9.547977,-2.306765,0.870038,-0.008466,0.007544,-0.020555
39070,9.551877,-2.338793,0.876661,-0.009278,0.007986,-0.018248
39071,9.573372,-2.356158,0.857237,-0.001138,-0.000703,-0.016239
39072,9.556141,-2.369553,0.882873,0.001457,-0.001454,-0.013894
39073,9.608414,-2.324893,0.897272,0.015136,0.003015,-0.014173
39074,9.581696,-2.290715,0.897888,0.019049,-0.002614,-0.018261
39075,9.623306,-2.272461,0.866150,0.014007,0.000885,-0.022050
39076,9.602681,-2.251213,0.886053,0.003487,0.000462,-0.023968
39077,9.588064,-2.243273,0.925376,-0.007282,0.005278,-0.028119
39078,9.589840,-2.294599,0.918616,-0.013411,0.009838,-0.031622
39079,9.553788,-2.340486,0.865871,-0.012203,0.006156,-0.030802
39080,9.542779,-2.366272,0.911503,0.000101,0.006277,-0.024228
39081,9.556087,-2.389832,0.859540,0.008550,0.001594,-0.020404
39082,9.558836,-2.367856,0.873379,0.026858,-0.000219,-0.011443
39083,9.589752,-2.304336,0.907757,0.031774,-0.001092,-0.008775
39084,9.599457,-2.221960,0.961676,0.019082,0.000599,-0.010115
39085,9.593712,-2.207300,0.942560,0.002837,0.001478,-0.012392
39086,9.618891,-2.258294,0.929298,-0.010148,0.005212,-0.024134
39087,9.561571,-2.286016,0.896039,-0.011235,0.006274,-0.023848
39088,9.536210,-2.305221,0.889588,-0.005231,0.010385,-0.030064
39089,9.528463,-2.309308,0.857572,-0.006191,0.008827,-0.028660
39090,9.524324,-2.347445,0.831576,0.004730,0.006026,-0.023602
39091,9.609755,-2.347789,0.865581,0.018103,0.000482,-0.017097
39092,9.636949,-2.250167,0.893683,0.024808,-0.000692,-0.009759
39093,9.644133,-2.188127,0.934308,0.012411,0.004985,-0.009290
39094,9.584253,-2.237476,0.887628,-0.008364,-0.001143,-0.010886
39095,9.579851,-2.277055,0.860949,-0.009711,0.005158,-0.012837
39096,9.558945,-2.256596,0.881104,-0.006308,0.010017,-0.021408
39097,9.602767,-2.217874,0.863297,-0.009995,0.011823,-0.023473
39098,9.603190,-2.215702,0.864170,-0.020368,0.013375,-0.024494
39099,9.569467,-2.242123,0.825054,-0.033065,0.015050,-0.025846
39100,9.577266,-2.307867,0.837823,-0.040012,0.013991,-0.018445
39101,9.608497,-2.372818,0.844081,-0.033452,0.010820,-0.012008
39102,9.586504,-2.427825,0.843098,-0.021027,0.003722,-0.004077
39103,9.622058,-2.453454,0.875465,0.004097,-0.005050,0.005212
39104,9.594625,-2.422012,0.874999,0.012157,-0.012527,0.014515
39105,9.655772,-2.427184,0.913685,0.018296,-0.017076,0.018024
39106,9.700653,-2.502107,0.970274,0.025674,-0.026735,0.030751
39107,9.773354,-2.536527,1.046746,0.041133,-0.034630,0.052334
39108,9.810013,-2.547455,1.090348,0.057963,-0.039584,0.075407
39109,9.849549,-2.465877,1.167721,0.062512,-0.041473,0.100034
39110,9.847045,-2.477087,1.165115,0.058100,-0.041692,0.141891
39111,9.870760,-2.524388,1.161935,0.040510,-0.044770,0.171268
39112,9.890898,-2.596225,1.144677,0.010816,-0.045559,0.219818
39113,9.990305,-2.771363,1.125818,-0.016918,-0.051827,0.275090
39114,10.144876,-3.106838,1.103907,-0.038219,-0.062620,0.344852
39115,10.301197,-3.519088,1.092807,-0.030957,-0.069011,0.431993
39116,10.351211,-3.876989,1.002997,0.011579,-0.083950,0.529538
39117,10.484709,-4.101697,0.986711,0.058099,-0.108576,0.642776
39118,10.691245,-4.223598,0.997821,0.109815,-0.125455,0.770208
39119,10.939880,-4.110337,1.017874,0.139647,-0.134890,0.889233
39120,10.905756,-3.961300,0.939080,0.126891,-0.131906,1.005126
39121,10.676517,-3.986670,0.890752,0.102848,-0.133290,1.117891
39122,10.433903,-4.268980,0.729614,0.081785,-0.132135,1.221819
39123,10.200784,-4.767489,0.659729,0.095345,-0.129606,1.315198
39124,9.956268,-5.249591,0.606176,0.149846,-0.129543,1.404115
39125,9.785360,-5.522360,0.564144,0.236288,-0.140543,1.494269
39126,9.626154,-5.618204,0.651387,0.315041,-0.135895,1.591964
39127,9.500689,-5.511433,0.637112,0.370054,-0.144828,1.678297
39128,9.334716,-5.582423,0.632377,0.408176,-0.139312,1.761568
39129,9.189131,-5.707603,0.649945,0.432174,-0.136074,1.848072
39130,9.007263,-5.756017,0.701676,0.447592,-0.124836,1.918016
39131,8.848756,-5.965576,0.849533,0.431208,-0.092631,1.991161
39132,8.719033,-6.270146,0.838852,0.426291,-0.071986,2.060322
39133,8.581588,-6.748966,0.713116,0.437115,-0.043785,2.131287
39134,8.380209,-7.173213,0.581424,0.499302,-0.021381,2.191224
39135,8.153811,-7.292381,0.521068,0.598424,-0.007295,2.237287
39136,8.036050,-7.315202,0.580893,0.696235,0.011075,2.277620
39137,7.905515,-7.021049,0.801629,0.754587,0.040402,2.306364
39138,7.685284,-6.771694,1.084024,0.729053,0.073352,2.338952
39139,7.549646,-6.671494,1.342362,0.638273,0.109887,2.365182
39140,7.322170,-6.814084,1.410906,0.532723,0.152269,2.375467
39141,6.999555,-6.972871,1.289683,0.465529,0.167272,2.378349
39142,6.678757,-6.950808,1.100310,0.449887,0.166000,2.348542
39143,6.332110,-6.937881,0.925066,0.477406,0.165464,2.314430
39144,6.056829,-6.962363,0.864564,0.523404,0.153631,2.265024
39145,5.931837,-7.085065,0.918723,0.598075,0.164465,2.208134
39146,5.749090,-7.068356,1.112591,0.684760,0.178717,2.144651
39147,5.562494,-6.814032,1.300983,0.763277,0.173848,2.063535
39148,5.503656,-6.552986,1.466804,0.806529,0.181794,1.973809
39149,5.281784,-6.241136,1.522806,0.796438,0.174642,1.881401
39150,5.155914,-6.038096,1.484638,0.750579,0.151344,1.771842
39151,5.339678,-6.070160,1.343541,0.668279,0.126005,1.660835
39152,5.605862,-6.217810,1.205538,0.624711,0.131526,1.539222
39153,5.773329,-6.272627,1.465081,0.585986,0.142818,1.438521
39154,5.823157,-6.266898,1.928093,0.496485,0.164675,1.347725
39155,5.771358,-6.134965,1.960646,0.385432,0.181313,1.251248
39156,5.605650,-6.314176,1.781908,0.305824,0.178638,1.165908
39157,5.291672,-6.483483,1.769993,0.306572,0.178587,1.087645
39158,5.044608,-6.335990,1.726073,0.329828,0.156204,0.996056
39159,5.086269,-6.038906,2.019018,0.311778,0.154977,0.905137
39160,5.076426,-5.911480,2.020855,0.244106,0.145837,0.807692
39161,4.890271,-6.090444,1.890412,0.201812,0.107236,0.723523
39162,4.872674,-6.438850,1.570489,0.197955,0.062320,0.620309
39163,4.908925,-6.770845,1.266777,0.219951,0.029704,0.524553
39164,4.923173,-6.961162,1.161287,0.302715,-0.013492,0.424858
39165,4.886466,-6.869786,1.283294,0.375053,-0.075603,0.330273
39166,5.026308,-6.720491,1.463873,0.416642,-0.116546,0.245804
39167,5.220301,-6.294000,1.881396,0.401331,-0.138424,0.162951
39168,5.513582,-6.040777,2.093390,0.244079,-0.162080,0.105171
39169,5.937773,-6.340739,2.047959,0.027560,-0.155449,0.067669
39170,6.296339,-7.074066,1.896206,-0.148032,-0.132110,0.047217
39171,6.315002,-7.816192,1.664813,-0.180526,-0.112454,0.034654
39172,6.158211,-8.175043,1.594313,-0.108466,-0.107764,0.016139
39173,6.005671,-7.865772,1.689260,-0.018165,-0.125000,0.000426
39174,6.033033,-7.294699,1.883079,-0.015168,-0.145878,-0.017841
39175,6.113076,-7.020261,2.060661,-0.102824,-0.144723,-0.019560
39176,6.202569,-7.377344,2.116387,-0.221136,-0.133473,-0.013083
39177,6.232335,-8.077066,2.164767,-0.260502,-0.115540,-0.001789
39178,6.210056,-8.638354,2.156131,-0.184993,-0.108430,0.002391
39179,6.169946,-8.935156,2.162381,-0.032908,-0.103202,0.006149
39180,6.138262,-8.894005,2.281249,0.134403,-0.099069,0.002207
39181,6.098049,-8.472619,2.417269,0.255602,-0.103581,0.002032
39182,6.061303,-8.134350,2.493068,0.273850,-0.103229,0.021884
39183,6.022162,-8.169645,2.509869,0.215254,-0.091001,0.060977
39184,5.959746,-8.610186,2.233900,0.161396,-0.109576,0.114032
39185,6.309843,-9.446711,2.239794,0.140943,-0.112520,0.172108
39186,7.116507,-10.446290,3.590959,0.160666,-0.032470,0.278109
39187,6.224380,-10.692994,2.004428,0.344348,-0.114814,0.363133
39188,7.045640,-11.189116,1.790490,0.714331,-0.140598,0.382554
39189,6.081958,-10.499807,2.424642,0.928154,-0.155062,0.505600
39190,6.668668,-9.780794,2.866396,0.871795,-0.221117,0.632223
39191,6.817689,-9.933888,3.183600,0.651925,-0.155360,0.793647
39192,6.479038,-10.777342,3.218072,0.458289,-0.161647,0.976256
39193,6.136491,-11.682207,2.995825,0.409009,-0.168779,1.142567
39194,5.627142,-11.959759,2.991096,0.460684,-0.189757,1.298351
39195,5.326833,-11.906286,3.158282,0.517015,-0.209917,1.440614
39196,5.074299,-12.024926,3.333233,0.549749,-0.226804,1.586804
39197,4.834285,-12.229249,3.438147,0.597668,-0.233801,1.727226
39198,4.464011,-12.238619,3.568193,0.654542,-0.241344,1.861116
39199,4.116457,-12.199095,3.621899,0.697353,-0.238779,1.999459
39200,3.944660,-12.372970,3.627330,0.743848,-0.243897,2.149038
39201,3.878516,-12.731512,3.669349,0.832602,-0.233905,2.296958
39202,3.735271,-12.881354,3.677478,0.956897,-0.215744,2.436372
39203,3.392765,-12.675048,3.888538,1.064985,-0.192394,2.575592
39204,3.132341,-12.297063,4.114345,1.123711,-0.158311,2.704257
39205,2.765225,-12.134982,4.310539,1.103864,-0.128881,2.836358
39206,2.445278,-12.063703,4.388092,1.040883,-0.113918,2.965283
39207,2.092336,-11.887523,4.392289,0.940818,-0.103594,3.077320
39208,1.718857,-11.671427,4.484907,0.835427,-0.113404,3.182431
39209,1.470023,-11.795646,4.561460,0.725479,-0.124086,3.279175
39210,1.343134,-12.279128,4.539639,0.710937,-0.125689,3.378415
39211,1.179459,-12.687605,4.515424,0.790297,-0.127474,3.476225
39212,0.922795,-12.658907,4.596304,0.924718,-0.142196,3.570076
39213,0.564363,-12.166595,4.685420,1.054917,-0.150380,3.653173
39214,0.055595,-11.640054,4.656116,1.106224,-0.176736,3.738521
39215,-0.273208,-11.514066,4.460752,1.101543,-0.207437,3.829974
39216,-0.518942,-11.571996,4.205676,1.123476,-0.252179,3.913658
39217,-0.597605,-11.422370,4.184241,1.227804,-0.303536,3.967746
39218,-0.719044,-11.302674,4.362079,1.343542,-0.325155,4.009474
39219,-0.794818,-11.357865,4.466798,1.443325,-0.340395,4.072337
39220,-1.117077,-10.938224,4.600905,1.586647,-0.351779,4.112920
39221,-1.575623,-10.239083,4.774743,1.667654,-0.361951,4.143316
39222,-2.007302,-9.606718,4.989015,1.668525,-0.360219,4.162809
39223,-2.367542,-9.455905,4.957832,1.596117,-0.372613,4.162868
39224,-2.743384,-9.446254,4.893626,1.615055,-0.384358,4.125796
39225,-3.157178,-9.359461,5.047697,1.703954,-0.410816,4.077655
39226,-3.437466,-9.157281,5.219090,1.841430,-0.436737,4.033389
39227,-3.673436,-8.454095,5.366240,2.035854,-0.474726,3.974717
39228,-3.707573,-7.969657,5.334419,2.128151,-0.506520,3.911261
39229,-3.585962,-7.752733,5.156225,2.183597,-0.501160,3.872480
39230,-3.677162,-7.368396,4.988470,2.289271,-0.484055,3.814533
39231,-3.865787,-6.791938,4.989568,2.387542,-0.485363,3.727748
39232,-4.026786,-6.170374,5.088385,2.452775,-0.469816,3.645223
39233,-4.073190,-5.701103,5.211334,2.500666,-0.448160,3.558589
39234,-4.182510,-5.397592,5.307927,2.541709,-0.419556,3.460057
39235,-4.122835,-5.051036,5.462415,2.572347,-0.390292,3.368104
39236,-4.034538,-4.778975,5.363576,2.573488,-0.341994,3.283211
39237,-4.026778,-4.410184,5.134195,2.596777,-0.297049,3.193402
39238,-4.178329,-3.837057,5.103448,2.637019,-0.243190,3.096547
39239,-4.426775,-3.293657,5.217547,2.671929,-0.206648,2.985871
39240,-4.484980,-2.855751,5.403806,2.665578,-0.186363,2.876625
39241,-4.417166,-2.460622,5.623980,2.649502,-0.153459,2.783181
39242,-4.381764,-2.213216,5.544168,2.599006,-0.113183,2.682135
39243,-4.335190,-1.962006,5.284397,2.589683,-0.059596,2.577613
39244,-4.423801,-1.680547,5.154687,2.581933,-0.022307,2.476994
39245,-4.407072,-1.220840,5.030487,2.543506,-0.007260,2.381812
39246,-4.311647,-0.883093,5.035363,2.494711,0.017996,2.288221
39247,-4.315391,-0.579324,5.040726,2.439684,0.033761,2.201112
39248,-4.305193,-0.443973,5.121638,2.389195,0.051188,2.103834
39249,-4.309761,-0.357017,5.108263,2.326276,0.062097,2.028293
39250,-4.230990,-0.437822,5.129844,2.309162,0.077125,1.963188
39251,-4.141990,-0.050237,4.968723,2.330141,0.089549,1.906233
39252,-3.979668,0.579295,4.899853,2.341463,0.090841,1.866940
39253,-3.948188,1.221199,5.034414,2.296141,0.114502,1.804067
39254,-4.042108,1.709009,5.153567,2.146874,0.119769,1.720067
39255,-4.035072,2.033565,5.339828,1.965228,0.126618,1.663339
39256,-3.889870,2.409117,5.379680,1.726089,0.143497,1.626035
39257,-3.742254,2.801192,5.372206,1.480111,0.161952,1.578922
39258,-3.782194,3.287237,5.315908,1.221983,0.177814,1.542835
39259,-3.831540,3.670369,5.303887,0.941321,0.168501,1.464177
39260,-3.885897,3.446487,4.973223,0.641365,0.154945,1.376279
39261,-3.971743,3.004800,4.777527,0.549498,0.143148,1.321926
39262,-4.127525,2.521156,4.591310,0.564711,0.102178,1.261810
39263,-4.225944,2.199680,4.640376,0.706638,0.068068,1.209177
39264,-4.219541,2.235152,4.850088,0.947630,0.018095,1.150258
39265,-3.995478,2.625285,5.098497,1.196765,-0.024804,1.090761
39266,-3.776338,3.113675,5.353652,1.371054,-0.033894,1.031888
39267,-3.746256,3.462444,5.240389,1.469938,-0.036553,0.976666
39268,-3.811150,3.673052,4.863180,1.553182,-0.035179,0.923435
39269,-3.964567,3.993102,4.674666,1.662537,-0.046098,0.870123
39270,-3.902138,4.620089,4.552700,1.713199,-0.067360,0.814316
39271,-3.907116,5.535473,4.673545,1.680514,-0.068356,0.733990
39272,-3.974743,6.360189,4.949852,1.436120,-0.076751,0.669478
39273,-3.957758,6.817530,5.127465,1.041340,-0.102765,0.577681
39274,-3.883777,6.925108,5.193136,0.665924,-0.101378,0.499623
39275,-3.954393,6.767977,5.194494,0.328551,-0.102195,0.429301
39276,-4.057310,6.473184,5.000940,0.030799,-0.128154,0.352074
39277,-4.006905,6.158486,4.838357,-0.177491,-0.160224,0.275736
39278,-3.906335,5.953933,4.686988,-0.305573,-0.188162,0.183186
39279,-3.776415,5.833716,4.563016,-0.355833,-0.218602,0.084122
39280,-3.675171,5.796185,4.596078,-0.389490,-0.250495,-0.022723
39281,-3.649716,5.928809,4.610644,-0.427902,-0.267599,-0.125479
39282,-3.648264,6.067611,4.685742,-0.498510,-0.283634,-0.228502
39283,-3.465543,6.141000,4.788026,-0.603603,-0.287363,-0.329082
39284,-3.366609,6.020368,4.920788,-0.701650,-0.281155,-0.430635
39285,-3.423627,5.846494,5.070133,-0.775394,-0.268410,-0.525479
39286,-3.514840,5.674055,5.177698,-0.841694,-0.275077,-0.613749
39287,-3.573399,5.439213,5.180368,-0.906477,-0.269337,-0.682353
39288,-3.618616,5.332648,5.260830,-0.976359,-0.259935,-0.769187
39289,-3.606804,5.387349,5.316209,-1.068545,-0.259481,-0.852260
39290,-3.562782,5.428729,5.349968,-1.210892,-0.244845,-0.938771
39291,-3.559906,5.357400,5.280315,-1.399983,-0.230977,-1.029337
39292,-3.562533,5.129267,5.151349,-1.607991,-0.223502,-1.117665
39293,-3.573875,4.844648,5.059785,-1.790133,-0.211385,-1.206320
39294,-3.545266,4.553572,5.178482,-1.951233,-0.195476,-1.301732
39295,-3.509595,4.183532,5.340258,-2.089866,-0.172662,-1.401446
39296,-3.535092,3.828875,5.453332,-2.199739,-0.137214,-1.493818
39297,-3.679695,3.485879,5.562654,-2.297254,-0.101838,-1.576631
39298,-3.945462,3.116192,5.541469,-2.376555,-0.079894,-1.658034
39299,-4.015592,2.827750,5.530596,-2.434294,-0.066224,-1.743666
39300,-4.038189,2.450638,5.547030,-2.485169,-0.049991,-1.825346
39301,-4.046948,2.062007,5.436462,-2.538646,-0.040739,-1.912451
39302,-4.016288,1.612820,5.289648,-2.582919,-0.021548,-1.997698
39303,-4.201317,1.187027,5.169249,-2.610666,-0.003769,-2.094022
39304,-4.145707,0.802441,5.182579,-2.622554,-0.014815,-2.177900
39305,-4.005608,0.457958,5.255921,-2.626164,-0.002731,-2.246479
39306,-3.890951,0.103079,5.648215,-2.625917,0.029087,-2.302267
39307,-4.042649,-0.523627,6.104507,-2.659090,0.054734,-2.357766
39308,-4.143753,-1.167989,6.315163,-2.630543,0.067645,-2.392180
39309,-3.964352,-1.596686,6.437835,-2.533157,0.103536,-2.418293
39310,-4.049771,-1.655409,6.358272,-2.475710,0.149863,-2.431690
39311,-4.131225,-1.428335,6.002719,-2.505764,0.177143,-2.465532
39312,-3.906861,-1.390074,5.316457,-2.602632,0.208908,-2.524420
39313,-3.713365,-1.830274,5.018131,-2.717457,0.256320,-2.589205
39314,-3.763271,-2.609059,5.138506,-2.809102,0.292749,-2.667398
39315,-3.667260,-3.575224,5.251514,-2.819933,0.326491,-2.706503
39316,-3.589274,-4.431225,5.569158,-2.729496,0.389114,-2.725141
39317,-3.769757,-5.060779,5.745014,-2.581964,0.462532,-2.736034
39318,-3.831215,-5.000144,5.563307,-2.414236,0.501326,-2.769282
39319,-3.556400,-4.472181,5.131170,-2.385953,0.549741,-2.812619
39320,-3.392837,-3.979856,4.543222,-2.521842,0.602308,-2.845491
39321,-3.243555,-4.186273,4.306188,-2.729569,0.649793,-2.891370
39322,-3.315189,-5.279152,4.368638,-2.871234,0.688961,-2.957697
39323,-3.224913,-6.641825,4.330482,-2.881309,0.711652,-3.068248
39324,-3.032398,-7.727122,4.223268,-2.566765,0.781083,-3.056161
39325,-3.063470,-7.708836,4.568833,-2.293710,0.851557,-3.087563
39326,-2.777363,-7.284218,4.340150,-2.167179,0.888422,-3.126222
39327,-2.343947,-6.724328,3.751233,-2.216641,0.971287,-3.146668
39328,-1.980880,-6.527050,3.419200,-2.398401,1.079782,-3.133915
39329,-1.892158,-7.013431,3.183259,-2.609232,1.183337,-3.139746
39330,-2.019482,-8.008158,3.200413,-2.743904,1.241138,-3.143342
39331,-2.369912,-9.001470,3.405544,-2.716958,1.290398,-3.149534
39332,-2.833402,-9.560753,3.683359,-2.596614,1.331167,-3.148560
39333,-3.019871,-9.683697,3.729832,-2.545844,1.345004,-3.155861
39334,-2.875634,-9.844919,3.516664,-2.532890,1.379713,-3.135823
39335,-2.833578,-10.175718,3.171289,-2.571072,1.429909,-3.077429
39336,-2.881190,-10.714772,2.571517,-2.564810,1.459711,-2.998141
39337,-2.853797,-11.291737,1.957928,-2.419524,1.476002,-2.944706
39338,-2.943928,-11.992216,1.586521,-2.165704,1.443284,-2.924811
39339,-3.012407,-12.743114,1.563871,-1.815750,1.366617,-2.953695
39340,-2.899227,-13.217728,1.754389,-1.381450,1.297700,-2.988734
39341,-2.736848,-13.467971,2.094086,-0.950761,1.211306,-3.020626
39342,-2.567530,-13.088181,2.562448,-0.597965,1.110005,-3.015653
39343,-2.308137,-12.567973,2.908027,-0.440977,1.001583,-2.995265
39344,-2.014851,-12.325353,2.703512,-0.479091,0.907275,-2.922836
39345,-1.662211,-12.049357,2.554635,-0.611009,0.830735,-2.827452
39346,-1.481269,-12.062879,2.239478,-0.799186,0.743136,-2.732865
39347,-1.049670,-12.652799,1.770220,-0.968223,0.645493,-2.623393
39348,-0.576964,-13.003332,1.705311,-0.971034,0.574963,-2.534701
39349,-0.230141,-13.257291,1.814538,-0.874589,0.495742,-2.464937
39350,-0.082718,-13.681451,2.005887,-0.623460,0.453414,-2.405590
39351,0.067377,-13.606987,2.244338,-0.281648,0.411481,-2.352060
39352,0.205350,-13.015690,2.601547,-0.060433,0.368828,-2.269285
39353,0.439115,-12.370667,2.548014,-0.061461,0.330235,-2.154001
39354,0.817660,-11.718082,2.439617,-0.180843,0.308607,-2.063336
39355,1.094583,-11.557545,2.127990,-0.375835,0.288666,-1.977828
39356,1.470248,-11.872418,1.725563,-0.434710,0.258115,-1.902940
39357,1.707809,-12.224723,1.560922,-0.344512,0.234285,-1.844681
39358,1.777700,-12.399395,1.598831,-0.110165,0.208523,-1.806998
39359,1.932241,-12.326602,1.961546,0.173865,0.178913,-1.777079
39360,2.105105,-12.138834,2.327217,0.411465,0.163268,-1.734094
39361,2.430236,-11.635315,2.560603,0.496208,0.141425,-1.653710
39362,2.794626,-10.930930,2.643911,0.395356,0.139064,-1.551156
39363,3.058658,-10.324077,2.697838,0.134886,0.146628,-1.445430
39364,3.398815,-9.916112,2.582646,-0.178581,0.148670,-1.344431
39365,3.562007,-10.032192,2.335429,-0.427034,0.153966,-1.269896
39366,3.569376,-10.472732,1.997239,-0.488394,0.142724,-1.218517
39367,3.442839,-10.964824,1.818377,-0.356401,0.120918,-1.201173
39368,3.431875,-11.183074,1.806310,-0.158048,0.078892,-1.172201
39369,3.694231,-11.026518,1.942661,-0.010361,0.048309,-1.112412
39370,3.881317,-10.491323,2.028931,0.026102,0.043266,-1.047886
39371,3.983119,-10.101267,2.112317,-0.034700,0.046861,-0.985675
39372,4.298512,-10.136184,2.068563,-0.114570,0.068180,-0.911671
39373,4.532533,-10.187989,1.884317,-0.140614,0.079208,-0.844564
39374,4.692369,-10.215182,1.862411,-0.116695,0.087569,-0.793586
39375,4.696790,-10.128118,1.811921,-0.045750,0.077991,-0.750744
39376,4.649933,-10.087508,1.791581,0.033643,0.068014,-0.716281
39377,4.605639,-10.087685,1.815008,0.094011,0.052478,-0.684557
39378,4.710845,-10.070442,1.773594,0.120252,0.037514,-0.628820
39379,4.800300,-9.723937,1.809465,0.115527,0.022123,-0.565197
39380,4.858636,-9.352602,1.905124,0.054103,0.012187,-0.510324
39381,4.927819,-9.203446,2.000876,-0.025394,0.010652,-0.463464
39382,5.046417,-9.191552,1.925179,-0.080752,0.010050,-0.413705
39383,5.000182,-9.306348,2.001927,-0.085550,0.022644,-0.384017
39384,4.903161,-9.310324,1.904865,-0.040833,0.017902,-0.364014
39385,4.716679,-9.298704,1.831562,0.043773,0.006531,-0.348310
39386,4.675533,-9.253026,1.756487,0.140699,-0.006990,-0.340923
39387,4.615954,-9.036624,1.852131,0.211970,-0.014811,-0.331954
39388,4.605758,-8.699955,1.936921,0.230945,-0.018943,-0.318051
39389,4.649302,-8.261740,2.080845,0.205541,-0.007474,-0.312093
39390,4.580376,-7.966488,2.128692,0.122148,-0.004227,-0.321069
39391,4.716946,-8.073814,1.985177,0.035850,0.002782,-0.321364
39392,4.789129,-8.395823,1.886526,0.016276,0.008224,-0.317149
39393,4.754003,-8.554892,1.820720,0.056127,0.013143,-0.326285
39394,4.831039,-8.589668,1.811188,0.088467,0.006694,-0.325574
39395,4.910022,-8.674986,1.751964,0.116269,0.006251,-0.321121
39396,4.951196,-8.586499,1.580311,0.146777,0.003841,-0.318292
39397,5.177245,-8.394842,1.657646,0.134915,0.006589,-0.294805
39398,5.437722,-8.233134,1.942926,0.008528,0.045643,-0.241568
39399,5.647719,-8.417182,1.933555,-0.194203,0.082642,-0.189879
39400,5.693916,-9.039304,1.782931,-0.311082,0.140783,-0.148088
39401,5.608260,-9.540129,1.500445,-0.272754,0.170650,-0.105515
39402,5.498311,-9.380779,1.409102,-0.170012,0.192282,-0.066734
39403,5.385281,-8.833145,1.437464,-0.105427,0.202695,-0.045074
39404,5.127080,-8.440154,1.394233,-0.113703,0.202212,-0.016399
39405,5.055789,-8.406482,1.287236,-0.147474,0.191558,-0.002718
39406,5.164282,-8.455738,1.335702,-0.166849,0.172463,0.005035
39407,5.286883,-8.616160,1.217705,-0.176816,0.141605,0.013758
39408,5.673391,-8.760948,0.992412,-0.089716,0.124926,-0.012776
39409,5.839361,-8.755214,1.060304,0.047110,0.131303,-0.008635
39410,5.847755,-8.218996,1.432340,0.114646,0.146219,-0.003494
39411,5.790003,-7.425216,1.338471,0.061248,0.144225,-0.012012
39412,5.897534,-6.933926,1.144493,-0.055794,0.158482,-0.039061
39413,5.937408,-6.804306,0.857445,-0.167225,0.171722,-0.067116
39414,5.928476,-6.987351,0.839675,-0.235873,0.180290,-0.106968
39415,6.126431,-7.124258,0.881271,-0.269743,0.168131,-0.136253
39416,6.245462,-7.195350,1.020840,-0.305646,0.170576,-0.157982
39417,6.264636,-7.196058,1.061352,-0.337645,0.160163,-0.191893
39418,6.231562,-7.217309,0.992134,-0.354143,0.137786,-0.220382
39419,6.188907,-7.331216,0.952157,-0.337465,0.107909,-0.256040
39420,6.142987,-7.055468,0.920898,-0.296294,0.073312,-0.311794
39421,5.996054,-6.647172,0.939124,-0.283535,0.015545,-0.374730
39422,6.012072,-6.432667,0.852123,-0.321982,-0.042404,-0.436031
39423,5.846549,-6.275466,0.576256,-0.360597,-0.114536,-0.502529
39424,5.832809,-6.481011,0.432237,-0.368985,-0.180656,-0.579335
39425,5.823851,-6.892089,0.449981,-0.291023,-0.246345,-0.653420
39426,5.917142,-7.036453,0.748366,-0.165251,-0.310865,-0.720257
39427,6.120525,-6.866460,0.931389,-0.066671,-0.366485,-0.797806
39428,6.395711,-6.369306,1.081328,-0.050902,-0.405550,-0.863919
39429,6.505364,-6.196433,1.096454,-0.105019,-0.395629,-0.933828
39430,6.246397,-5.942971,0.898193,-0.164042,-0.384193,-1.011427
39431,6.089211,-5.820879,0.836660,-0.224087,-0.397784,-1.093858
39432,6.092057,-5.825885,0.775747,-0.284902,-0.378076,-1.179253
39433,6.371499,-6.578632,1.156059,-0.317145,-0.343253,-1.252866
39434,6.521304,-7.573493,1.454448,-0.230661,-0.289286,-1.313452
39435,6.624016,-7.966289,1.624307,-0.046158,-0.252280,-1.374143
39436,6.443746,-7.619031,1.767078,0.119156,-0.213479,-1.429889
39437,6.170020,-7.020979,1.779985,0.173109,-0.183216,-1.488315
39438,6.004397,-6.495664,1.562510,0.134405,-0.169351,-1.558347
39439,5.915335,-6.411865,1.283976,0.060830,-0.171508,-1.619489
39440,6.075801,-6.786070,1.166612,0.023734,-0.165081,-1.685537
39441,6.329550,-7.264381,1.297094,0.043318,-0.174954,-1.735362
39442,6.547753,-7.432449,1.521699,0.069349,-0.172379,-1.778099
39443,6.708607,-7.390537,1.724766,0.050753,-0.161371,-1.806299
39444,6.974689,-7.387794,1.870462,-0.017728,-0.133568,-1.817821
39445,7.105036,-7.307881,1.829897,-0.103751,-0.102997,-1.811163
39446,7.162559,-7.290201,1.750659,-0.183438,-0.063763,-1.799058
39447,7.047167,-7.312794,1.539484,-0.223135,-0.046027,-1.792648
39448,6.946851,-7.192013,1.331284,-0.229534,-0.039336,-1.782818
39449,6.915553,-7.048501,1.221920,-0.212572,-0.041455,-1.783423
39450,7.039359,-7.019925,1.148477,-0.194858,-0.035694,-1.783595
39451,7.227927,-7.049402,1.177867,-0.162153,-0.023564,-1.785546
39452,7.416259,-7.097288,1.312033,-0.110525,-0.001267,-1.780061
39453,7.501283,-6.977739,1.533250,-0.068789,0.026476,-1.768583
39454,7.632385,-6.825486,1.543353,-0.048619,0.064826,-1.762368
39455,7.663162,-6.548608,1.471916,-0.039045,0.104900,-1.758968
39456,7.692618,-6.125913,1.289569,-0.052293,0.123209,-1.748160
39457,7.773119,-5.792201,1.216725,-0.129019,0.137891,-1.738851
39458,7.873823,-5.589340,1.086549,-0.225810,0.153805,-1.737527
39459,8.086399,-5.406488,1.179176,-0.349050,0.168005,-1.726465
39460,8.453539,-5.411351,1.241697,-0.426419,0.194935,-1.707288
39461,8.823093,-5.566072,1.323237,-0.507738,0.228248,-1.670320
39462,9.198783,-5.781755,1.363703,-0.547711,0.275081,-1.604666
39463,9.338845,-5.959141,1.272505,-0.529750,0.328047,-1.542345
39464,9.332713,-5.778250,1.029872,-0.513252,0.350741,-1.454897
39465,9.282396,-5.312631,0.803228,-0.503182,0.343034,-1.377663
39466,9.320883,-4.715886,0.435438,-0.602512,0.307441,-1.297516
39467,9.393459,-4.454928,0.167665,-0.757591,0.269373,-1.194205
39468,9.525404,-4.601979,0.062508,-0.893197,0.241922,-1.106932
39469,9.687189,-4.763179,0.053287,-0.929986,0.227767,-1.044240
39470,9.759686,-4.795532,0.238436,-0.892170,0.224488,-0.990806
39471,9.863653,-4.863152,0.458425,-0.804664,0.223010,-0.933997
39472,9.986995,-4.994179,0.578631,-0.680758,0.226944,-0.873907
39473,9.889871,-4.924409,0.720274,-0.543079,0.233498,-0.799935
39474,9.822231,-4.559628,0.796512,-0.433900,0.238839,-0.738116
39475,9.624600,-4.012932,0.798590,-0.430697,0.235211,-0.668240
39476,9.454123,-3.766995,0.741987,-0.492508,0.224517,-0.589819
39477,9.250132,-3.693875,0.758462,-0.572978,0.209603,-0.522765
39478,9.244098,-3.598692,0.768502,-0.613935,0.183698,-0.473312
39479,9.257157,-3.473651,0.764329,-0.645440,0.165540,-0.432107
39480,9.339610,-3.386583,0.837821,-0.682061,0.152902,-0.405068
39481,9.417677,-3.430039,0.879221,-0.697938,0.140766,-0.385221
39482,9.422118,-3.660011,0.896026,-0.676528,0.140396,-0.361917
39483,9.406485,-3.942281,0.816533,-0.584814,0.131888,-0.334744
39484,9.354516,-4.149303,0.806008,-0.441493,0.119935,-0.309151
39485,9.369591,-3.991726,0.744364,-0.276441,0.100804,-0.285925
39486,9.370255,-3.518209,0.714217,-0.158369,0.089608,-0.256497
39487,9.372832,-3.046967,0.812028,-0.105176,0.078516,-0.242131
39488,9.397531,-2.755986,0.860189,-0.105935,0.064743,-0.228511
39489,9.452664,-2.713228,0.865622,-0.141576,0.057199,-0.219122
39490,9.522608,-2.861208,0.877033,-0.157983,0.055993,-0.211998
39491,9.641677,-3.060338,0.866207,-0.146412,0.053963,-0.192611
39492,9.689833,-3.266372,0.872110,-0.116728,0.048447,-0.166421
39493,9.824911,-3.472526,0.822416,-0.060356,0.039248,-0.129399
39494,9.822503,-3.520648,0.781445,0.016626,0.033062,-0.084263
39495,9.798701,-3.348292,0.731733,0.102981,0.016770,-0.046457
39496,9.690368,-3.069750,0.791760,0.177144,-0.015619,-0.005032
39497,9.669999,-2.845579,0.783948,0.219707,-0.038418,0.031892
39498,9.605514,-2.588991,0.813740,0.214184,-0.061902,0.060820
39499,9.628411,-2.446213,0.855267,0.164603,-0.074762,0.085731
39500,9.626756,-2.454159,0.851131,0.097984,-0.077969,0.102614
39501,9.635956,-2.492833,0.883330,0.037510,-0.072265,0.113509
39502,9.589871,-2.541159,0.893513,-0.001208,-0.056634,0.115131
39503,9.588833,-2.605962,0.878308,-0.029954,-0.045905,0.114224
39504,9.569477,-2.686885,0.888617,-0.039349,-0.026781,0.111964
39505,9.485844,-2.727381,0.855065,-0.036439,-0.017365,0.107709
39506,9.405759,-2.688090,0.755613,-0.030205,-0.011143,0.102662
39507,9.405296,-2.678185,0.768437,-0.021495,-0.007729,0.099109
39508,9.423016,-2.652145,0.756759,-0.010795,-0.014695,0.102558
39509,9.393578,-2.628809,0.756408,0.010782,-0.020744,0.092705
39510,9.396906,-2.651689,0.773301,0.020428,-0.029650,0.088231
39511,9.458691,-2.700260,0.816184,0.032970,-0.030805,0.087913
39512,9.487596,-2.828755,0.807106,0.040068,-0.038543,0.090276
39513,9.457812,-2.931559,0.772067,0.062765,-0.037721,0.097432
39514,9.475563,-2.905492,0.759780,0.081980,-0.049213,0.114077
39515,9.482018,-2.851857,0.709376,0.104384,-0.056621,0.128645
39516,9.501062,-2.754705,0.720348,0.112758,-0.066085,0.132621
39517,9.551227,-2.598043,0.767769,0.107218,-0.064961,0.143173
39518,9.531414,-2.499052,0.822431,0.078157,-0.062969,0.131383
39519,9.481168,-2.458505,0.839998,0.048400,-0.050099,0.104154
39520,9.487284,-2.461557,0.870028,0.017481,-0.033516,0.076203
39521,9.480859,-2.506859,0.838934,-0.016647,-0.020991,0.050330
39522,9.478450,-2.691422,0.794032,-0.038275,-0.002413,0.022927
39523,9.431355,-2.802844,0.786131,-0.025556,0.011454,0.004677
39524,9.426187,-2.842034,0.758483,-0.005520,0.016883,-0.009195
39525,9.371048,-2.848532,0.738915,0.024977,0.016335,-0.012440
39526,9.400013,-2.806789,0.763857,0.054081,0.008658,-0.007935
39527,9.420674,-2.716532,0.764625,0.070972,-0.008758,-0.008028
39528,9.463040,-2.684274,0.840412,0.081317,-0.012074,0.001496
39529,9.494756,-2.677542,0.867902,0.069113,-0.026054,0.006252
39530,9.465741,-2.664262,0.854058,0.061935,-0.027539,0.004146
39531,9.452965,-2.639612,0.906493,0.053153,-0.022398,-0.011038
39532,9.453932,-2.691408,0.896262,0.034533,-0.019509,-0.022391
39533,9.511211,-2.842092,0.888778,0.026311,-0.011077,-0.033705
39534,9.501738,-2.863450,0.841484,0.024510,-0.003388,-0.039598
39535,9.503230,-2.913300,0.833046,0.021334,0.009083,-0.039084
39536,9.501729,-2.929147,0.820626,0.016859,0.016016,-0.039077
39537,9.454500,-2.889185,0.738884,0.024726,0.022803,-0.032230
39538,9.426000,-2.873292,0.728490,0.030510,0.017192,-0.022380
39539,9.423459,-2.837160,0.726246,0.032407,0.018764,-0.016798
39540,9.431294,-2.776243,0.771166,0.031516,0.014549,-0.014374
39541,9.386692,-2.757629,0.799243,0.029936,0.012726,-0.008745
39542,9.405658,-2.794340,0.766928,0.025041,0.010651,-0.019659
39543,9.427267,-2.810954,0.748443,0.028824,0.006118,-0.016469
39544,9.451467,-2.807490,0.744101,0.029891,0.009262,-0.026127
39545,9.526127,-2.835026,0.733307,0.026250,0.015780,-0.028407
39546,9.492187,-2.804695,0.703829,0.032939,0.023240,-0.030525
39547,9.446962,-2.676434,0.751132,0.029942,0.022735,-0.035858
39548,9.465998,-2.657069,0.729092,0.002796,0.028831,-0.042875
39549,9.438975,-2.747724,0.700339,-0.015345,0.033390,-0.042080
39550,9.422326,-2.813391,0.718474,-0.013789,0.026377,-0.038184
39551,9.420754,-2.829790,0.706521,-0.000768,0.023873,-0.034545
39552,9.465827,-2.789959,0.691759,-0.003038,0.016758,-0.033686
39553,9.425312,-2.858103,0.714791,-0.000130,0.015699,-0.020051
39554,9.444561,-2.894886,0.681749,0.010154,0.003188,-0.010151
39555,9.458157,-2.902752,0.734479,0.030150,-0.004401,-0.005187
39556,9.481290,-2.846931,0.738298,0.038248,-0.005931,-0.004316
39557,9.489285,-2.840844,0.772082,0.037549,-0.003534,-0.001119
39558,9.481289,-2.846686,0.739258,0.035859,-0.011548,0.013007
39559,9.483390,-2.827755,0.753776,0.043773,-0.003162,0.011526
39560,9.465999,-2.716328,0.811770,0.029254,-0.000925,0.005214
39561,9.449406,-2.673912,0.755144,0.004960,0.003664,0.002603
39562,9.423895,-2.749225,0.738210,-0.023349,0.009230,0.004175
39563,9.364394,-2.835859,0.785078,-0.030463,0.012334,0.001940
39564,9.384945,-2.800544,0.774559,-0.031626,0.012982,-0.007031
39565,9.437949,-2.811428,0.782485,-0.023304,0.015001,-0.013555
