// Start Time: Unknown
// Update Rate: 100.0Hz
// Filter Profile: human (46.1)
// Firmware Version: 4.3.5
PacketCounter,Acc_X,Acc_Y,Acc_Z,Gyr_X,Gyr_Y,Gyr_Z
37846,9.723444,1.163844,1.156176,0.005514,0.007669,-0.011789
37847,9.715536,1.119437,1.090106,-0.019843,0.002299,-0.009210
37848,9.746320,1.105807,1.096572,-0.015159,0.001965,-0.005960
37849,9.728719,1.080700,1.125592,0.000296,0.006061,-0.010988
37850,9.741094,1.117561,1.145237,0.013719,0.007718,-0.013446
37851,9.789846,1.122756,1.200127,0.010000,0.006604,-0.011168
37852,9.774663,1.092728,1.205572,-0.008823,0.007712,-0.002908
37853,9.777223,1.020261,1.121540,-0.023402,0.009317,-0.004789
37854,9.728129,1.016849,1.067983,-0.005840,0.003596,-0.007587
37855,9.748508,1.030739,1.092904,0.010581,0.006251,-0.007087
37856,9.740403,1.053939,1.088227,0.012617,0.011243,-0.005835
37857,9.704408,1.078362,1.130903,0.002532,0.014338,-0.003282
37858,9.740662,1.046639,1.167310,-0.020751,0.006545,0.001025
37859,9.699568,1.020136,1.119395,-0.023211,0.010043,-0.002157
37860,9.737741,0.991456,1.054962,-0.002649,0.005321,-0.001997
37861,9.732646,1.001999,1.103341,0.042267,0.014830,-0.010409
37862,9.773326,1.029885,1.153432,0.056990,0.018799,-0.010184
37863,9.777607,1.089456,1.168261,0.036463,0.016110,-0.009859
37864,9.731484,1.073845,1.167832,0.020282,0.009343,-0.003431
37865,9.751270,1.095486,1.116296,0.013912,0.010993,-0.006977
37866,9.730562,1.083325,1.092900,0.021154,0.015033,-0.010333
37867,9.676463,1.090372,1.087089,0.020616,0.010537,-0.010102
37868,9.733053,1.073033,1.147934,0.017433,0.013919,-0.008058
37869,9.709818,1.065793,1.148685,0.014781,0.019234,-0.010059
37870,9.747965,1.037906,1.084666,0.020079,0.008597,-0.006049
37871,9.727329,1.025736,1.060885,0.038704,0.011850,-0.009267
37872,9.739549,1.062976,1.080753,0.055634,0.016418,-0.012773
37873,9.743718,1.123234,1.095190,0.063245,0.016790,-0.018478
37874,9.724916,1.175253,1.108860,0.048523,0.015372,-0.014892
37875,9.711511,1.209743,1.152123,0.042683,0.021500,-0.018673
37876,9.724583,1.171668,1.188004,0.015577,0.007072,-0.010473
37877,9.716970,1.127199,1.122162,-0.008481,0.006321,-0.013431
37878,9.765785,1.071761,1.039426,-0.005832,0.003572,-0.007606
37879,9.740172,1.069275,1.062988,0.011477,0.007054,-0.009654
37880,9.762905,1.078804,1.064340,0.030278,0.011034,-0.010219
37881,9.739133,1.139939,1.125110,0.032157,0.007882,-0.011097
37882,9.738885,1.141642,1.125525,0.021696,0.006939,-0.017654
37883,9.736133,1.148086,1.149669,-0.003228,0.003083,-0.009904
37884,9.715574,1.135676,1.125701,-0.009399,0.005469,-0.010838
37885,9.717879,1.131958,1.102697,-0.002362,0.008750,-0.016809
37886,9.705594,1.090277,1.161333,0.005688,0.005784,-0.012944
37887,9.753796,1.103198,1.139513,-0.002508,0.005745,-0.011316
37888,9.725961,1.044936,1.049290,-0.010512,0.006448,-0.007059
37889,9.725771,1.045953,1.050032,0.011999,0.008968,-0.013687
37890,9.730962,1.030388,1.079915,0.032680,0.007239,-0.018932
37891,9.715017,1.069857,1.146092,0.028384,0.009039,-0.016933
37892,9.706733,1.094080,1.141131,0.014598,0.008476,-0.015976
37893,9.734549,1.093707,1.095044,0.007171,0.008845,-0.007647
37894,9.727399,1.041676,1.106647,0.019015,0.017372,-0.012028
37895,9.713921,1.075471,1.150114,0.031296,0.019994,-0.010647
37896,9.713600,1.076913,1.151479,0.040453,0.016040,-0.010544
37897,9.738811,1.081688,1.129511,0.035247,0.014434,-0.009764
37898,9.753400,1.113997,1.125780,0.039669,0.018183,-0.013428
37899,9.727274,1.119734,1.073300,0.051750,0.020048,-0.014661
37900,9.719047,1.137074,1.146280,0.058176,0.028774,-0.017069
37901,9.723999,1.121615,1.177835,0.039960,0.027036,-0.008654
37902,9.734278,1.095334,1.161575,0.022355,0.017256,-0.007589
37903,9.793054,1.080620,1.122732,0.020664,0.018574,-0.007892
37904,9.874723,1.074200,1.085034,0.028054,0.025901,-0.004782
37905,9.868859,1.092524,1.058794,0.051485,0.047291,-0.008512
37906,9.836134,1.176846,1.117630,0.075110,0.064253,-0.017201
37907,9.742283,1.215152,1.181157,0.102044,0.080760,-0.033356
37908,9.722097,1.262747,1.277247,0.100047,0.088635,-0.036742
37909,9.696224,1.327995,1.344609,0.072574,0.095266,-0.044721
37910,9.720109,1.335497,1.329993,0.026694,0.089518,-0.029113
37911,9.659458,1.360910,1.301456,-0.007506,0.086332,-0.028093
37912,9.758777,1.299490,1.335695,-0.018110,0.084957,-0.025401
37913,9.844864,1.276745,1.335021,-0.048278,0.086931,-0.017586
37914,9.923039,1.274904,1.329247,-0.087566,0.088039,-0.005621
37915,10.049735,1.284227,1.303106,-0.096428,0.108517,-0.010748
37916,10.087167,1.394670,1.273267,-0.084940,0.151487,-0.030492
37917,9.925798,1.547305,1.265239,-0.120127,0.187802,-0.053328
37918,9.825369,1.674419,1.273654,-0.168615,0.199205,-0.086892
37919,9.843547,1.773667,1.205133,-0.180757,0.216903,-0.121149
37920,9.761359,1.983710,1.280727,-0.185509,0.257627,-0.159627
37921,9.663733,2.154013,1.419035,-0.227220,0.305202,-0.212560
37922,9.672011,2.304529,1.633009,-0.301082,0.348076,-0.257350
37923,9.658041,2.440818,1.826989,-0.434519,0.342852,-0.255811
37924,9.674237,2.410094,2.085335,-0.664380,0.307493,-0.223320
37925,9.717528,2.149886,2.063967,-0.962089,0.263206,-0.192013
37926,9.813978,1.724754,1.850336,-1.170102,0.251036,-0.169127
37927,9.795732,1.409757,1.594199,-1.207454,0.261417,-0.159953
37928,9.740025,1.183587,1.413005,-1.132100,0.274224,-0.173142
37929,9.722369,1.034258,1.374554,-1.017918,0.326655,-0.205247
37930,9.672446,0.947905,1.423894,-0.911629,0.376260,-0.233518
37931,9.662982,1.000645,1.563295,-0.823516,0.386284,-0.229940
37932,9.638099,1.036921,1.652398,-0.809224,0.379634,-0.212070
37933,9.624075,0.988179,1.702116,-0.846819,0.379096,-0.187354
37934,9.562802,0.805889,1.704924,-0.848629,0.377654,-0.170063
37935,9.602839,0.729578,1.812395,-0.795606,0.370321,-0.150454
37936,9.638809,0.691356,1.840453,-0.722003,0.386140,-0.137523
37937,9.546082,0.709869,1.866517,-0.655128,0.415864,-0.131836
37938,9.462248,0.761732,1.917467,-0.593428,0.411739,-0.122725
37939,9.450362,0.838205,1.954082,-0.550561,0.378314,-0.101440
37940,9.505621,0.884810,1.978462,-0.514400,0.353691,-0.083591
37941,9.444705,0.829849,1.982349,-0.543084,0.336926,-0.049556
37942,9.408325,0.801028,1.937421,-0.591233,0.311703,-0.022129
37943,9.416085,0.711410,1.925742,-0.607932,0.280505,0.004718
37944,9.457128,0.562742,1.994944,-0.592806,0.273525,0.024673
37945,9.444114,0.461845,2.225722,-0.542919,0.302875,0.038885
37946,9.461866,0.421319,2.438861,-0.466075,0.329737,0.055988
37947,9.491516,0.409535,2.656516,-0.436570,0.351042,0.085658
37948,9.468893,0.420125,2.814060,-0.450999,0.364706,0.130903
37949,9.409680,0.364292,2.761997,-0.518998,0.325583,0.199173
37950,9.438540,0.195917,2.626115,-0.562317,0.293224,0.264395
37951,9.476388,0.055120,2.514248,-0.522084,0.288415,0.308609
37952,9.496801,0.022240,2.524951,-0.425631,0.319896,0.314705
37953,9.484745,0.068432,2.658558,-0.296487,0.373296,0.298625
37954,9.516361,0.171502,2.960121,-0.193724,0.417753,0.309260
37955,9.492780,0.279452,3.252678,-0.192068,0.447787,0.337361
37956,9.499453,0.251384,3.401065,-0.273930,0.426525,0.403943
37957,9.403185,0.113190,3.366418,-0.386167,0.386389,0.475851
37958,9.375996,-0.122047,3.192312,-0.439225,0.364789,0.529215
37959,9.382620,-0.327922,2.948502,-0.388703,0.345514,0.579874
37960,9.432627,-0.484774,2.866561,-0.298724,0.317373,0.629242
37961,9.466949,-0.572565,2.754912,-0.204174,0.303575,0.662026
37962,9.525121,-0.599399,2.677858,-0.092042,0.323504,0.678103
37963,9.518309,-0.640731,2.661180,0.001477,0.348095,0.679027
37964,9.494806,-0.551039,2.747258,0.080379,0.374744,0.681264
37965,9.426348,-0.521299,2.871443,0.114594,0.384473,0.690755
37966,9.358490,-0.467603,2.969980,0.098104,0.371550,0.707110
37967,9.263693,-0.485922,2.878193,0.067409,0.348775,0.721672
37968,9.156172,-0.504510,2.830251,0.074005,0.325161,0.719505
37969,9.211934,-0.406760,2.753717,0.122798,0.298234,0.721772
37970,9.298577,-0.338680,2.863895,0.155792,0.295696,0.716431
37971,9.374581,-0.324678,2.970704,0.138628,0.296562,0.721888
37972,9.410689,-0.354836,2.987475,0.081383,0.280580,0.738483
37973,9.349153,-0.417197,2.919368,0.005681,0.253011,0.759056
37974,9.330955,-0.571339,2.863159,-0.011042,0.228674,0.765729
37975,9.394754,-0.698586,2.935069,0.007736,0.220932,0.764802
37976,9.362383,-0.738866,3.077674,0.012640,0.228338,0.752179
37977,9.329696,-0.783476,3.143597,0.022442,0.228380,0.742208
37978,9.269152,-0.759541,3.172393,0.013456,0.215694,0.723098
37979,9.248404,-0.730375,3.160576,0.012355,0.192925,0.716698
37980,9.225936,-0.824248,3.149478,0.036573,0.185798,0.705184
37981,9.216823,-0.904913,3.246485,0.071646,0.196522,0.693501
37982,9.128371,-0.929335,3.238414,0.092359,0.199512,0.678254
37983,9.071194,-0.947826,3.214263,0.097808,0.184632,0.663650
37984,9.077034,-0.958476,3.156732,0.119239,0.138972,0.653728
37985,9.174189,-0.935283,3.048058,0.166975,0.104545,0.639939
37986,9.221905,-0.880263,3.074138,0.220395,0.099061,0.622196
37987,9.212680,-0.796122,3.183382,0.257156,0.125339,0.579057
37988,9.177348,-0.739666,3.234234,0.282750,0.128832,0.536588
37989,9.140662,-0.654046,3.282038,0.299446,0.117900,0.497733
37990,9.139068,-0.587501,3.315057,0.291426,0.097371,0.474628
37991,9.124565,-0.602942,3.267931,0.253839,0.067746,0.456054
37992,9.094847,-0.693807,3.217450,0.219284,0.035053,0.444865
37993,9.229611,-0.891930,3.179132,0.225337,0.012354,0.437156
37994,9.333119,-1.011654,3.201464,0.252254,0.007586,0.421089
37995,9.396743,-1.128731,3.262535,0.268329,0.012060,0.405319
37996,9.388802,-1.123245,3.340702,0.286222,0.011039,0.371469
37997,9.341655,-1.080838,3.297636,0.305967,0.006612,0.328625
37998,9.243479,-0.971148,3.386522,0.341526,0.018336,0.274515
37999,9.221662,-0.824885,3.473373,0.371314,0.024429,0.217008
38000,9.226552,-0.733231,3.654273,0.375196,0.045729,0.179265
38001,9.146620,-0.769919,3.820094,0.306548,0.053583,0.171648
38002,9.116934,-0.849537,3.850114,0.180076,0.020176,0.192773
38003,9.127065,-1.051727,3.722282,0.108289,-0.000417,0.201792
38004,9.113998,-1.114227,3.543594,0.136259,0.009350,0.170450
38005,9.082506,-0.988278,3.442635,0.251559,0.021422,0.112682
38006,9.199242,-0.765116,3.566871,0.335215,0.029941,0.055151
38007,9.374275,-0.655573,3.859879,0.348853,0.084596,0.007376
38008,9.425101,-0.574603,4.144561,0.279589,0.143069,-0.021795
38009,9.294670,-0.561445,4.218784,0.147848,0.143106,-0.014639
38010,9.052023,-0.681757,3.979356,-0.011672,0.116454,-0.019903
38011,9.112950,-0.795355,3.687806,-0.030106,0.098124,-0.064799
38012,9.428198,-0.782549,3.603654,0.119253,0.114624,-0.126758
38013,9.612937,-0.615857,3.851622,0.255610,0.179106,-0.186633
38014,9.506573,-0.441487,4.184810,0.301871,0.246233,-0.253458
38015,9.416573,-0.302248,4.403909,0.272162,0.284630,-0.306485
38016,9.370034,-0.225366,4.516818,0.225491,0.256756,-0.311950
38017,9.430158,-0.344726,4.615398,0.139000,0.235031,-0.307448
38018,9.673535,-0.514064,4.659460,0.062518,0.265378,-0.307548
38019,9.754800,-0.680434,4.647020,0.075146,0.327148,-0.300436
38020,9.692607,-0.862717,4.747164,0.110457,0.386229,-0.299558
38021,9.584673,-0.993370,4.880395,0.137286,0.419656,-0.280860
38022,9.536919,-1.159815,5.073967,0.165060,0.468454,-0.264521
38023,9.463277,-1.212245,5.220449,0.194470,0.512299,-0.255333
38024,9.369082,-1.164552,5.242003,0.200924,0.544074,-0.239708
38025,9.374221,-1.190799,5.238234,0.183221,0.574600,-0.215579
38026,9.530922,-1.265543,5.336415,0.171759,0.606600,-0.165941
38027,9.616640,-1.354551,5.414381,0.185220,0.679228,-0.119585
38028,9.543335,-1.380565,5.395866,0.153935,0.761264,-0.074839
38029,9.474125,-1.472844,5.450907,0.150443,0.834164,-0.043592
38030,9.330396,-1.530174,5.473919,0.175907,0.901248,-0.018928
38031,9.285343,-1.545113,5.679887,0.221185,0.958810,-0.000677
38032,9.395102,-1.524619,5.882171,0.246397,1.012240,0.037375
38033,9.514266,-1.455455,5.980629,0.184618,1.061242,0.098566
38034,9.582899,-1.541991,6.003613,0.099380,1.121195,0.173753
38035,9.486124,-1.657708,5.754875,0.030213,1.169295,0.242379
38036,9.370281,-1.824163,5.672336,0.034754,1.205320,0.306572
38037,9.239144,-1.942187,5.603654,0.090770,1.251959,0.351260
38038,8.974305,-1.901450,5.374111,0.100749,1.279212,0.372718
38039,8.844289,-1.888644,5.221732,0.080166,1.292700,0.375928
38040,8.877263,-1.965426,5.212385,0.113182,1.333190,0.395275
38041,8.805257,-2.010856,5.374556,0.146576,1.421032,0.410537
38042,8.687991,-2.049371,5.695869,0.128996,1.517594,0.414981
38043,8.509916,-2.036109,6.038350,0.104675,1.587363,0.439708
38044,8.163678,-1.926774,6.371981,0.083205,1.619480,0.453357
38045,7.970647,-1.761999,6.492336,0.049470,1.571730,0.469647
38046,8.026896,-1.651193,6.518438,-0.101727,1.531177,0.528301
38047,8.260549,-1.817068,6.519194,-0.302170,1.547843,0.600997
38048,8.402743,-2.113907,6.581976,-0.440235,1.635660,0.666798
38049,8.459442,-2.345756,6.898190,-0.460405,1.767901,0.713642
38050,8.257419,-2.399321,7.339946,-0.410778,1.882391,0.743659
38051,7.911908,-2.366223,7.690629,-0.419316,1.967575,0.776794
38052,7.593722,-2.331247,7.836632,-0.544558,2.002650,0.844756
38053,7.460621,-2.402934,7.699047,-0.755713,2.037517,0.923719
38054,7.379838,-2.704482,7.803006,-0.923304,2.108007,1.023434
38055,7.082043,-2.957964,8.002736,-0.964077,2.193685,1.097236
38056,6.913787,-3.157336,8.221082,-0.999627,2.228372,1.149542
38057,6.877680,-3.301064,8.166295,-1.124599,2.222754,1.225008
38058,6.776786,-3.619765,8.162367,-1.257159,2.282454,1.352369
38059,6.622348,-4.002272,8.314370,-1.255607,2.336593,1.467399
38060,6.352865,-4.277771,8.388835,-1.205765,2.379770,1.532361
38061,6.244070,-4.371375,8.251013,-1.134621,2.385233,1.533627
38062,6.124421,-4.342862,8.266703,-1.002652,2.440593,1.570948
38063,5.790979,-4.250921,8.446440,-0.939962,2.491701,1.630613
38064,5.305930,-4.172606,8.596335,-1.067940,2.589465,1.632648
38065,4.978123,-4.195409,8.555736,-1.255693,2.560145,1.646871
38066,4.863682,-4.204956,8.300636,-1.353842,2.556321,1.669869
38067,4.696939,-4.308398,8.374547,-1.354805,2.596353,1.713519
38068,4.319653,-4.396447,8.386492,-1.428268,2.637330,1.750997
38069,3.809882,-4.450967,8.232059,-1.536832,2.660855,1.766647
38070,3.437082,-4.625064,8.322533,-1.602865,2.629279,1.775970
38071,3.261591,-4.831845,8.249865,-1.684685,2.601736,1.781641
38072,2.936117,-4.877172,8.031475,-1.762465,2.594739,1.816165
38073,2.673675,-4.922450,7.728797,-1.832843,2.523144,1.892312
38074,2.229840,-5.033561,7.531586,-1.880499,2.453199,1.974606
38075,1.789174,-5.271544,7.343532,-1.932810,2.351292,1.934416
38076,1.722549,-5.275005,6.867785,-1.848192,2.275913,1.859936
38077,1.533097,-5.280315,6.615077,-1.715577,2.280628,1.852288
38078,1.196282,-5.425792,6.704987,-1.653200,2.261698,1.840926
38079,0.931468,-5.356092,6.600045,-1.665435,2.180256,1.857145
38080,0.435264,-5.290490,6.350434,-1.683844,2.120429,1.840228
38081,0.487511,-5.405252,6.184969,-1.744489,1.990646,1.772741
38082,0.510320,-5.461404,5.891613,-1.709833,1.921781,1.757633
38083,0.094740,-5.435261,5.748438,-1.596423,1.875574,1.737267
38084,-0.472994,-5.630716,5.913311,-1.501799,1.808396,1.663004
38085,-0.963797,-5.763339,5.949949,-1.506604,1.650902,1.592393
38086,-1.152509,-5.761182,5.690482,-1.487057,1.512549,1.536049
38087,-1.202816,-5.758119,5.377349,-1.421006,1.411351,1.489936
38088,-1.401869,-5.808677,5.219488,-1.341532,1.332051,1.437064
38089,-1.486736,-5.857305,5.161229,-1.215400,1.287376,1.342022
38090,-1.643123,-5.686570,5.009076,-1.097080,1.252239,1.268622
38091,-1.915221,-5.589599,5.118769,-1.023001,1.234988,1.202068
38092,-2.173558,-5.573693,5.230021,-1.001733,1.200032,1.133519
38093,-2.246581,-5.709693,5.262170,-1.037487,1.155838,1.073560
38094,-2.496496,-5.849791,5.280780,-0.981813,1.130341,1.031009
38095,-2.798283,-6.003285,5.237407,-0.949257,1.056691,1.008474
38096,-3.048773,-6.103386,5.146153,-0.876307,1.004034,0.947698
38097,-3.297501,-6.012998,5.043352,-0.789441,0.900696,0.884809
38098,-3.267063,-6.016602,4.980686,-0.740967,0.798956,0.802731
38099,-3.145637,-5.923502,4.738257,-0.662892,0.757058,0.738212
38100,-3.174310,-5.856907,4.690780,-0.533528,0.752841,0.686304
38101,-3.254121,-5.767398,4.746723,-0.503103,0.759861,0.621437
38102,-3.540138,-5.794015,4.725857,-0.505190,0.738991,0.576716
38103,-3.668628,-5.839703,4.643865,-0.488667,0.670946,0.533362
38104,-3.776991,-5.894290,4.527112,-0.411660,0.627021,0.503579
38105,-3.973266,-6.006927,4.458305,-0.345057,0.582374,0.443270
38106,-3.925438,-6.031919,4.227868,-0.286589,0.530553,0.363156
38107,-3.881102,-6.004934,4.079964,-0.175560,0.497672,0.297485
38108,-3.912945,-5.917476,4.095339,-0.053321,0.452052,0.237998
38109,-3.990839,-5.686885,4.118875,0.044968,0.391319,0.166853
38110,-3.914462,-5.600250,4.190287,0.083911,0.327120,0.088140
38111,-3.802965,-5.535360,4.157003,0.106791,0.277224,0.003534
38112,-3.887010,-5.478837,4.201510,0.155967,0.227503,-0.087932
38113,-3.887679,-5.434031,4.207650,0.210788,0.132231,-0.172897
38114,-3.775951,-5.441823,4.152565,0.234898,0.051284,-0.260858
38115,-3.730866,-5.462986,4.057217,0.275325,-0.028594,-0.338374
38116,-3.756804,-5.495330,3.888018,0.328145,-0.104061,-0.404215
38117,-3.683341,-5.465321,3.858390,0.386569,-0.196098,-0.472789
38118,-3.627550,-5.439733,3.888131,0.406087,-0.272190,-0.536580
38119,-3.591271,-5.501576,3.936599,0.409492,-0.342319,-0.587354
38120,-3.501729,-5.551891,4.052803,0.424956,-0.393062,-0.641037
38121,-3.393143,-5.505426,4.226040,0.428571,-0.452706,-0.710938
38122,-3.266017,-5.611251,4.341372,0.436841,-0.509694,-0.799656
38123,-3.223435,-5.970050,4.308666,0.503957,-0.559653,-0.891590
38124,-3.174842,-6.234104,4.429502,0.629162,-0.610140,-0.981668
38125,-3.044703,-6.279579,4.732326,0.795029,-0.690058,-1.043817
38126,-2.904441,-6.227049,4.888299,0.881507,-0.765066,-1.083625
38127,-2.837815,-6.315838,4.904898,0.942968,-0.820560,-1.104103
38128,-2.899143,-6.444070,4.953511,1.052736,-0.876138,-1.122803
38129,-2.811716,-6.424741,5.039849,1.173185,-0.982568,-1.152698
38130,-2.444892,-6.307604,5.114263,1.239517,-1.103380,-1.197388
38131,-2.072438,-6.224990,5.152876,1.278688,-1.194847,-1.246017
38132,-1.867268,-6.310782,5.361065,1.331842,-1.254971,-1.283742
38133,-1.922836,-6.521163,5.523060,1.430111,-1.233875,-1.315792
38134,-2.150768,-6.484380,5.720617,1.615651,-1.256136,-1.327895
38135,-2.042353,-6.217611,6.095692,1.778104,-1.365622,-1.356816
38136,-1.725435,-6.071254,6.403868,1.814380,-1.510573,-1.392783
38137,-1.429449,-5.971928,6.377833,1.734444,-1.663942,-1.437488
38138,-1.005122,-5.942446,6.025207,1.679808,-1.777514,-1.479611
38139,-0.541820,-6.023418,5.968562,1.770971,-1.776799,-1.495670
38140,-0.564884,-6.007240,6.122954,1.884426,-1.701048,-1.481853
38141,-0.793346,-5.725157,6.344450,1.976392,-1.654502,-1.477989
38142,-0.653578,-5.343822,6.600298,2.049014,-1.731450,-1.511349
38143,0.018570,-4.885853,6.914359,2.111197,-1.897239,-1.575575
38144,0.814493,-4.619763,7.323411,2.034413,-1.989803,-1.653434
38145,1.049919,-4.530781,7.814527,1.820288,-2.005335,-1.711894
38146,1.067460,-4.674503,8.208165,1.471423,-1.986921,-1.732005
38147,0.808595,-5.080312,8.164408,1.160452,-1.877811,-1.727112
38148,0.465086,-5.392875,7.725463,1.099245,-1.870282,-1.693489
38149,0.924143,-5.284410,7.306687,1.298982,-2.009325,-1.687319
38150,1.856550,-4.805846,7.348326,1.565844,-2.119416,-1.703555
38151,2.601717,-4.327483,7.627318,1.708143,-2.156724,-1.730040
38152,3.006605,-4.092148,8.028535,1.680713,-2.135767,-1.747241
38153,2.987666,-4.014101,8.591166,1.493962,-2.094338,-1.729358
38154,3.018671,-4.291711,8.977225,1.213052,-2.093994,-1.708452
38155,3.317313,-4.565392,8.793790,1.042703,-2.053990,-1.704779
38156,3.312411,-4.690403,8.418666,1.103170,-1.966777,-1.687453
38157,3.200464,-4.572962,8.149474,1.279943,-1.980411,-1.672668
38158,3.595547,-4.230607,7.880983,1.396918,-2.048066,-1.659181
38159,4.017729,-3.848347,7.826945,1.460344,-2.060743,-1.646425
38160,4.521690,-3.754661,8.137906,1.509691,-2.041140,-1.622905
38161,5.333861,-3.694455,8.628146,1.514244,-1.990985,-1.602526
38162,5.937095,-3.558231,9.142162,1.492360,-1.904422,-1.577631
38163,6.066506,-3.347747,9.591918,1.401537,-1.822610,-1.516946
38164,6.004705,-3.123481,9.439776,1.129064,-1.810343,-1.449843
38165,5.822260,-3.193894,8.913146,0.841593,-1.806100,-1.394439
38166,5.536026,-3.356320,8.188766,0.732872,-1.804195,-1.352634
38167,5.455979,-3.358945,7.588808,0.819444,-1.811141,-1.321078
38168,5.585006,-3.276590,7.375592,0.993114,-1.835736,-1.291662
38169,5.906347,-2.995497,7.679900,1.194484,-1.808634,-1.249665
38170,6.154558,-2.645397,8.315277,1.329940,-1.719588,-1.196845
38171,6.403501,-2.286377,8.856411,1.268571,-1.669362,-1.127499
38172,6.789527,-2.002856,9.090283,1.005511,-1.657769,-0.977427
38173,7.185937,-2.087236,8.887022,0.569829,-1.597241,-0.843601
38174,7.380329,-2.398736,8.411477,0.276853,-1.544966,-0.729671
38175,7.428210,-2.776472,7.828955,0.180587,-1.522557,-0.664904
38176,7.475650,-2.912883,7.261373,0.225595,-1.509183,-0.633326
38177,7.313704,-2.957215,6.806240,0.420763,-1.455760,-0.625089
38178,7.186640,-2.819325,7.058578,0.752823,-1.411573,-0.625786
38179,7.303876,-2.406984,7.698033,1.015410,-1.387022,-0.626170
38180,7.441646,-1.905819,8.162605,1.009202,-1.351655,-0.582060
38181,7.676937,-1.552872,8.255329,0.758258,-1.299461,-0.476134
38182,7.842554,-1.440717,7.944159,0.437718,-1.256939,-0.313055
38183,7.948668,-1.559621,7.548924,0.190176,-1.231109,-0.171410
38184,8.017079,-1.855164,7.150621,0.097882,-1.232536,-0.053807
38185,7.912714,-1.890427,6.673237,0.051136,-1.167675,-0.038632
38186,7.620341,-1.617216,6.529250,0.185042,-1.075254,-0.099670
38187,7.662689,-1.349147,6.897206,0.369382,-1.111725,-0.090569
38188,8.026476,-1.268759,7.286500,0.369921,-1.156436,-0.034473
38189,8.347471,-1.178902,7.188281,0.200233,-1.099728,0.014010
38190,8.526420,-1.303453,6.704147,-0.001169,-1.018928,0.090776
38191,8.487801,-1.729520,6.387411,-0.128272,-0.973842,0.185746
38192,8.620330,-2.057406,6.036460,-0.142889,-0.963380,0.248048
38193,8.529308,-2.114022,5.641485,-0.056342,-0.951521,0.272702
38194,8.379901,-1.822809,5.439264,0.194754,-0.909588,0.191030
38195,8.246915,-1.305968,5.829592,0.552975,-0.837065,0.091527
38196,8.193958,-0.734547,6.423407,0.798870,-0.752318,0.015382
38197,8.120102,-0.095392,6.901438,0.770094,-0.707727,-0.028103
38198,8.519298,0.336824,6.979100,0.402583,-0.694032,0.015734
38199,8.952614,0.216286,6.573470,-0.101334,-0.677821,0.218712
38200,8.973254,-0.463913,6.168998,-0.457602,-0.664362,0.369723
38201,9.046415,-0.982124,5.535337,-0.565363,-0.653643,0.396202
38202,8.941437,-1.170571,5.063045,-0.412906,-0.594409,0.363522
38203,8.708760,-1.163319,4.990774,-0.145958,-0.493835,0.255046
38204,8.535065,-0.799894,5.402918,0.125151,-0.444459,0.161373
38205,8.476837,-0.469221,5.893671,0.202730,-0.455066,0.106969
38206,8.690948,-0.251349,6.100377,0.071062,-0.478495,0.123379
38207,8.851830,-0.457332,5.939889,-0.165861,-0.469248,0.170581
38208,8.989118,-0.849708,5.567645,-0.273910,-0.437249,0.211916
38209,8.936729,-1.210188,5.312896,-0.199590,-0.393927,0.244591
38210,8.734655,-1.346218,5.201185,-0.025274,-0.339005,0.235678
38211,8.493156,-1.232774,5.291500,0.132958,-0.307242,0.209908
38212,8.351044,-1.009327,5.480115,0.158333,-0.303950,0.204531
38213,8.397230,-0.906418,5.622754,0.099188,-0.316784,0.204805
38214,8.548713,-0.967584,5.566339,0.029389,-0.321280,0.228215
38215,8.717102,-1.108450,5.391549,-0.008827,-0.296940,0.255730
38216,8.720315,-1.277117,5.162250,-0.032911,-0.270560,0.282176
38217,8.714030,-1.365593,4.972795,-0.032560,-0.255752,0.302975
38218,8.728467,-1.463000,4.741368,-0.027156,-0.257919,0.321576
38219,8.832304,-1.631008,4.626757,-0.001342,-0.255762,0.339924
38220,8.876603,-1.753905,4.503296,0.083514,-0.237693,0.349466
38221,8.807145,-1.644668,4.424683,0.207817,-0.184554,0.325352
38222,8.541215,-1.347167,4.301203,0.345449,-0.132628,0.266283
38223,8.369310,-0.921575,4.345944,0.479605,-0.127090,0.195757
38224,8.476409,-0.542363,4.402124,0.592468,-0.151336,0.140688
38225,8.745712,-0.274288,4.671077,0.606438,-0.156630,0.123876
38226,8.920259,-0.088188,4.821946,0.470736,-0.122651,0.126928
38227,8.971594,-0.097154,4.950051,0.291822,-0.114591,0.153822
38228,8.962972,-0.270505,4.969669,0.129399,-0.120245,0.165988
38229,8.965410,-0.491226,4.921316,0.058434,-0.105823,0.160881
38230,8.912237,-0.690291,4.981041,0.024779,-0.092185,0.154435
38231,8.811063,-0.838801,4.950880,-0.030309,-0.078193,0.131867
38232,8.683213,-0.909703,4.834568,-0.100984,-0.075966,0.110379
38233,8.621454,-1.020563,4.647623,-0.147670,-0.092618,0.091794
38234,8.647803,-1.116729,4.499825,-0.145284,-0.110064,0.068233
38235,8.775920,-1.260181,4.440878,-0.100619,-0.109582,0.061975
38236,8.816447,-1.352238,4.495660,-0.031274,-0.092855,0.062462
38237,8.777356,-1.411282,4.479197,0.044652,-0.076997,0.058893
38238,8.705406,-1.416023,4.576927,0.114188,-0.063497,0.054481
38239,8.642305,-1.411669,4.595979,0.140919,-0.059399,0.048680
38240,8.620690,-1.364845,4.571216,0.148970,-0.060580,0.043769
38241,8.621273,-1.313725,4.556383,0.165230,-0.065106,0.036687
38242,8.630923,-1.218621,4.508366,0.188798,-0.064965,0.029517
38243,8.651993,-1.075970,4.539278,0.209900,-0.056340,-0.001659
38244,8.682656,-0.912053,4.543081,0.209962,-0.048076,-0.015652
38245,8.682288,-0.756746,4.616907,0.171473,-0.042836,-0.021598
38246,8.706451,-0.708631,4.671093,0.093027,-0.043612,-0.014319
38247,8.742513,-0.792270,4.621812,-0.011098,-0.031196,0.002276
38248,8.803366,-0.972639,4.606932,-0.085769,-0.016994,0.016729
38249,8.817517,-1.115461,4.560791,-0.105353,0.001707,0.022729
38250,8.793913,-1.138997,4.497385,-0.114019,0.015957,0.019856
38251,8.713621,-1.079043,4.471633,-0.091315,0.025253,0.013238
38252,8.765529,-0.998336,4.506162,-0.093515,0.012218,0.011236
38253,8.807930,-0.974132,4.520489,-0.109762,0.013390,0.022654
38254,8.874509,-1.056253,4.515616,-0.123646,0.022126,0.034141
38255,8.907027,-1.150960,4.469792,-0.124718,0.033340,0.041059
38256,8.880242,-1.165318,4.349870,-0.108411,0.041359,0.041269
38257,8.721709,-1.123347,4.264404,-0.063485,0.036404,0.023802
38258,8.661008,-1.022079,4.185524,-0.022588,0.012695,-0.001522
38259,8.667668,-0.908246,4.134878,-0.021865,-0.017085,-0.022524
38260,8.730896,-0.850932,4.039174,-0.028437,-0.038826,-0.054106
38261,8.805747,-0.759032,3.967335,-0.010193,-0.062475,-0.079272
38262,8.882235,-0.613392,3.994550,0.033886,-0.071675,-0.120096
38263,8.930090,-0.519438,4.102939,0.032359,-0.074226,-0.168951
38264,8.999135,-0.322181,4.309796,-0.037825,-0.074207,-0.217116
38265,9.004164,-0.292273,4.355602,-0.171053,-0.079508,-0.261919
38266,8.942096,-0.336362,4.216132,-0.326628,-0.103689,-0.318309
38267,8.862353,-0.330582,3.859915,-0.406547,-0.145196,-0.374017
38268,8.818293,-0.294309,3.594126,-0.381928,-0.203629,-0.448832
38269,8.976505,-0.180087,3.573222,-0.328350,-0.250120,-0.520517
38270,9.050300,-0.034817,3.669720,-0.295043,-0.266554,-0.594884
38271,9.014805,0.110144,3.769515,-0.313494,-0.277554,-0.660163
38272,8.885005,0.162914,3.813287,-0.372736,-0.307786,-0.710984
38273,8.828132,-0.006262,3.845247,-0.437449,-0.337146,-0.750620
38274,8.799184,-0.114695,3.793601,-0.456814,-0.352068,-0.776110
38275,8.820475,-0.224958,3.818022,-0.430223,-0.348141,-0.807928
38276,8.912599,-0.249988,3.833319,-0.389307,-0.363047,-0.834938
38277,9.005269,-0.236385,3.895355,-0.391576,-0.374903,-0.860323
38278,9.044691,-0.270980,3.855815,-0.407704,-0.394111,-0.889986
38279,9.057416,-0.328321,3.830687,-0.408148,-0.417925,-0.922798
38280,9.016457,-0.399852,3.753090,-0.398338,-0.431927,-0.958539
38281,8.923741,-0.440821,3.593084,-0.376112,-0.455081,-0.994755
38282,8.930371,-0.459355,3.444666,-0.326888,-0.501720,-1.016939
38283,9.173423,-0.522382,3.344149,-0.269547,-0.552808,-1.017883
38284,9.346223,-0.584289,3.287180,-0.191288,-0.569673,-1.015558
38285,9.432351,-0.633600,3.378022,-0.086974,-0.529480,-1.028747
38286,9.317114,-0.634509,3.543536,0.028032,-0.497043,-1.032585
38287,9.177271,-0.517510,3.692568,0.075206,-0.515733,-1.031712
38288,9.106281,-0.391701,3.655941,0.058132,-0.556119,-1.010210
38289,9.150554,-0.401406,3.565481,0.047152,-0.585477,-0.995781
38290,9.192265,-0.366065,3.442833,0.080649,-0.594528,-0.982021
38291,9.121735,-0.279013,3.352866,0.106377,-0.586784,-0.976404
38292,9.045584,-0.182588,3.339929,0.137123,-0.599866,-0.964092
38293,9.135943,-0.135476,3.365958,0.149707,-0.598270,-0.936406
38294,9.200223,-0.108361,3.486907,0.131170,-0.586733,-0.906039
38295,9.279758,-0.129980,3.459389,0.067654,-0.573189,-0.864320
38296,9.254933,-0.187863,3.291814,0.002400,-0.575438,-0.820835
38297,9.313400,-0.282973,3.076488,-0.003658,-0.587308,-0.770308
38298,9.342543,-0.411448,2.902028,0.047593,-0.602578,-0.716828
38299,9.405226,-0.469147,2.787213,0.142866,-0.603345,-0.660015
38300,9.389629,-0.444589,2.721690,0.263158,-0.592085,-0.608927
38301,9.379832,-0.421789,2.814452,0.395243,-0.577876,-0.546838
38302,9.411360,-0.207234,2.863519,0.487814,-0.566754,-0.490771
38303,9.401405,-0.057657,2.953039,0.516327,-0.555042,-0.427260
38304,9.438115,0.049716,3.032114,0.481763,-0.560805,-0.345798
38305,9.465848,0.047905,3.009383,0.416182,-0.567775,-0.254179
38306,9.420106,-0.018791,2.840395,0.354678,-0.562727,-0.169218
38307,9.381633,-0.055202,2.571672,0.354240,-0.558866,-0.102234
38308,9.298280,-0.069821,2.417582,0.400493,-0.557000,-0.041147
38309,9.271632,-0.023221,2.352665,0.480703,-0.560991,0.011880
38310,9.282185,0.116519,2.291139,0.555148,-0.562631,0.061690
38311,9.355316,0.339069,2.261981,0.604663,-0.593390,0.098578
38312,9.681417,0.589560,2.262344,0.620971,-0.644935,0.127245
38313,10.025821,0.833389,2.053378,0.613927,-0.686300,0.148077
38314,10.018565,0.593577,2.073888,0.617013,-0.633450,0.236519
38315,9.395492,0.191224,1.867629,0.550063,-0.694127,0.102443
38316,9.820823,0.423152,1.183970,0.734257,-0.827765,0.233685
38317,9.883461,0.525249,0.788500,1.154873,-0.946218,0.348051
38318,9.877301,0.908467,0.686428,1.541143,-0.896669,0.134859
38319,10.023767,1.646087,0.542561,1.892902,-0.642916,-0.212547
38320,10.179179,2.724591,0.622484,2.283703,-0.290716,-0.490677
38321,10.129252,4.018194,1.366319,2.468762,0.031627,-0.553313
38322,9.836392,5.133333,2.913738,2.071771,0.112530,-0.407182
38323,9.491541,5.640325,4.150694,0.840417,-0.144409,-0.162342
38324,9.527490,4.850682,3.841862,-0.637215,-0.523486,0.052044
38325,9.911473,3.418042,2.320470,-1.431928,-0.717819,0.171641
38326,9.999040,2.303440,1.385356,-1.566213,-0.752226,0.255514
38327,10.026494,1.542131,1.006100,-1.378007,-0.652763,0.232824
38328,9.933478,1.041925,0.907411,-1.044518,-0.477493,0.131107
38329,9.861445,0.767439,0.958924,-0.647242,-0.288507,0.011305
38330,9.795277,0.699986,1.139609,-0.262433,-0.171375,-0.056706
38331,9.693718,0.854090,1.509878,-0.079058,-0.149418,-0.025481
38332,9.754529,0.923641,1.693063,-0.126009,-0.176780,0.021044
38333,9.720100,0.844837,1.555785,-0.215103,-0.213109,0.079403
38334,9.658252,0.680459,1.224435,-0.194710,-0.233854,0.098379
38335,9.695729,0.680279,1.057108,-0.041248,-0.219306,0.083697
38336,9.742875,0.763317,0.981470,0.146320,-0.158795,0.044492
38337,9.757520,0.953114,1.066255,0.272233,-0.060485,0.012026
38338,9.699645,1.098077,1.327996,0.302439,-0.019123,0.016049
38339,9.649844,1.245578,1.466572,0.254171,-0.024883,0.041534
38340,9.719800,1.316552,1.533249,0.129249,-0.054786,0.078824
38341,9.732851,1.239364,1.439012,0.013005,-0.076333,0.100028
38342,9.686197,1.121751,1.292794,-0.015975,-0.066171,0.105167
38343,9.686456,1.078783,1.142315,0.065290,-0.049088,0.092719
38344,9.756800,1.145815,1.210504,0.172000,-0.015580,0.076391
38345,9.737454,1.290635,1.304987,0.200207,0.010346,0.068732
38346,9.700331,1.373207,1.283248,0.155147,0.009478,0.082661
38347,9.711968,1.296282,1.194362,0.108010,-0.021465,0.090949
38348,9.733899,1.206140,1.032982,0.144240,-0.017233,0.092853
38349,9.789827,1.148844,0.946069,0.219192,-0.009680,0.082746
38350,9.775190,1.183435,0.909487,0.308412,0.024998,0.069601
38351,9.766236,1.318835,0.932820,0.393294,0.053139,0.047309
38352,9.746727,1.528303,1.042107,0.440917,0.073055,0.031150
38353,9.739653,1.713761,1.132685,0.403877,0.081324,0.018689
38354,9.692274,1.825126,1.105640,0.314987,0.066669,0.019633
38355,9.729871,1.854273,1.155971,0.193360,0.035556,0.038734
38356,9.727878,1.746803,1.075669,0.060760,0.012217,0.060921
38357,9.717653,1.549773,0.885846,-0.012839,-0.001913,0.065917
38358,9.680759,1.397493,0.807607,-0.016930,-0.025595,0.067882
38359,9.771575,1.322246,0.706636,0.035310,-0.016264,0.053737
38360,9.759413,1.344816,0.723940,0.090942,0.019553,0.037399
38361,9.717792,1.427589,0.803568,0.119554,0.052518,0.014943
38362,9.740301,1.527430,1.042556,0.124381,0.067385,-0.005915
38363,9.726818,1.528582,1.271646,0.084309,0.055055,-0.000344
38364,9.700696,1.522985,1.297182,-0.025508,0.018895,0.020181
38365,9.704180,1.424827,1.041278,-0.119681,-0.013909,0.037499
38366,9.667955,1.281085,0.887344,-0.129051,-0.027804,0.048694
38367,9.700772,1.155476,0.789623,-0.056800,-0.016908,0.029491
38368,9.684499,1.126676,0.817263,0.028471,0.003344,0.007642
38369,9.716628,1.231687,0.851808,0.086821,0.021395,-0.008675
38370,9.715773,1.342602,0.956258,0.092719,0.017617,-0.012842
38371,9.712161,1.408035,0.994385,0.068514,0.026945,-0.019252
38372,9.739789,1.402713,1.026951,0.020115,0.022535,-0.010104
38373,9.743095,1.398331,1.004518,-0.017490,0.003355,0.001301
38374,9.790829,1.354938,0.971051,-0.010695,0.012149,-0.006023
38375,9.802023,1.321693,1.032149,-0.004077,0.029047,-0.011191
38376,9.734743,1.292966,1.030493,-0.026621,0.013443,-0.006999
38377,9.739498,1.295665,0.930139,-0.043684,-0.019482,-0.002446
38378,9.733867,1.312449,0.899703,-0.023066,-0.009117,0.001180
38379,9.702107,1.325061,0.893657,0.001146,0.028150,-0.015607
38380,9.693363,1.328477,1.020496,0.002182,0.026909,-0.010193
38381,9.674247,1.314584,0.997679,-0.036726,0.013605,-0.008397
38382,9.757282,1.313037,0.961727,-0.032814,0.010087,-0.006368
38383,9.822189,1.218853,1.017430,-0.023505,0.018228,-0.006791
38384,9.775326,1.269980,0.977495,-0.046847,0.022664,-0.005045
38385,9.715252,1.231019,0.928353,-0.065305,0.010003,-0.006951
38386,9.755992,1.197333,0.942173,-0.033867,-0.003282,-0.005822
38387,9.758072,1.185446,0.995819,-0.007397,0.008841,-0.007969
38388,9.711273,1.237001,0.954916,-0.012111,0.017822,-0.006469
38389,9.683102,1.244678,0.925003,-0.014101,-0.002599,-0.004422
38390,9.777798,1.209076,0.946266,-0.005911,-0.002323,-0.005904
38391,9.721621,1.224113,0.885219,-0.002356,0.013207,-0.004885
38392,9.676869,1.264180,0.897656,0.018135,0.022430,-0.024616
38393,9.747766,1.330088,1.022938,0.040968,0.012754,-0.028767
38394,9.692093,1.385946,1.105877,0.008822,0.017106,-0.029536
38395,9.650480,1.305261,1.067396,-0.061905,0.006864,-0.018031
38396,9.685386,1.230988,1.037574,-0.069033,-0.018153,-0.009964
38397,9.709019,1.190571,0.947567,-0.050580,-0.017239,-0.007443
38398,9.738318,1.133402,0.887119,-0.018007,-0.008008,-0.011193
38399,9.747579,1.171216,0.906413,0.033816,0.008438,-0.016544
38400,9.778915,1.219714,0.928140,0.055310,0.022488,-0.020756
38401,9.741992,1.289424,1.036398,0.048079,0.017522,-0.020201
38402,9.760383,1.305822,1.062204,0.014201,0.005667,-0.010009
38403,9.774600,1.287567,0.967490,-0.014704,-0.005240,-0.003080
38404,9.711285,1.253514,0.939689,-0.019768,0.002125,-0.006744
38405,9.670180,1.229762,0.913500,0.005236,0.001958,-0.009768
38406,9.679411,1.267428,0.932715,0.034769,0.000912,-0.012118
38407,9.703724,1.324474,1.000931,0.038565,0.011774,-0.006926
38408,9.709233,1.308208,1.031547,0.007627,0.018508,-0.005057
38409,9.740648,1.296442,1.040268,-0.019625,0.011829,0.000584
38410,9.725463,1.218333,0.979009,-0.031108,0.003091,0.004621
38411,9.762133,1.208699,0.886110,-0.028831,-0.001801,0.002582
38412,9.739836,1.198735,0.885022,0.010878,0.006115,-0.002689
38413,9.758351,1.272532,0.924667,0.051089,0.022115,-0.010881
38414,9.734220,1.315133,1.015365,0.065612,0.029372,-0.015702
38415,9.672655,1.387118,1.069449,0.044026,0.023614,-0.018415
38416,9.687368,1.408043,1.119276,0.004699,0.005593,-0.007418
38417,9.722557,1.333178,1.089428,-0.053781,-0.010518,0.000803
38418,9.750202,1.169464,0.949152,-0.079837,-0.020471,0.019766
38419,9.714713,1.087287,0.807348,-0.053540,-0.020876,0.015668
38420,9.764475,1.109320,0.708884,0.017689,0.000352,-0.004056
38421,9.755584,1.170780,0.847550,0.086257,0.030904,-0.016799
38422,9.679525,1.262045,0.997008,0.086034,0.041799,-0.019938
38423,9.649538,1.321976,1.058374,0.044282,0.016113,-0.008893
38424,9.688267,1.359511,1.031744,0.011774,-0.007664,0.000734
38425,9.721464,1.354962,0.961687,-0.010533,-0.001658,0.002505
38426,9.699154,1.286581,0.947625,0.004559,0.017123,0.001085
38427,9.726984,1.279707,0.979657,0.032266,0.011031,-0.002520
38428,9.726805,1.338783,0.993651,0.040281,0.010496,-0.006561
38429,9.763952,1.310647,1.030846,0.020524,0.006959,-0.002660
