// Start Time: Unknown
// Update Rate: 100.0Hz
// Filter Profile: human (46.1)
// Firmware Version: 4.3.5
PacketCounter,Acc_X,Acc_Y,Acc_Z,Gyr_X,Gyr_Y,Gyr_Z
13972,9.742959,-0.955357,1.528484,-0.221250,0.012842,-0.059406
13973,9.715114,-0.996494,1.556748,-0.223569,0.013683,-0.068141
13974,9.701054,-1.107816,1.510694,-0.209198,0.011380,-0.079004
13975,9.710377,-1.246994,1.504269,-0.175601,0.009392,-0.081993
13976,9.720499,-1.372300,1.477356,-0.124827,0.010924,-0.078406
13977,9.761101,-1.445850,1.455652,-0.063148,0.005696,-0.072374
13978,9.731659,-1.491668,1.450533,0.001979,-0.000233,-0.049671
13979,9.762511,-1.435932,1.456014,0.077582,-0.000478,-0.028728
13980,9.783030,-1.263685,1.508347,0.122208,-0.009576,-0.009112
13981,9.812123,-1.017925,1.579258,0.140291,-0.009023,-0.000027
13982,9.807608,-0.857609,1.652309,0.111164,-0.006186,0.003221
13983,9.811414,-0.810022,1.624820,0.054203,0.001763,0.006987
13984,9.805792,-0.851100,1.599409,-0.004921,0.011362,0.006736
13985,9.760506,-1.031624,1.571474,-0.037150,0.018945,0.003498
13986,9.721694,-1.145042,1.529071,-0.040188,0.024880,0.001877
13987,9.691009,-1.197324,1.526324,-0.028933,0.024414,0.006189
13988,9.637145,-1.220584,1.483809,0.000530,0.027348,0.006907
13989,9.644868,-1.159877,1.525720,0.027140,0.020232,0.006943
13990,9.676348,-1.114728,1.586778,0.042561,0.014200,0.009605
13991,9.715048,-0.989036,1.612230,0.044806,0.014457,0.005166
13992,9.746034,-0.956393,1.693523,0.036853,0.013610,0.001575
13993,9.720004,-0.947268,1.641918,0.032349,0.013973,-0.002803
13994,9.770120,-0.911790,1.579926,0.017727,0.015163,-0.014779
13995,9.716110,-0.945813,1.557069,-0.000439,0.012712,-0.015420
13996,9.672537,-1.052524,1.372014,-0.004981,0.012100,-0.015580
13997,9.758574,-1.188696,1.432202,0.001050,-0.000725,-0.008099
13998,9.785333,-1.215488,1.560568,0.017090,0.003546,-0.002411
13999,9.808552,-1.012651,1.604623,0.025370,0.009622,0.007216
14000,9.792967,-0.704712,1.628732,-0.006769,0.018277,0.008753
14001,9.728191,-0.591813,1.556706,-0.076312,0.023117,0.005944
14002,9.634192,-0.658536,1.223685,-0.145667,0.012533,0.001989
14003,9.568655,-0.866232,0.740246,-0.175159,-0.008923,-0.005321
14004,9.557426,-1.069557,0.372920,-0.150491,-0.049142,0.005267
14005,9.580247,-1.472199,0.166591,-0.085444,-0.055946,0.032285
14006,9.652207,-1.794468,0.364126,0.037129,-0.062173,0.055815
14007,9.843518,-1.892112,1.093206,0.161087,-0.027096,0.092662
14008,9.771822,-1.398809,1.647748,0.226950,0.000052,0.108265
14009,9.747627,-0.697338,2.190524,0.158981,0.014716,0.091486
14010,9.894181,-0.458349,2.732227,-0.049324,0.034466,0.091392
14011,9.825440,-0.740524,3.025968,-0.331917,0.036313,0.118961
14012,9.862529,-1.195157,3.359537,-0.545450,0.013981,0.131250
14013,9.978946,-1.938212,3.417459,-0.660161,-0.009298,0.165447
14014,9.891035,-3.040918,2.576261,-0.523443,-0.055894,0.245876
14015,9.561711,-3.456958,1.261881,-0.113500,-0.107878,0.260267
14016,9.786882,-2.970036,0.661164,0.298966,-0.174250,0.259964
14017,10.314865,-2.304211,0.780435,0.478424,-0.190950,0.312994
14018,10.547285,-1.689240,0.942160,0.433286,-0.170460,0.372562
14019,10.417666,-0.907247,0.701644,0.233326,-0.152927,0.399146
14020,10.232146,-0.447224,0.102570,-0.055975,-0.155614,0.422368
14021,10.184582,-0.674016,-0.295234,-0.274307,-0.113828,0.433703
14022,9.909295,-1.016384,0.040201,-0.374336,-0.072836,0.425113
14023,9.604217,-1.256805,0.501828,-0.429852,-0.011297,0.402225
14024,9.330656,-0.939228,1.369336,-0.509294,0.048904,0.357656
14025,9.435318,-0.831665,2.479004,-0.731988,0.103973,0.318999
14026,9.261333,-1.045852,2.596306,-0.927433,0.128486,0.249354
14027,9.143696,-1.410792,2.396616,-1.056466,0.141481,0.164552
14028,9.373588,-2.540071,2.646320,-1.094328,0.122066,0.115697
14029,9.237042,-3.602170,2.351939,-0.815140,0.077545,0.025841
14030,9.269927,-4.094786,2.102448,-0.306713,0.017329,-0.064447
14031,9.404004,-4.109675,1.849434,0.257316,-0.017595,-0.101080
14032,9.544079,-3.447006,1.133591,0.762429,-0.079775,-0.102065
14033,9.969869,-2.703281,0.890403,1.120017,-0.104390,-0.077477
14034,10.239198,-1.857729,1.122162,1.226182,-0.101925,-0.020592
14035,10.232266,-0.594210,0.507675,1.076887,-0.124495,0.023186
14036,10.217297,0.101631,-0.474725,0.718158,-0.144853,0.122423
14037,10.078772,-0.095943,-0.673922,0.346133,-0.149620,0.233083
14038,10.063852,-0.655961,-0.247459,0.110293,-0.104130,0.308748
14039,9.784210,-0.660308,0.452227,-0.037974,-0.054584,0.363841
14040,9.774868,-1.045963,1.802653,-0.309597,-0.004790,0.449926
14041,9.564114,-1.398583,2.174598,-0.515064,0.043743,0.457413
14042,9.267287,-1.418311,2.207485,-0.739286,0.055969,0.479958
14043,9.252283,-1.904068,2.146821,-1.052572,0.027877,0.551493
14044,9.511107,-3.617284,1.919594,-1.199481,-0.003972,0.644658
14045,9.522096,-4.798038,1.898704,-0.822035,-0.056790,0.527950
14046,9.750956,-5.125694,2.718259,-0.275809,-0.116725,0.496106
14047,9.803545,-5.247490,2.569789,0.311493,-0.132544,0.527785
14048,9.558001,-4.432119,1.431050,0.806419,-0.160774,0.538622
14049,9.687760,-3.227860,0.757748,1.135023,-0.202266,0.528590
14050,9.966507,-1.762460,0.438561,1.130920,-0.252736,0.524905
14051,10.201295,-0.768286,0.058605,0.866144,-0.332773,0.552656
14052,10.406910,-1.432844,-0.291836,0.557568,-0.366976,0.685560
14053,10.749913,-2.665706,-0.167029,0.403147,-0.354114,0.803527
14054,10.667722,-4.453822,0.491644,0.367326,-0.260830,1.026674
14055,9.937012,-4.547127,0.434866,0.576335,-0.142261,1.044113
14056,9.575131,-2.904076,1.230036,0.586968,-0.053615,1.091968
14057,9.483190,-1.510239,2.741541,0.266372,-0.002154,1.128322
14058,9.272724,-1.570696,2.345650,-0.362955,-0.044118,1.264506
14059,8.851284,-2.958710,0.709808,-0.734261,-0.106504,1.333779
14060,8.444129,-4.281663,-0.460447,-0.905795,-0.228358,1.414566
14061,8.550109,-5.437755,-0.353856,-0.870789,-0.339531,1.431768
14062,9.561000,-6.361583,2.286376,-0.813425,-0.389674,1.421780
14063,10.411298,-7.319810,3.555308,-0.572002,-0.349132,1.465495
14064,10.005721,-7.830815,2.416574,-0.018465,-0.326374,1.416084
14065,9.139686,-7.683789,0.724902,0.560610,-0.354417,1.435399
14066,8.088349,-6.990358,-0.552321,1.005825,-0.436906,1.438992
14067,8.221613,-6.456950,-0.554307,1.252806,-0.538345,1.478180
14068,8.473048,-5.228688,-0.440139,1.326724,-0.569235,1.502439
14069,9.085563,-4.133132,-0.123693,1.105796,-0.547326,1.561910
14070,9.821587,-4.042737,0.750603,0.636031,-0.359972,1.728306
14071,9.598730,-4.559260,0.807407,0.205633,-0.084281,1.828731
14072,8.725605,-5.018548,0.983900,-0.095319,0.149852,1.909497
14073,8.303240,-5.229870,3.063774,-0.399433,0.379998,1.948384
14074,7.989635,-4.992550,3.887993,-0.696236,0.526159,1.937867
14075,7.682093,-5.590327,3.065885,-0.938557,0.604761,1.947996
14076,7.548269,-6.975043,3.083160,-0.983879,0.613427,1.959381
14077,7.466460,-8.001911,2.642951,-0.725017,0.527482,1.877580
14078,7.812685,-8.276308,1.838052,-0.307758,0.448642,1.774393
14079,7.957673,-8.502517,1.845170,0.026600,0.443170,1.733734
14080,7.907369,-8.020904,0.315874,0.305425,0.369826,1.686766
14081,7.762191,-7.490483,-0.777089,0.532751,0.248000,1.656452
14082,7.491654,-6.401962,-0.828053,0.595062,0.114133,1.600017
14083,7.198934,-5.817712,-1.931837,0.520887,-0.064816,1.561579
14084,7.261419,-6.625331,-2.127396,0.540681,-0.188115,1.571334
14085,7.445156,-7.496344,-0.985309,0.760886,-0.191782,1.553536
14086,7.847150,-7.624635,0.385044,1.022878,-0.079901,1.536322
14087,7.813780,-7.197812,1.304900,1.178908,0.095033,1.555916
14088,7.527715,-6.390607,2.180038,1.057113,0.272802,1.586553
14089,7.195771,-5.611025,2.732376,0.720740,0.388823,1.600819
14090,6.860658,-5.391576,2.719435,0.249919,0.441208,1.626010
14091,6.646031,-5.968845,2.789694,-0.192481,0.440980,1.636731
14092,6.824896,-7.188522,3.371249,-0.480960,0.419504,1.650534
14093,6.781060,-8.717698,2.727765,-0.467977,0.346041,1.675187
14094,6.820376,-9.991991,2.413950,-0.163785,0.231586,1.702912
14095,6.624029,-10.866013,1.627565,0.353833,0.140468,1.711725
14096,6.251468,-10.343836,0.884649,0.953209,0.017860,1.618288
14097,6.399040,-9.085998,1.394820,1.298827,-0.089751,1.626925
14098,6.678308,-7.765487,2.574029,1.354455,-0.073277,1.613796
14099,6.433352,-6.588357,2.539945,1.150867,-0.031035,1.591150
14100,6.260884,-6.953934,1.808437,0.883923,-0.007172,1.603536
14101,6.317045,-7.890661,1.705035,0.814842,0.115668,1.613845
14102,6.291556,-8.357408,2.235303,0.815734,0.294405,1.620682
14103,6.021839,-8.033667,2.931475,0.821819,0.491242,1.601918
14104,5.717317,-7.946536,4.562416,0.750525,0.757436,1.590912
14105,5.307801,-7.803586,5.541924,0.620349,0.999157,1.571575
14106,4.675740,-7.265677,4.870403,0.434433,1.112806,1.546224
14107,4.299386,-7.028119,5.143705,0.103167,1.189643,1.547529
14108,4.002297,-7.836661,5.254585,-0.265452,1.220667,1.550844
14109,3.848560,-8.931727,4.341424,-0.411318,1.135722,1.512013
14110,3.631757,-9.984929,3.789457,-0.316525,0.985243,1.495448
14111,3.238553,-10.817362,3.061381,0.012719,0.807132,1.473659
14112,2.828459,-10.523123,2.046541,0.432432,0.592292,1.411869
14113,2.696288,-9.957199,1.614624,0.755688,0.379465,1.358964
14114,2.814699,-9.666877,1.953370,0.973529,0.271963,1.330817
14115,3.038535,-9.296695,1.989385,1.079848,0.219686,1.279660
14116,3.391706,-8.990817,1.860824,1.160790,0.227842,1.217787
14117,3.485522,-8.830904,2.339493,1.260650,0.330639,1.174493
14118,3.647571,-9.029629,3.144417,1.317776,0.509705,1.141056
14119,3.395744,-9.487283,3.268711,1.412965,0.686640,1.115851
14120,3.129531,-9.171339,3.609775,1.448628,0.849907,1.103562
14121,2.890255,-8.340359,4.077889,1.311952,0.978892,1.077333
14122,2.487004,-7.725503,4.082591,1.010050,1.019768,1.058561
14123,1.825480,-7.504131,3.153164,0.627237,0.982468,1.052377
14124,1.138453,-7.615942,2.831088,0.258350,0.878503,1.046426
14125,0.998882,-8.431947,3.699656,-0.053663,0.732447,1.058819
14126,1.226327,-9.741718,4.079901,-0.157735,0.605254,1.056537
14127,1.526699,-11.153252,4.083001,0.010642,0.497066,1.079593
14128,1.627806,-12.471397,3.793670,0.432360,0.437525,1.107788
14129,1.033111,-11.819426,2.211327,0.985940,0.339912,1.040798
14130,1.016328,-10.192974,1.773280,1.347080,0.178770,1.025578
14131,1.067382,-8.808554,2.666346,1.405199,0.118209,1.019688
14132,0.825936,-7.579754,2.840542,1.202775,0.048436,0.986211
14133,1.097858,-7.357181,2.307523,0.908417,0.003904,0.963168
14134,1.456568,-8.094540,1.692166,0.803082,0.091296,0.921899
14135,1.458486,-8.412141,1.863066,0.904100,0.201906,0.861296
14136,0.948713,-8.023550,2.783789,1.018465,0.299118,0.801358
14137,0.965248,-7.576900,5.342766,0.980860,0.426988,0.709881
14138,0.375779,-6.758929,6.070063,0.701623,0.524406,0.559150
14139,-0.509388,-6.007011,5.446249,0.355334,0.512865,0.400915
14140,-1.261986,-4.800834,5.559500,-0.108092,0.417191,0.221623
14141,-1.489092,-4.783583,4.173266,-0.758149,0.185167,0.142639
14142,-1.216081,-7.765615,2.234777,-0.865355,-0.071937,0.095649
14143,-1.196568,-10.498336,0.979247,-0.306877,-0.366400,0.028394
14144,-0.548846,-11.719943,0.596924,0.697500,-0.630462,-0.169199
14145,0.846594,-11.461519,1.503436,1.634551,-0.801583,-0.285512
14146,1.854660,-10.044007,2.680014,2.245100,-0.859700,-0.322862
14147,2.187754,-7.447443,3.234688,2.436706,-0.837228,-0.382495
14148,2.517602,-5.411644,3.736281,2.272583,-0.796331,-0.429926
14149,3.170352,-5.009013,4.167783,1.848593,-0.668439,-0.362976
14150,3.376407,-5.235346,4.282973,1.505471,-0.451162,-0.325771
14151,2.698012,-5.021723,4.730611,1.171761,-0.206430,-0.328386
14152,1.953258,-5.076610,5.547022,0.807779,0.025554,-0.344946
14153,0.846406,-4.591759,5.261375,0.512807,0.184629,-0.477616
14154,-0.042547,-4.194643,4.399647,0.205148,0.182934,-0.640140
14155,-0.327803,-5.039755,4.313506,-0.078224,0.088522,-0.780757
14156,0.591197,-6.829323,6.159597,-0.233984,-0.020941,-0.863768
14157,0.962957,-8.097575,5.750382,0.006748,-0.131282,-1.032659
14158,1.067322,-8.516051,5.077787,0.457686,-0.288423,-1.137198
14159,0.685961,-8.345966,4.711462,0.937339,-0.442476,-1.201294
14160,1.056225,-8.066360,4.267157,1.359553,-0.646316,-1.284000
14161,2.370915,-8.097921,4.177696,1.733085,-0.769557,-1.298650
14162,3.341518,-7.379801,4.762176,1.994031,-0.786506,-1.273491
14163,3.563704,-5.767607,4.590207,2.058364,-0.782501,-1.262150
14164,3.901206,-4.901956,4.251198,1.972640,-0.703664,-1.189579
14165,4.278205,-4.834438,4.810937,1.777689,-0.564547,-1.075587
14166,4.043745,-4.432135,5.330619,1.529513,-0.398956,-0.997393
14167,3.341716,-3.743052,6.301777,1.185277,-0.250144,-0.974055
14168,3.075980,-3.082077,8.386544,0.588914,-0.174544,-0.915754
14169,3.015684,-3.842388,8.043120,-0.142356,-0.173533,-0.873730
14170,3.073058,-5.536514,7.066033,-0.444112,-0.227911,-0.866553
14171,3.060119,-7.135434,7.168521,-0.387815,-0.325633,-0.864054
14172,3.358563,-8.313644,7.012253,-0.051917,-0.433833,-0.849252
14173,3.689254,-9.043200,6.352049,0.621813,-0.486742,-0.860017
14174,3.535326,-8.868066,5.651693,1.349562,-0.571889,-0.849919
14175,3.766208,-8.552064,5.606267,2.021623,-0.672604,-0.775529
14176,4.336596,-7.354213,6.052519,2.474787,-0.682267,-0.689451
14177,4.282893,-5.262128,6.658608,2.604125,-0.662775,-0.621747
14178,4.280654,-2.996834,6.619463,2.364798,-0.652055,-0.602283
14179,4.703521,-1.869809,6.795510,1.826791,-0.566248,-0.548018
14180,4.790620,-1.264027,7.841534,1.129739,-0.440782,-0.428179
14181,4.872643,-1.591392,8.303976,0.346837,-0.308800,-0.334233
14182,4.743964,-3.016800,8.902522,-0.312959,-0.200272,-0.242336
14183,4.514542,-4.552173,8.225387,-0.666035,-0.195961,-0.207856
14184,4.241067,-5.667178,7.382857,-0.674422,-0.239236,-0.200870
14185,4.314741,-6.512723,7.545483,-0.470542,-0.305312,-0.204844
14186,4.486855,-7.524481,7.772447,-0.093539,-0.369309,-0.188604
14187,4.894725,-7.759213,7.448068,0.529679,-0.421422,-0.211045
14188,4.800988,-6.902703,6.886369,1.062977,-0.446758,-0.192004
14189,4.385600,-6.029178,6.125440,1.433345,-0.557447,-0.174560
14190,4.619294,-5.331086,6.311829,1.703980,-0.649882,-0.166194
14191,4.913883,-3.997610,6.846821,1.816721,-0.622361,-0.143720
14192,4.801891,-2.290894,7.270002,1.677760,-0.589233,-0.174125
14193,5.291383,-1.561817,8.452116,1.213855,-0.545730,-0.142390
14194,5.499377,-1.775437,8.427831,0.692385,-0.456395,-0.106591
14195,5.294526,-1.519756,8.215337,0.237288,-0.360973,-0.092097
14196,4.849922,-0.702314,8.398178,-0.259895,-0.273195,-0.108871
14197,5.178384,-1.114608,10.202445,-0.970191,-0.193640,-0.090657
14198,5.339499,-2.784575,9.706046,-1.629127,-0.118391,-0.063083
14199,5.006633,-4.511142,8.220889,-1.848807,-0.080519,-0.063479
14200,4.474131,-6.163939,7.235035,-1.673511,-0.075703,-0.085388
14201,4.584977,-7.869162,7.911808,-1.232065,-0.102892,-0.131285
14202,5.818782,-8.947594,11.028250,-0.711301,-0.094079,-0.112497
14203,6.218707,-7.759238,12.376947,-0.192060,0.009636,-0.055077
14204,5.513549,-6.731302,11.197123,0.076906,0.015346,0.068818
14205,4.946191,-6.280045,10.016921,0.325028,0.014193,0.154696
14206,4.352455,-5.807446,8.915552,0.487061,-0.086994,0.193068
14207,5.205331,-6.122054,8.846867,0.556522,-0.154897,0.350220
14208,5.798282,-5.758183,9.946937,0.506628,-0.099536,0.520373
14209,5.721640,-3.910603,9.251549,0.252546,-0.050758,0.595371
14210,5.848069,-2.803557,7.721243,-0.169289,-0.058622,0.687863
14211,6.276702,-3.483092,7.229254,-0.580364,0.099045,0.847522
14212,6.401481,-4.126368,7.557562,-0.834676,0.287008,0.950818
14213,6.242740,-4.428673,7.820910,-0.952718,0.505623,1.058285
14214,5.816894,-4.776329,10.191115,-1.173660,0.722160,1.190577
14215,5.116760,-5.874901,9.656887,-1.401719,0.793950,1.290641
14216,4.325164,-7.347661,8.135465,-1.352922,0.755928,1.423888
14217,4.014729,-7.868349,7.817521,-1.127736,0.624128,1.501935
14218,4.957742,-7.511725,8.515336,-1.065723,0.523052,1.623720
14219,5.851788,-6.560124,8.611944,-1.128312,0.478622,1.750208
14220,6.405432,-5.588869,8.281724,-1.438002,0.468183,1.901309
14221,6.443692,-5.575874,7.785229,-1.803610,0.486520,2.050966
14222,5.712073,-6.816386,7.316434,-1.970878,0.562183,2.141489
14223,4.583920,-8.284413,7.404414,-1.807552,0.524360,2.234636
14224,4.088405,-9.281883,6.772153,-1.399200,0.477042,2.318959
14225,4.152543,-9.651451,6.264852,-0.822538,0.442972,2.321592
14226,4.449609,-9.214486,7.161171,-0.344856,0.391871,2.346383
14227,4.908616,-8.719274,7.326375,-0.058717,0.382920,2.392426
14228,5.159120,-8.456393,7.135999,0.128464,0.409075,2.425956
14229,4.981895,-7.259570,7.122925,0.185773,0.473044,2.435666
14230,3.829522,-5.066667,6.198685,-0.040237,0.492149,2.374443
14231,2.594680,-2.768833,4.268949,-0.558190,0.376024,2.287896
14232,2.160183,-2.273431,2.314474,-1.253453,0.203097,2.279285
14233,2.373019,-5.301372,1.066909,-1.644914,0.103808,2.347928
14234,2.442967,-9.592861,1.605127,-1.229027,0.079704,2.406454
14235,1.917662,-12.778506,3.645838,0.091006,0.287028,2.161338
14236,1.672268,-12.273515,6.009638,1.604769,0.518630,1.923743
14237,1.841552,-7.869349,7.943221,2.491870,0.848353,1.699780
14238,1.638781,-2.747980,9.717623,2.211357,1.048536,1.497678
14239,1.294111,-0.627855,9.165641,0.732686,0.987520,1.565514
14240,0.823051,-2.121056,6.912343,-0.671103,0.868209,1.578408
14241,0.449717,-4.695996,5.792920,-1.609784,0.658848,1.585085
14242,0.131226,-7.602280,4.787637,-1.916164,0.454923,1.614107
14243,-0.193729,-8.517964,4.634887,-1.650781,0.321202,1.494534
14244,-0.489871,-7.503834,4.941429,-1.404211,0.243918,1.419323
14245,-1.103681,-6.704062,3.814664,-1.278365,0.186632,1.337264
14246,-1.567181,-6.206338,2.300440,-1.162530,0.078581,1.267085
14247,-0.646683,-7.163100,2.171375,-0.967262,0.024522,1.205503
14248,0.128679,-9.199162,3.093454,-0.528159,0.140704,1.177705
14249,0.094884,-10.209250,4.511615,0.304770,0.412926,1.071757
14250,-0.716320,-8.733356,5.964322,1.040259,0.788874,0.946012
14251,-1.834175,-6.348088,6.658016,1.368757,1.108383,0.810454
14252,-3.104919,-4.014339,6.755056,1.161523,1.288782,0.676450
14253,-4.209642,-3.088623,6.364081,0.526612,1.306040,0.579545
14254,-4.749069,-3.905734,5.714956,-0.179631,1.165526,0.486330
14255,-4.756927,-5.305596,5.322921,-0.641183,0.924051,0.372912
14256,-4.504754,-6.931386,4.439138,-0.832767,0.621485,0.284992
14257,-4.404065,-8.091201,3.951216,-0.663785,0.332516,0.185382
14258,-4.229013,-7.094518,4.227626,-0.543740,0.089211,0.095130
14259,-4.353253,-5.492594,4.416965,-0.724116,-0.126804,0.008750
14260,-4.491068,-4.485609,3.823781,-1.105641,-0.339696,-0.102600
14261,-3.830873,-4.390678,2.793457,-1.489102,-0.469624,-0.177563
14262,-2.809983,-5.506546,1.854808,-1.675494,-0.508775,-0.284447
14263,-1.980048,-8.322581,1.452035,-1.426530,-0.451103,-0.331086
14264,-1.542213,-11.053800,2.249358,-0.563267,-0.251359,-0.392672
14265,-1.670306,-10.806340,3.904670,0.679315,0.125200,-0.598976
14266,-1.978882,-8.271059,5.567686,1.430978,0.442601,-0.739286
14267,-2.237421,-5.075400,6.635557,1.528069,0.693667,-0.875071
14268,-2.316204,-3.096817,7.689921,0.769968,0.756563,-0.913159
14269,-2.495192,-4.366886,7.473703,-0.201289,0.702779,-0.904117
14270,-2.875388,-6.669003,6.213220,-0.855090,0.544867,-0.946034
14271,-3.341519,-7.831322,4.886089,-1.026330,0.298327,-1.017345
14272,-3.398931,-7.441531,4.567304,-1.211775,0.047427,-1.051253
14273,-3.529954,-6.599755,4.078459,-1.498748,-0.183235,-1.079420
14274,-3.765392,-6.388613,2.897207,-1.761654,-0.402215,-1.181489
14275,-3.165223,-7.063656,1.409428,-1.829950,-0.607969,-1.237415
14276,-2.453910,-8.404667,0.573928,-1.601215,-0.677274,-1.291871
14277,-1.747962,-10.367532,1.079805,-1.027012,-0.704538,-1.329308
14278,-1.583141,-11.532722,2.562594,-0.083043,-0.541772,-1.417124
14279,-1.607896,-9.964017,4.817751,0.666935,-0.312524,-1.509030
14280,-1.367930,-7.429955,6.484449,0.812009,-0.089446,-1.551927
14281,-1.407010,-5.139612,7.149215,0.274169,0.050051,-1.587279
14282,-1.477617,-5.573997,6.387200,-0.677902,0.054114,-1.573857
14283,-1.484812,-7.393406,5.583385,-1.381779,-0.008978,-1.584446
14284,-1.215929,-9.062233,4.919096,-1.830304,-0.089417,-1.572822
14285,-1.477726,-9.677021,3.750188,-2.130073,-0.214037,-1.548011
14286,-1.761779,-8.528901,1.747238,-2.297026,-0.362120,-1.540994
14287,-1.618779,-7.707278,0.642380,-2.429737,-0.472451,-1.585321
14288,-1.245809,-9.486011,0.710492,-2.299558,-0.536335,-1.542364
14289,-0.706636,-11.741915,1.940547,-1.818892,-0.512236,-1.507727
14290,-0.094582,-13.138881,3.630681,-1.024319,-0.333147,-1.501394
14291,-0.183904,-12.793884,4.354757,-0.230196,-0.135767,-1.439024
14292,-0.651985,-10.338573,4.636536,0.274919,-0.006739,-1.392345
14293,-1.135047,-8.143465,4.717824,0.267147,0.005191,-1.369113
14294,-1.206274,-7.236591,4.517586,0.017342,-0.070658,-1.371717
14295,-0.758026,-7.367372,4.355780,-0.214617,-0.145325,-1.412133
14296,-0.008680,-7.136914,4.574180,-0.389118,-0.203265,-1.465040
14297,0.698933,-6.723377,4.367129,-0.708487,-0.234478,-1.515616
14298,1.146827,-6.825809,4.108057,-1.093342,-0.272038,-1.549185
14299,1.355565,-7.332000,3.578127,-1.458826,-0.289706,-1.585502
14300,1.181057,-7.074454,2.288135,-1.738284,-0.364501,-1.646197
14301,1.384030,-7.244369,1.547401,-1.886027,-0.458826,-1.715050
14302,1.831434,-8.291123,1.284781,-1.834895,-0.466845,-1.752788
14303,2.081973,-9.068977,1.724840,-1.534132,-0.353553,-1.811783
14304,1.974841,-8.795143,2.530728,-1.202688,-0.187771,-1.853638
14305,1.841446,-8.184036,3.006231,-1.055423,-0.050353,-1.894969
14306,2.077757,-7.085036,3.449373,-1.164971,0.042062,-1.935620
14307,2.404539,-6.233879,3.034696,-1.613490,0.062279,-1.959631
14308,2.858613,-6.901985,2.380392,-2.131733,0.021381,-1.942601
14309,3.079887,-8.755373,1.306025,-2.411192,-0.071795,-1.910358
14310,2.967344,-10.034096,0.737570,-2.333564,-0.149684,-1.921180
14311,2.735411,-9.494463,-0.064648,-2.150096,-0.225054,-1.962523
14312,2.643823,-8.732648,-0.214142,-1.997654,-0.279279,-2.037734
14313,2.503021,-9.205486,-0.379445,-1.877133,-0.408799,-2.121461
14314,3.137414,-9.400741,-1.278621,-1.776858,-0.531944,-2.144324
14315,4.031646,-9.491094,-2.003056,-1.707019,-0.606381,-2.141378
14316,5.200214,-9.909717,-1.627063,-1.669579,-0.643352,-2.054689
14317,6.235960,-10.828664,-0.679009,-1.577924,-0.547404,-1.907348
14318,6.292321,-11.553437,-0.296081,-1.375509,-0.364223,-1.750158
14319,5.646176,-11.231598,0.136083,-1.112048,-0.183863,-1.602798
14320,4.885731,-10.248141,0.535877,-0.987724,-0.021235,-1.482590
14321,4.305183,-9.095907,0.973977,-0.985536,0.095751,-1.401940
14322,4.005913,-8.470202,1.161421,-1.054687,0.196900,-1.385415
14323,3.833433,-8.410168,0.844564,-0.991148,0.291906,-1.427828
14324,4.162285,-9.140485,0.139292,-0.651966,0.326223,-1.514330
14325,4.721517,-9.496249,-0.245784,-0.002090,0.341869,-1.615282
14326,4.946496,-8.705970,-0.237345,0.605888,0.326894,-1.712672
14327,5.276429,-7.357512,-0.162737,0.868334,0.269912,-1.780507
14328,6.146491,-6.484008,0.460318,0.693483,0.210279,-1.786974
14329,7.050516,-6.411007,1.128016,0.261333,0.240770,-1.732283
14330,7.360242,-6.386653,1.193733,-0.346481,0.335759,-1.651834
14331,7.553794,-6.338708,0.309290,-0.970977,0.370401,-1.597549
14332,7.845078,-7.465153,-2.603772,-1.368363,0.294525,-1.480544
14333,7.999405,-10.969294,-6.112239,-1.088742,0.162915,-1.257705
14334,7.317124,-15.680677,-8.261198,0.233775,0.153178,-1.152954
14335,6.052480,-17.812299,-8.347662,2.479935,0.060140,-1.289793
14336,5.488161,-14.903003,-5.550293,4.645094,-0.058061,-1.320813
14337,5.648058,-9.661885,-2.483484,6.083354,-0.026724,-1.523821
14338,6.764373,-4.573005,0.742916,6.451078,0.028198,-1.774850
14339,7.870282,0.058301,3.570626,5.875112,0.142201,-2.008875
14340,8.662009,3.533332,6.099171,4.202703,0.119590,-1.750032
14341,8.056411,2.384286,6.315051,1.898290,0.131215,-1.341558
14342,7.864075,-1.194105,5.631938,0.403254,0.134425,-1.176784
14343,7.664602,-4.332021,4.390686,-0.512297,0.101887,-1.067334
14344,7.686367,-6.020287,2.734330,-0.794233,0.053022,-1.276421
14345,8.842111,-5.669243,1.741683,-0.864778,-0.030932,-1.417961
14346,10.214101,-5.765938,1.809136,-0.946518,-0.131515,-1.402118
14347,10.896281,-5.658215,1.555420,-0.915738,-0.103678,-1.374662
14348,10.726259,-4.928658,0.926659,-0.917895,-0.122746,-1.326411
14349,10.419112,-4.494235,0.045258,-0.974467,-0.148217,-1.236364
14350,9.931452,-4.713560,-0.148179,-0.990145,-0.099649,-1.169808
14351,9.368200,-5.312001,0.520299,-0.889232,0.035502,-1.132969
14352,8.659742,-5.519665,1.910990,-0.699935,0.183488,-1.183128
14353,7.926965,-4.676761,2.537717,-0.550964,0.349787,-1.285198
14354,6.847842,-3.252035,2.580241,-0.617219,0.468150,-1.423419
14355,6.245341,-2.565310,2.319064,-0.871017,0.491614,-1.575250
14356,6.049714,-2.906373,1.777791,-1.095046,0.480936,-1.714138
14357,5.928256,-3.601452,1.005717,-1.117333,0.459371,-1.880492
14358,5.648401,-3.885151,0.168871,-0.956131,0.412038,-2.076609
14359,5.599518,-3.272561,-0.240640,-0.691128,0.353349,-2.330371
14360,6.296682,-2.675967,-0.121997,-0.488452,0.282441,-2.594974
14361,8.265791,-2.707649,0.533141,-0.350410,0.284898,-2.829279
14362,11.080193,-3.243628,1.091818,-0.298837,0.268675,-2.913047
14363,14.065730,-4.363590,0.998947,-0.282402,0.317660,-2.768505
14364,15.344049,-5.823225,0.401524,-0.066659,0.487138,-2.462282
14365,14.717163,-6.419193,0.451275,0.334154,0.650322,-2.166464
14366,13.473295,-5.653969,0.688185,0.638059,0.610288,-1.834466
14367,12.886971,-4.181581,0.829607,0.709640,0.502652,-1.546946
14368,12.577326,-2.598602,1.721916,0.530936,0.400873,-1.317749
14369,12.292244,-1.422713,2.443773,0.103797,0.271719,-1.087434
14370,11.852520,-1.014646,2.233038,-0.424889,0.157111,-0.844898
14371,11.775765,-1.403968,2.263172,-0.832787,0.085439,-0.694129
14372,11.889851,-2.384690,2.688028,-1.120314,0.066146,-0.549867
14373,11.307934,-3.543203,2.610982,-1.097320,0.062519,-0.428092
14374,10.619210,-4.324249,2.410024,-0.788792,0.065865,-0.347060
14375,10.138145,-4.775899,2.419585,-0.344838,0.047781,-0.278056
14376,9.820116,-4.631560,2.325909,0.154800,0.030872,-0.253611
14377,9.823580,-3.029844,2.447154,0.470766,0.036365,-0.260689
14378,9.898098,-1.240657,2.716944,0.455691,0.074017,-0.308115
14379,10.022590,0.155357,2.751724,0.097584,0.122104,-0.318000
14380,9.813333,0.739552,2.064302,-0.469686,0.132754,-0.258063
14381,9.746112,-0.415814,0.828529,-0.988752,0.109118,-0.178402
14382,9.741663,-2.262175,-0.166766,-1.128329,0.096062,-0.090828
14383,9.511014,-3.708461,-0.588093,-0.854200,0.104799,-0.053911
14384,9.102803,-3.700842,-0.213972,-0.342240,0.120559,-0.106268
14385,9.491061,-2.697489,1.275996,-0.032833,0.108684,-0.127896
14386,9.819038,-2.231673,2.355212,0.064365,0.103351,-0.121578
14387,9.756915,-1.763686,2.382549,0.106648,0.084147,-0.161273
14388,9.632192,-1.200938,2.376059,0.056836,0.046483,-0.201240
14389,9.814754,-1.270912,2.089688,-0.060795,0.020695,-0.199652
14390,10.000304,-1.302227,1.619005,-0.130539,0.015187,-0.196608
14391,9.959426,-1.383095,1.216584,-0.184289,0.032798,-0.173421
14392,9.845416,-1.276960,0.943981,-0.210904,0.031664,-0.147964
14393,9.682277,-1.350959,0.508333,-0.221006,0.019682,-0.136037
14394,9.614830,-1.490751,0.392650,-0.188278,0.003561,-0.113591
14395,9.563206,-1.351973,0.721994,-0.140777,0.001896,-0.106747
14396,9.540388,-1.380948,1.023363,-0.134819,-0.009516,-0.096754
14397,9.572645,-1.355169,1.278651,-0.144193,-0.010015,-0.078817
14398,9.711273,-1.080815,1.754622,-0.188576,-0.010498,-0.085139
14399,9.773488,-0.585294,2.026587,-0.319754,0.003293,-0.095635
14400,9.690608,-0.230279,1.977047,-0.532613,0.006309,-0.113886
14401,9.669822,-0.783378,1.528227,-0.747214,-0.005681,-0.105135
14402,9.710043,-1.694032,1.166401,-0.812148,-0.006517,-0.110433
14403,9.668502,-2.272365,0.946056,-0.715599,-0.000286,-0.122072
14404,9.720305,-2.107296,1.277808,-0.548340,0.012405,-0.152657
14405,9.735406,-1.808168,1.531959,-0.463805,0.016538,-0.161854
14406,9.709243,-1.626703,1.631122,-0.385381,0.029722,-0.179416
14407,9.579605,-1.902004,1.417516,-0.316795,0.008882,-0.191947
14408,9.677411,-2.369570,1.214932,-0.176378,-0.000923,-0.200083
14409,9.759741,-2.295890,1.135547,0.003661,-0.003013,-0.219026
14410,9.783289,-1.577392,1.136845,0.092133,-0.001389,-0.241923
14411,9.645245,-0.991938,1.208587,0.039929,0.010203,-0.254159
14412,9.395277,-1.024400,1.118244,-0.107102,0.008493,-0.248746
14413,8.873923,-1.641414,1.073707,-0.162903,-0.001629,-0.227419
14414,8.360408,-2.246255,1.197308,-0.072378,-0.046103,-0.195832
14415,8.601630,-2.324292,1.158083,0.070439,-0.101914,-0.152085
14416,9.347054,-2.210521,1.047471,0.156787,-0.136278,-0.068845
14417,10.047376,-1.774313,1.041151,0.159386,-0.148773,-0.007923
14418,10.436412,-1.299314,1.211494,0.096073,-0.126440,0.029706
14419,10.416778,-1.035165,1.416833,-0.035722,-0.099941,0.050376
14420,10.240897,-1.151156,1.563470,-0.194393,-0.060227,0.057435
14421,10.365673,-1.551248,1.935557,-0.349496,-0.039110,0.055661
14422,10.248730,-2.046635,1.872190,-0.397918,-0.014731,0.047190
14423,10.111026,-2.432671,1.641780,-0.345088,-0.009347,0.044614
14424,9.864093,-2.665284,1.436919,-0.207697,-0.016269,0.053707
14425,9.773161,-2.563912,1.390789,-0.015646,-0.037031,0.055474
14426,9.746320,-2.305128,1.384343,0.173452,-0.048084,0.048112
14427,9.707493,-1.904369,1.367351,0.310108,-0.070736,0.044559
14428,9.682088,-1.389945,1.442363,0.367608,-0.064864,0.044430
14429,9.747078,-0.955543,1.483705,0.317032,-0.061861,0.047831
14430,9.757796,-0.850226,1.504520,0.212938,-0.053188,0.047515
14431,9.758871,-0.836751,1.482552,0.104774,-0.036742,0.040787
14432,9.668270,-1.010964,1.431404,0.021437,-0.029369,0.037701
14433,9.673152,-1.225154,1.414867,-0.007247,-0.029666,0.031872
14434,9.728095,-1.412453,1.358948,0.011297,-0.025679,0.024111
14435,9.728181,-1.413813,1.356921,0.052582,-0.025279,0.012768
14436,9.776217,-1.433474,1.372900,0.093932,-0.023442,0.004227
14437,9.765234,-1.526015,1.295984,0.156064,-0.018198,-0.005412
14438,9.783727,-1.344045,1.347329,0.222632,-0.014646,-0.022529
14439,9.786232,-1.070273,1.407622,0.243627,-0.005288,-0.035267
14440,9.797897,-0.941853,1.413382,0.200335,0.000758,-0.042254
14441,9.850551,-0.890400,1.390732,0.130856,0.008405,-0.042945
14442,9.803658,-0.876570,1.428630,0.051113,0.015798,-0.044869
14443,9.798597,-0.925466,1.419341,-0.029839,0.021394,-0.039416
14444,9.648493,-1.185601,1.299662,-0.080727,0.010643,-0.027111
14445,9.544201,-1.485610,1.180888,-0.069570,0.004987,-0.015365
14446,9.580612,-1.640622,1.213664,-0.001186,-0.000505,-0.019632
14447,9.668537,-1.553372,1.409748,0.075519,0.000212,-0.025168
14448,9.777836,-1.447545,1.465080,0.113569,0.006475,-0.035596
14449,9.805439,-1.409700,1.463354,0.135896,0.019085,-0.046083
14450,9.858781,-1.342452,1.423441,0.141739,0.022552,-0.057456
14451,9.786194,-1.328152,1.430845,0.142651,0.041990,-0.062130
14452,9.732158,-1.384338,1.446132,0.126231,0.034316,-0.060202
14453,9.710151,-1.355817,1.467601,0.108627,0.048979,-0.055114
14454,9.734512,-1.351272,1.472651,0.094547,0.041864,-0.050706
14455,9.771321,-1.232541,1.567373,0.063893,0.046305,-0.048022
14456,9.898162,-1.169749,1.560955,0.007380,0.059275,-0.038979
14457,9.878621,-1.122318,1.632220,-0.071840,0.075345,-0.031169
14458,9.935265,-0.982586,1.533852,-0.180247,0.103564,-0.016909
14459,9.788211,-0.920467,1.401547,-0.303878,0.126619,-0.007886
14460,9.594056,-1.146271,1.320657,-0.384447,0.120440,-0.003260
14461,9.466376,-1.488778,1.333858,-0.401036,0.114492,-0.003047
14462,9.508863,-1.833039,1.286268,-0.328584,0.101512,-0.014277
14463,9.598548,-1.965627,1.440170,-0.204157,0.094473,-0.022122
14464,9.745905,-1.982660,1.565076,-0.088401,0.095860,-0.022391
14465,9.730957,-1.881207,1.686100,0.018669,0.106654,-0.023887
14466,9.769593,-1.689584,1.694903,0.088880,0.113106,-0.031612
14467,9.735988,-1.451386,1.580431,0.114041,0.112174,-0.038695
14468,9.740324,-1.330396,1.371872,0.088365,0.102373,-0.040007
14469,9.734156,-1.359276,1.229391,0.053249,0.087306,-0.029500
14470,9.681257,-1.390124,1.208072,0.024143,0.077877,-0.022701
14471,9.720448,-1.486959,1.137396,0.005975,0.057453,-0.008277
14472,9.781192,-1.633011,1.121847,0.021433,0.046054,0.003832
14473,9.726506,-1.697552,1.134831,0.076038,0.038334,0.008354
14474,9.707059,-1.626882,1.133041,0.131932,0.034089,0.010694
14475,9.713544,-1.550315,1.199696,0.174029,0.028858,0.010311
14476,9.644586,-1.489727,1.217595,0.189934,0.026533,0.005043
14477,9.648697,-1.434705,1.234104,0.191962,0.022127,0.005812
14478,9.611256,-1.299015,1.311180,0.182601,0.016632,-0.005325
14479,9.617089,-1.235329,1.394374,0.141169,0.012001,-0.002691
14480,9.636848,-1.288593,1.385407,0.106590,0.006034,-0.002754
14481,9.649475,-1.429659,1.368761,0.094888,0.000131,-0.002610
14482,9.672093,-1.449526,1.354498,0.099127,-0.005909,0.004478
14483,9.722547,-1.433335,1.369732,0.108101,-0.009602,0.003276
14484,9.720875,-1.451533,1.355175,0.116999,-0.013658,0.008806
14485,9.701089,-1.395277,1.366867,0.137631,-0.011562,0.007414
14486,9.731778,-1.323315,1.392929,0.148856,-0.015958,0.003715
14487,9.739937,-1.229576,1.434244,0.145772,-0.008147,-0.001618
14488,9.747654,-1.156496,1.582664,0.118452,-0.007001,-0.008290
14489,9.715686,-1.233565,1.489908,0.078833,0.001092,-0.006983
14490,9.661794,-1.285626,1.447087,0.063139,0.007790,-0.007105
14491,9.616926,-1.230844,1.424989,0.046932,0.001109,-0.014074
14492,9.666724,-1.217928,1.405818,0.037919,0.003543,-0.015599
14493,9.710026,-1.288360,1.415148,0.037979,0.006025,-0.010191
14494,9.677816,-1.376805,1.376335,0.045856,0.003662,-0.009790
14495,9.627541,-1.390415,1.362882,0.070666,-0.002734,-0.009481
14496,9.654819,-1.356204,1.358548,0.089731,-0.010251,-0.010736
14497,9.732337,-1.316698,1.421741,0.098719,-0.012748,-0.009228
14498,9.756924,-1.316420,1.421804,0.103467,-0.007559,-0.007433
14499,9.713153,-1.246562,1.379286,0.096508,-0.010639,-0.010805
14500,9.716150,-1.210143,1.374616,0.082757,-0.012203,-0.011439
14501,9.714521,-1.237108,1.413605,0.080748,-0.006454,-0.016354
14502,9.660730,-1.298980,1.423954,0.072720,-0.006424,-0.010709
14503,9.680135,-1.357051,1.379643,0.073676,-0.010599,-0.010963
14504,9.674330,-1.427729,1.354858,0.092797,-0.016156,-0.011540
14505,9.727598,-1.385874,1.417560,0.107405,-0.019133,-0.004453
14506,9.734074,-1.311005,1.441599,0.111855,-0.020817,-0.002702
14507,9.715456,-1.238748,1.431559,0.107374,-0.019750,-0.009207
14508,9.720260,-1.182880,1.440555,0.091419,-0.019839,-0.009351
14509,9.717236,-1.219479,1.410261,0.061821,-0.021116,-0.016817
14510,9.684631,-1.312773,1.336690,0.046286,-0.011001,-0.013566
14511,9.680518,-1.373753,1.380298,0.048511,-0.012966,-0.018753
14512,9.683619,-1.336966,1.374796,0.061054,-0.012693,-0.021988
14513,9.714513,-1.262822,1.398218,0.057702,-0.011175,-0.022644
14514,9.684535,-1.331268,1.373874,0.049540,-0.015138,-0.018324
14515,9.705846,-1.379239,1.397226,0.055015,-0.020178,-0.018816
14516,9.731595,-1.373504,1.429653,0.061614,-0.025313,-0.018194
14517,9.782534,-1.364724,1.495797,0.059424,-0.022608,-0.015040
14518,9.783040,-1.362595,1.494428,0.053769,-0.021151,-0.011183
14519,9.757451,-1.378263,1.478963,0.053806,-0.020410,-0.013212
14520,9.756204,-1.386306,1.409524,0.056140,-0.019089,-0.015036
14521,9.734051,-1.362429,1.423519,0.056379,-0.013520,-0.017750
14522,9.731876,-1.384912,1.374178,0.050526,-0.016880,-0.013204
14523,9.682680,-1.393909,1.393870,0.048459,-0.010837,-0.006686
14524,9.682130,-1.406847,1.413002,0.059611,-0.016102,-0.008348
14525,9.760623,-1.352005,1.454864,0.059886,-0.009253,-0.008375
14526,9.760867,-1.350422,1.454698,0.051907,-0.009635,-0.007407
14527,9.755851,-1.408304,1.411304,0.040622,-0.006647,0.000324
14528,9.729046,-1.439901,1.416844,0.038325,-0.007233,0.000120
14529,9.701352,-1.476724,1.388286,0.050759,-0.008518,0.000905
14530,9.725873,-1.486960,1.441756,0.069992,-0.010122,0.001623
14531,9.730331,-1.441417,1.504918,0.078112,-0.005716,0.001969
14532,9.752924,-1.462411,1.490828,0.082600,-0.005560,0.011129
14533,9.702459,-1.478141,1.477705,0.091477,-0.010168,0.011952
14534,9.731895,-1.411614,1.467129,0.105300,-0.005276,0.009076
14535,9.768280,-1.266197,1.513905,0.096231,-0.004285,0.011620
14536,9.793307,-1.253957,1.494566,0.067986,-0.000341,0.016147
14537,9.720872,-1.234988,1.476650,0.034124,0.004622,0.019836
14538,9.743139,-1.258291,1.462738,-0.003269,0.005789,0.018871
14539,9.735669,-1.339465,1.406719,-0.023168,0.019022,0.023032
14540,9.722034,-1.503270,1.381686,-0.023499,0.011400,0.025108
14541,9.694442,-1.529478,1.334613,0.001421,0.011337,0.032041
14542,9.676600,-1.451138,1.393297,0.027524,0.010294,0.023915
14543,9.706607,-1.381660,1.417341,0.035396,0.009114,0.026986
14544,9.706097,-1.383822,1.418727,0.030890,0.010008,0.027248
14545,9.729005,-1.393381,1.385896,0.037807,0.012447,0.025809
14546,9.727643,-1.409216,1.407448,0.047980,0.010734,0.019648
14547,9.760436,-1.305059,1.426196,0.060429,0.010667,0.023111
14548,9.737493,-1.284299,1.442547,0.044690,0.012470,0.012245
14549,9.733484,-1.324917,1.416099,0.029006,0.018510,0.020890
14550,9.703324,-1.383695,1.375612,0.024219,0.012005,0.016499
14551,9.678631,-1.382743,1.377431,0.026517,0.012016,0.011981
14552,9.703568,-1.371218,1.358774,0.034392,0.010274,0.010342
14553,9.751892,-1.384431,1.413503,0.027553,0.009876,0.012435
14554,9.699295,-1.421013,1.387167,0.031001,0.011633,0.016426
14555,9.652093,-1.398191,1.403278,0.033087,0.006816,0.012629
14556,9.678920,-1.366895,1.398198,0.037418,0.001814,0.011057
14557,9.709399,-1.295689,1.421376,0.042089,0.004415,0.007389
14558,9.734511,-1.291903,1.455817,0.032853,-0.000419,0.001240
14559,9.708381,-1.301004,1.388720,0.021862,0.007720,0.001495
14560,9.681232,-1.332387,1.395893,0.014140,0.011146,-0.007670
14561,9.701931,-1.372759,1.368867,0.023439,0.015607,-0.012977
14562,9.678467,-1.362995,1.405123,0.038237,0.015714,-0.020768
14563,9.680287,-1.340593,1.421467,0.047390,0.017934,-0.019990
14564,9.700186,-1.393616,1.415112,0.056296,0.014033,-0.021166
14565,9.681384,-1.320802,1.405811,0.067488,0.010683,-0.022148
14566,9.737208,-1.242322,1.463719,0.068681,0.012605,-0.020392
14567,9.810360,-1.245027,1.464670,0.054875,0.006641,-0.026927
14568,9.758338,-1.285585,1.492232,0.049172,0.005602,-0.028433
14569,9.756880,-1.302016,1.479275,0.040097,0.005402,-0.028566
14570,9.756194,-1.312553,1.500721,0.031482,0.015573,-0.032203
14571,9.731300,-1.312765,1.468601,0.020009,0.011477,-0.035855
14572,9.703637,-1.355062,1.496476,0.024817,0.018700,-0.033528
14573,9.698732,-1.410849,1.456466,0.018091,0.019222,-0.040211
14574,9.672011,-1.438776,1.465016,0.029552,0.023300,-0.036564
14575,9.699183,-1.402527,1.461497,0.034055,0.021785,-0.041538
14576,9.724712,-1.385963,1.443759,0.033926,0.018997,-0.040155
14577,9.752601,-1.343770,1.474175,0.032985,0.024457,-0.037303
14578,9.726755,-1.357808,1.463021,0.026079,0.022042,-0.035857
14579,9.704212,-1.332137,1.479780,0.022745,0.023598,-0.036524
14580,9.725433,-1.369979,1.454122,0.020456,0.023029,-0.036722
14581,9.697292,-1.410166,1.394817,0.022691,0.022848,-0.034496
14582,9.672885,-1.412651,1.451648,0.035155,0.023499,-0.033055
14583,9.678057,-1.341040,1.442366,0.044139,0.021635,-0.033567
14584,9.725299,-1.360767,1.430684,0.047462,0.020051,-0.032905
14585,9.697703,-1.403075,1.459370,0.049577,0.017100,-0.029288
14586,9.747497,-1.389239,1.441154,0.049380,0.012279,-0.028541
14587,9.721482,-1.412037,1.483464,0.053995,0.016009,-0.022802
14588,9.725885,-1.347382,1.439345,0.047024,0.011559,-0.021995
14589,9.699132,-1.376904,1.447587,0.040413,0.017316,-0.017982
14590,9.726879,-1.328726,1.423171,0.030001,0.011681,-0.016444
14591,9.705615,-1.285231,1.452803,0.017665,0.015696,-0.011899
14592,9.700924,-1.343872,1.412675,0.006325,0.014953,-0.012232
14593,9.699969,-1.356331,1.434371,0.015426,0.015855,-0.014131
14594,9.696964,-1.394308,1.408065,0.025453,0.009953,-0.021547
14595,9.672740,-1.390154,1.409673,0.042424,0.010997,-0.017674
14596,9.699656,-1.355403,1.405070,0.055987,0.009635,-0.022503
14597,9.698886,-1.366477,1.426854,0.060453,0.009291,-0.018045
14598,9.702672,-1.317417,1.490130,0.059234,0.005988,-0.022479
14599,9.655058,-1.297190,1.471635,0.058089,0.006658,-0.018887
14600,9.653678,-1.314853,1.459083,0.052340,0.005508,-0.013643
14601,9.632188,-1.269577,1.399801,0.048756,0.000224,-0.014188
14602,9.679239,-1.298877,1.440372,0.041892,-0.000835,-0.010057
14603,9.702242,-1.319221,1.426787,0.037286,-0.002663,-0.008405
14604,9.703832,-1.298230,1.440800,0.037175,-0.003481,0.000385
14605,9.753187,-1.294615,1.474858,0.028370,0.001236,-0.007274
14606,9.752639,-1.300129,1.441328,0.018140,0.001049,-0.001772
14607,9.724967,-1.345710,1.468351,0.014835,0.003946,0.000227
14608,9.675614,-1.348399,1.435141,0.019280,0.002296,0.002016
14609,9.679122,-1.301884,1.497121,0.018118,0.001662,0.002939
14610,9.679951,-1.288390,1.477226,0.014589,-0.000946,0.007751
14611,9.701804,-1.324834,1.483389,0.009897,-0.004185,0.013487
14612,9.676426,-1.338055,1.503350,0.016620,-0.005286,0.015467
14613,9.726858,-1.315016,1.462518,0.021128,-0.006848,0.010504
14614,9.675622,-1.346343,1.469015,0.025802,-0.001047,0.016862
14615,9.703752,-1.294997,1.476487,0.032562,-0.003394,0.009417
14616,9.702201,-1.315353,1.462771,0.039302,-0.005125,0.006683
14617,9.728052,-1.296916,1.476577,0.037179,-0.002218,0.003042
14618,9.753282,-1.284507,1.456892,0.032963,0.004936,-0.001567
14619,9.752326,-1.297653,1.477879,0.035125,0.002727,0.000031
14620,9.754403,-1.270498,1.526295,0.035167,0.003430,-0.002011
14621,9.705968,-1.259111,1.473177,0.019428,0.005719,-0.001450
14622,9.708309,-1.224837,1.467617,0.018380,0.007840,-0.001936
14623,9.704347,-1.278252,1.461054,0.012570,0.002740,-0.004689
14624,9.704369,-1.277727,1.461363,0.007970,0.000936,-0.003027
14625,9.700500,-1.331207,1.454184,0.012387,-0.002055,-0.003907
14626,9.675328,-1.342423,1.474525,0.027074,-0.002231,-0.004956
14627,9.701306,-1.323020,1.488258,0.034928,-0.004053,-0.006573
14628,9.704729,-1.274415,1.461866,0.037341,0.000572,-0.005129
14629,9.678401,-1.298229,1.414492,0.039295,-0.007767,-0.005414
14630,9.728731,-1.280641,1.427988,0.030460,-0.001786,-0.003658
14631,9.727958,-1.293308,1.448198,0.032573,-0.006668,-0.007395
14632,9.730511,-1.258467,1.441565,0.024788,-0.002805,-0.005152
14633,9.756449,-1.239329,1.455183,0.014658,-0.001527,-0.003723
14634,9.755070,-1.258721,1.441364,-0.000030,-0.003309,-0.010048
14635,9.703497,-1.294859,1.413988,-0.007858,-0.000146,-0.005761
14636,9.751090,-1.318620,1.488013,-0.003373,-0.001099,-0.006013
14637,9.749142,-1.344678,1.440028,-0.001303,-0.006684,-0.007706
14638,9.749957,-1.337162,1.473407,0.002221,-0.004103,-0.012530
14639,9.725223,-1.340851,1.439151,0.006618,-0.006466,-0.008698
14640,9.723025,-1.373687,1.445386,0.012399,-0.002706,-0.008623
14641,9.724676,-1.352389,1.459040,0.014719,-0.001456,-0.010478
14642,9.730167,-1.277128,1.479891,0.012467,-0.000664,-0.007997
14643,9.727028,-1.323569,1.506794,0.005749,0.000446,-0.009975
14644,9.726563,-1.328847,1.473128,0.008112,0.002400,-0.013872
14645,9.677137,-1.337143,1.494204,0.017388,0.007398,-0.021294
14646,9.700222,-1.356705,1.481203,0.018368,0.003226,-0.021432
14647,9.723317,-1.376149,1.468318,0.027580,0.008154,-0.022102
14648,9.675705,-1.356281,1.449457,0.042232,0.006615,-0.025830
14649,9.748120,-1.371939,1.470783,0.051286,0.008083,-0.023044
14650,9.730041,-1.279348,1.472941,0.055940,0.011904,-0.024094
14651,9.709294,-1.227358,1.535990,0.040228,0.013560,-0.028242
14652,9.757829,-1.227421,1.449665,0.024481,0.016513,-0.022966
14653,9.730892,-1.263993,1.512419,0.010964,0.017325,-0.022839
14654,9.724356,-1.356022,1.480115,-0.001352,0.019457,-0.025686
14655,9.742222,-1.449701,1.447859,0.004310,0.020467,-0.024198
14656,9.743692,-1.426955,1.463567,0.023423,0.018619,-0.023459
14657,9.697269,-1.387335,1.459328,0.035863,0.020568,-0.019366
14658,9.729768,-1.265246,1.455259,0.026808,0.021072,-0.014782
14659,9.729636,-1.263736,1.457452,0.008660,0.019398,-0.010947
14660,9.702329,-1.301885,1.432086,-0.007300,0.016881,-0.002835
14661,9.699332,-1.342201,1.406614,-0.016161,0.021524,-0.003764
14662,9.724468,-1.330159,1.476062,-0.009488,0.017723,-0.007113
14663,9.678236,-1.285714,1.416939,-0.010584,0.019143,-0.005563
14664,9.678515,-1.278671,1.452503,-0.018458,0.019620,-0.006623
14665,9.674235,-1.339062,1.413139,-0.023112,0.015784,-0.005579
14666,9.672233,-1.365961,1.366805,-0.022086,0.014313,-0.000374
14667,9.697338,-1.354159,1.347492,-0.018780,0.011393,-0.002359
14668,9.748643,-1.317277,1.375398,-0.016701,0.007805,0.003340
