// Start Time: Unknown
// Update Rate: 100.0Hz
// Filter Profile: human (46.1)
// Firmware Version: 4.3.5
PacketCounter,Acc_X,Acc_Y,Acc_Z,Gyr_X,Gyr_Y,Gyr_Z
28744,9.338495,-2.708111,1.792217,-0.000466,0.013870,0.007096
28745,9.342400,-2.756383,1.803335,0.003324,0.005368,0.008652
28746,9.339963,-2.733150,1.798928,0.007517,0.006102,0.005162
28747,9.333404,-2.705259,1.818036,0.012183,0.001013,0.010921
28748,9.329011,-2.701273,1.841931,0.008262,-0.000643,0.008074
28749,9.348595,-2.694323,1.869430,0.006461,0.002443,0.009144
28750,9.337860,-2.618893,1.877852,0.001527,-0.002165,0.005265
28751,9.346114,-2.671783,1.864278,-0.001423,-0.001571,0.008470
28752,9.343959,-2.691435,1.892952,-0.001706,0.001922,0.002920
28753,9.348086,-2.696209,1.869256,-0.006734,-0.001520,-0.002808
28754,9.339891,-2.686597,1.916449,-0.001757,0.003791,-0.003947
28755,9.342116,-2.709890,1.921786,-0.000052,0.001869,-0.006867
28756,9.338135,-2.704480,1.945660,-0.001715,0.004494,-0.008965
28757,9.322564,-2.716014,1.895319,0.000867,0.005985,-0.007685
28758,9.294679,-2.713276,1.915638,0.000221,0.000946,-0.013205
28759,9.342858,-2.706390,1.923110,-0.001717,0.004493,-0.008967
28760,9.321023,-2.689270,1.891502,0.000350,0.011101,-0.011919
28761,9.325559,-2.735485,1.902417,-0.001539,0.004732,-0.017156
28762,9.352021,-2.754784,1.911643,0.001042,0.006223,-0.015876
28763,9.350258,-2.729233,1.907175,0.005465,0.005330,-0.020686
28764,9.357056,-2.755567,1.889330,0.006938,0.005031,-0.022291
28765,9.307700,-2.778300,1.911362,0.007168,0.003402,-0.023612
28766,9.312375,-2.780831,1.888359,0.011182,0.003896,-0.018915
28767,9.312839,-2.778827,1.889019,0.015564,0.002302,-0.018706
28768,9.361322,-2.770869,1.896440,0.013966,-0.007559,-0.018389
28769,9.335942,-2.790968,1.921665,0.018468,0.001003,-0.016897
28770,9.332307,-2.784181,1.945756,0.021743,-0.002385,-0.019575
28771,9.360990,-2.783703,1.926196,0.023079,-0.002222,-0.018012
28772,9.367906,-2.809904,1.908287,0.028603,-0.001329,-0.019946
28773,9.344557,-2.810295,1.905528,0.029645,0.002313,-0.023946
28774,9.380411,-2.744326,1.950724,0.032586,0.001706,-0.027164
28775,9.365641,-2.796521,1.935284,0.037174,0.009104,-0.023833
28776,9.361986,-2.789022,1.960390,0.032306,0.002627,-0.020834
28777,9.344856,-2.818236,1.939572,0.034843,0.003429,-0.014535
28778,9.314855,-2.790702,1.955689,0.037648,0.003289,-0.014582
28779,9.323468,-2.798440,1.909754,0.039277,-0.000021,-0.007457
28780,9.347609,-2.793955,1.914563,0.046228,-0.000127,-0.005982
28781,9.365576,-2.803776,1.971874,0.048896,0.000202,-0.002861
28782,9.339409,-2.781998,1.964492,0.047184,0.002126,0.000053
28783,9.361120,-2.754198,1.964350,0.040124,0.003373,-0.003292
28784,9.383053,-2.769173,1.998416,0.039420,0.008258,0.000648
28785,9.361075,-2.795453,2.001961,0.030527,0.011923,0.003403
28786,9.342904,-2.784349,1.947660,0.028245,0.006960,0.007700
28787,9.351058,-2.837073,1.936304,0.028878,0.012020,0.013203
28788,9.352668,-2.861565,1.943418,0.030542,0.009399,0.015305
28789,9.356131,-2.867355,1.921932,0.038257,0.013871,0.019106
28790,9.359536,-2.873198,1.900699,0.048567,0.009195,0.019755
28791,9.364984,-2.903018,1.885246,0.065654,0.015512,0.029451
28792,9.320201,-2.915332,1.857644,0.080553,0.007573,0.028974
28793,9.314761,-2.869297,1.850067,0.091798,0.005137,0.035636
28794,9.283325,-2.845254,1.867763,0.094569,0.004945,0.035543
28795,9.308213,-2.825091,1.845377,0.090824,0.000940,0.036395
28796,9.304963,-2.803264,1.842563,0.089418,0.000059,0.039820
28797,9.281964,-2.832322,1.846833,0.082178,0.001116,0.044655
28798,9.326376,-2.805516,1.851030,0.077742,0.002029,0.049443
28799,9.320822,-2.803656,1.876656,0.072673,-0.002124,0.048759
28800,9.363044,-2.796300,1.909494,0.071673,0.003717,0.058968
28801,9.368640,-2.734888,1.974566,0.058444,-0.001594,0.057150
28802,9.451297,-2.617785,2.142609,0.054055,0.010648,0.061279
28803,9.523341,-2.509296,2.387440,0.030284,0.024191,0.057613
28804,9.695808,-2.426124,2.810204,0.012759,0.068730,0.044189
28805,9.941928,-2.052790,3.162160,-0.062894,0.132317,0.041646
28806,9.934988,-1.668541,3.677009,-0.200832,0.251073,0.034236
28807,9.621209,-1.304688,3.593148,-0.376466,0.382059,0.004770
28808,9.030474,-0.266074,3.628941,-0.672997,0.475699,-0.021344
28809,8.851925,0.799843,3.701679,-1.168326,0.528596,-0.068724
28810,9.115722,0.736601,3.569821,-1.792200,0.604518,-0.094670
28811,9.451868,-0.092643,3.386607,-2.398609,0.691018,-0.108894
28812,9.591751,-1.326856,3.265677,-2.870854,0.778760,-0.115347
28813,9.492948,-2.460254,2.866574,-3.148104,0.824776,-0.125285
28814,9.471297,-3.758779,2.172918,-3.268194,0.805905,-0.125023
28815,9.130089,-6.657800,0.582824,-2.968979,0.706234,-0.098809
28816,8.450627,-11.825723,-1.126158,-1.689501,0.508587,-0.099249
28817,7.872194,-16.201643,-0.504101,0.564349,0.238915,-0.111746
28818,8.714302,-16.538862,1.505595,3.163000,-0.009095,-0.035689
28819,9.572201,-11.549432,1.893589,5.133356,-0.161771,0.109448
28820,9.507867,-5.431174,1.856103,5.937535,-0.294005,0.308472
28821,9.639111,-1.688359,2.020842,5.753434,-0.378817,0.498377
28822,9.938698,0.099874,2.315015,4.989938,-0.354993,0.625027
28823,10.081830,0.786993,2.930048,3.993968,-0.243489,0.675603
28824,10.186666,1.579429,4.079881,2.871107,-0.061811,0.677492
28825,9.882267,2.729515,4.392950,1.526243,0.165832,0.649786
28826,9.691105,3.232692,4.023686,0.136178,0.424447,0.553685
28827,9.558341,3.107864,2.992358,-1.170054,0.715117,0.399598
28828,8.981172,2.226760,1.323433,-2.248963,0.929598,0.226724
28829,8.547371,0.420005,0.714505,-2.966124,1.098203,0.070833
28830,8.366036,-1.652028,0.819202,-3.379359,1.212278,-0.011012
28831,8.551093,-3.332803,0.891607,-3.554050,1.238974,-0.023140
28832,8.930927,-3.757842,0.865591,-3.632516,1.209835,0.013682
28833,9.389041,-3.948908,0.744185,-3.705275,1.193950,0.066385
28834,9.076132,-5.575082,-0.348719,-3.573737,1.069029,0.121610
28835,8.507761,-8.729211,-0.015424,-2.818403,0.870638,0.149738
28836,8.104954,-11.248711,0.906077,-1.517518,0.591284,0.193590
28837,7.987858,-12.647122,1.437515,0.149036,0.240036,0.291003
28838,8.610125,-11.892740,1.875078,1.849950,-0.073688,0.431815
28839,9.172241,-8.883354,2.179272,3.150367,-0.291145,0.591098
28840,9.417143,-4.867875,2.904427,3.709803,-0.411167,0.754728
28841,9.609761,-0.714535,3.683554,3.398165,-0.354436,0.869632
28842,9.294990,2.741638,4.022724,2.314415,-0.152092,0.888349
28843,8.751362,3.971760,2.828049,0.739696,0.083805,0.846487
28844,8.562224,2.569108,1.954507,-0.733516,0.353649,0.703584
28845,8.388599,0.826170,2.160689,-1.919781,0.635695,0.483180
28846,8.337132,-0.902954,2.111040,-2.748364,0.820579,0.321015
28847,8.563450,-1.718145,2.032340,-3.337611,0.902600,0.208338
28848,8.520260,-2.196053,1.342051,-3.894704,0.930760,0.201332
28849,7.821309,-5.098561,-0.575723,-4.126377,0.803683,0.260703
28850,7.171685,-11.146742,-0.118472,-3.225493,0.681595,0.222651
28851,6.240975,-15.119760,1.967060,-1.298267,0.387500,0.254809
28852,6.506598,-16.155055,4.134679,1.146182,-0.139437,0.377666
28853,8.891561,-13.239161,5.395312,3.294792,-0.478710,0.632673
28854,10.303661,-9.160104,4.956718,4.566410,-0.604659,0.937727
28855,10.223848,-6.167564,3.968216,5.015752,-0.627737,1.210127
28856,9.955926,-4.133608,3.261763,4.796237,-0.646403,1.413777
28857,10.378771,-3.018873,3.737295,4.120825,-0.547900,1.561356
28858,10.497026,-1.210601,4.869746,3.096759,-0.333394,1.600594
28859,10.048093,0.764366,5.698656,1.839603,-0.044352,1.570487
28860,9.041229,2.884659,4.742016,0.493100,0.252734,1.387812
28861,8.171859,3.531687,2.434529,-0.819407,0.494046,1.185610
28862,7.927243,1.563065,1.571567,-1.859964,0.714292,0.988392
28863,7.700319,-1.178665,2.529367,-2.548429,0.895862,0.838092
28864,7.883070,-3.069719,3.652238,-2.995624,0.961720,0.786126
28865,8.007236,-4.174601,4.036613,-3.352787,1.001196,0.804958
28866,7.448593,-4.543699,2.806795,-3.666182,0.956716,0.848900
28867,6.084927,-6.612906,0.503537,-3.691592,0.741515,0.928249
28868,4.949466,-10.447160,0.444274,-2.865290,0.471700,0.923104
28869,4.935127,-14.554469,1.408765,-1.150454,0.098889,0.861422
28870,6.432030,-16.386062,4.171175,1.317239,-0.223229,0.761116
28871,7.877799,-13.564751,5.205361,3.522650,-0.483667,0.815209
28872,8.527547,-8.987064,4.751140,4.855007,-0.619217,0.930246
28873,8.622159,-5.864930,4.056731,5.344633,-0.713147,1.068820
28874,9.122547,-3.961971,4.372597,5.307029,-0.677802,1.151141
28875,9.044341,-1.619962,5.762223,4.775520,-0.460683,1.137557
28876,8.114837,0.410270,6.086281,3.678828,-0.190538,1.045166
28877,7.656309,0.741009,4.912846,2.303480,0.088112,0.903092
28878,7.903118,0.482157,3.565027,1.008867,0.431665,0.655587
28879,7.759888,0.843157,2.950826,-0.122906,0.782875,0.328311
28880,7.248717,0.965026,3.212458,-1.191962,0.982981,0.049291
28881,7.064204,0.140277,4.178732,-2.275902,1.104166,-0.069926
28882,6.999685,-2.228543,3.428570,-3.304230,1.110711,-0.015280
28883,5.227316,-7.175476,0.883556,-3.690445,0.922506,0.127068
28884,3.556666,-12.604086,1.263078,-2.849524,0.588320,0.192254
28885,4.001286,-17.233181,4.540555,-0.780772,0.198303,0.200988
28886,5.766190,-17.935695,7.188113,1.954116,-0.190151,0.264677
28887,7.201148,-14.139970,7.283780,4.259018,-0.430660,0.508408
28888,7.742024,-9.823746,7.171388,5.568740,-0.514154,0.780736
28889,8.176902,-6.860445,7.448389,6.006094,-0.433558,0.964044
28890,8.111093,-3.880281,8.055995,5.715647,-0.231857,0.955516
28891,7.294602,-1.624503,7.227874,4.764175,0.013023,0.867997
28892,7.064888,-0.787754,5.487270,3.497402,0.239489,0.738150
28893,7.792211,1.209004,5.975477,2.150772,0.616444,0.457298
28894,7.929980,3.827346,6.874504,0.546175,0.974642,0.075254
28895,7.950325,4.938701,6.686296,-1.384649,1.241507,-0.149924
28896,7.903988,3.487046,6.700486,-3.343161,1.497121,-0.183579
28897,8.157893,-0.520469,5.909763,-4.939213,1.706925,-0.044369
28898,6.906379,-5.367587,2.658624,-5.805329,1.724296,0.184335
28899,4.302174,-10.512111,-0.256318,-5.684573,1.442374,0.491224
28900,2.691380,-15.563878,1.156610,-4.195922,1.077538,0.618955
28901,3.421644,-19.885370,4.819356,-1.549633,0.716087,0.643922
28902,5.753988,-19.266964,6.259360,1.554078,0.294676,0.734919
28903,7.208304,-13.497122,6.300509,3.829277,0.077324,0.931407
28904,7.058272,-7.819276,6.184285,4.821466,-0.005501,1.139719
28905,7.212790,-4.900646,6.126224,4.879633,0.051782,1.226021
28906,6.782714,-3.298385,6.465975,4.435425,0.220196,1.173555
28907,5.850784,-1.565292,7.428493,3.569170,0.326645,1.072457
28908,5.321899,-0.625712,7.775082,2.322373,0.467446,0.990154
28909,6.002472,-1.088170,7.212508,0.994820,0.680915,0.876318
28910,6.245157,-0.625077,6.610423,-0.203868,0.971540,0.649650
28911,5.732689,-0.563472,5.485161,-1.312586,1.187440,0.434216
28912,5.495630,-1.207668,5.181993,-2.195373,1.301590,0.274098
28913,5.027655,-2.285468,5.043105,-2.844889,1.368301,0.178648
28914,4.270239,-4.129811,4.195277,-3.350941,1.289609,0.251169
28915,3.396143,-7.464310,3.411393,-3.490759,1.164102,0.394165
28916,2.642959,-11.863447,3.469769,-2.922256,0.933671,0.547884
28917,2.770353,-14.922874,4.948538,-1.555378,0.599066,0.625362
28918,3.816147,-15.785719,5.756611,0.215726,0.268948,0.703267
28919,4.355353,-14.188048,5.792237,1.991624,0.007325,0.824069
28920,4.105623,-11.811232,5.996210,3.373275,-0.194578,0.979497
28921,4.149333,-10.526357,6.709466,4.474787,-0.300633,1.093252
28922,4.646893,-9.515475,7.490470,5.378977,-0.356473,1.159437
28923,5.414310,-7.145935,8.825670,5.945506,-0.279930,1.179638
28924,5.291625,-3.553595,10.323370,5.881120,-0.065165,1.149705
28925,4.742355,-1.701132,9.678918,5.088446,0.169607,1.134213
28926,4.813421,-1.168713,8.333109,3.960971,0.373425,1.006289
28927,5.226886,0.637463,8.791973,2.773912,0.687354,0.691389
28928,4.969596,3.532600,9.675145,1.431681,0.969364,0.299216
28929,5.275623,5.497475,10.206518,-0.290173,1.277085,-0.004522
28930,5.322779,4.337100,9.227935,-2.217146,1.516492,-0.078783
28931,4.539627,-0.337103,6.963774,-3.770695,1.597133,0.085834
28932,3.067480,-6.622313,5.666675,-4.313822,1.511261,0.310399
28933,2.218890,-11.712419,6.498316,-3.638718,1.285684,0.477724
28934,2.524812,-14.425180,7.245046,-2.123500,0.942282,0.633352
28935,3.716834,-14.437459,8.050251,-0.215878,0.688334,0.811038
28936,4.071703,-12.224706,7.705045,1.526983,0.521269,0.999621
28937,3.876436,-9.384873,7.404058,2.812382,0.394072,1.154888
28938,4.033476,-7.135931,7.501793,3.591089,0.353591,1.204130
28939,4.287288,-5.091205,8.273834,3.966911,0.406835,1.175767
28940,4.137873,-2.516032,9.027420,3.857680,0.499557,1.137978
28941,3.703219,-0.348555,9.361384,3.183320,0.605488,1.139022
28942,3.348573,0.307436,8.751753,2.161038,0.729447,1.092154
28943,3.232566,0.389303,8.286146,1.127473,0.876976,0.909639
28944,3.366944,0.998138,8.198344,0.202155,1.073672,0.621170
28945,3.558880,2.004145,7.973175,-0.749368,1.254548,0.362710
28946,3.469109,2.134195,7.676737,-1.800472,1.418835,0.196533
28947,2.637921,1.207164,6.808078,-2.887627,1.487442,0.140785
28948,1.380941,-1.926002,5.628420,-3.706694,1.403884,0.228512
28949,0.236575,-6.816799,4.883886,-3.804857,1.194402,0.402752
28950,0.031256,-12.760081,5.745184,-2.719394,0.977085,0.558748
28951,0.787389,-15.905058,7.970014,-0.558582,0.685292,0.618570
28952,1.811803,-14.831695,8.344687,1.807323,0.426713,0.756331
28953,1.898632,-11.515863,7.381466,3.602514,0.203575,1.027180
28954,1.860406,-8.708091,7.657258,4.777027,0.099216,1.225596
28955,2.187533,-6.443520,8.461689,5.444991,0.118039,1.309154
28956,1.962983,-3.879831,9.543337,5.712188,0.232335,1.296977
28957,1.552577,-0.189832,11.141086,5.454857,0.397511,1.238638
28958,1.191191,3.819698,12.043197,4.505984,0.599716,1.127536
28959,0.947480,6.045672,11.027380,2.881779,0.763263,0.989829
28960,1.009949,5.433911,10.190294,1.082015,0.914177,0.820948
28961,1.543870,3.703949,10.115779,-0.381336,1.071820,0.574561
28962,1.934128,2.715934,10.360900,-1.412597,1.274381,0.259901
28963,1.630352,2.127679,10.495007,-2.181627,1.497260,-0.009896
28964,0.908653,1.343378,10.074235,-2.780543,1.663250,-0.204692
28965,-0.302540,-0.867002,8.088783,-3.256570,1.656238,-0.250398
28966,-1.957613,-4.664414,6.397109,-3.395481,1.430464,-0.115995
28967,-2.386359,-9.955911,6.888790,-2.715950,1.127120,0.086174
28968,-1.440720,-13.713227,9.008853,-1.060497,0.860827,0.202293
28969,-0.347721,-13.427606,10.176421,1.077190,0.659273,0.292935
28970,-0.268462,-9.621710,10.094427,2.860601,0.444298,0.473718
28971,0.009696,-6.072707,9.565058,3.835265,0.319955,0.662065
28972,0.277453,-4.310207,9.825184,4.310737,0.286993,0.816380
28973,0.196395,-2.053704,10.696762,4.376196,0.316334,0.804934
28974,0.126361,0.695379,10.750573,3.954452,0.390224,0.774799
28975,0.240975,2.769662,10.450889,3.115920,0.511414,0.736966
28976,0.198127,3.830458,9.941825,2.067117,0.626483,0.656820
28977,0.314126,4.258895,9.905485,1.036746,0.776107,0.487753
28978,0.376560,4.918291,10.265866,0.059800,0.949955,0.239682
28979,0.829279,6.146321,10.622559,-0.956655,1.200207,-0.070682
28980,1.412807,7.417099,10.280840,-2.237342,1.527309,-0.382703
28981,1.208329,7.863236,9.153837,-3.692156,1.840293,-0.688772
28982,1.049619,7.457152,7.892811,-5.260643,2.141892,-0.959024
28983,0.679447,5.815648,5.687432,-6.863504,2.342056,-1.132106
28984,-0.458774,3.490732,2.446429,-8.408456,2.347910,-1.125512
28985,-3.396974,-0.160171,-1.874565,-9.779231,1.982734,-0.854272
28986,-5.541407,-6.071325,-2.297004,-10.295661,1.488835,-0.515282
28987,-5.165819,-14.322032,1.133067,-9.297209,1.221780,-0.406446
28988,-2.861595,-20.239286,4.726503,-6.809697,0.910568,-0.392044
28989,-1.957915,-20.515258,5.491167,-3.638854,0.557467,-0.206325
28990,-2.264531,-16.730848,5.976535,-0.787412,0.216964,0.026848
28991,-1.733497,-13.346985,6.184761,1.299253,0.041439,0.172886
28992,-1.605734,-10.582734,6.034831,2.770383,-0.053706,0.231293
28993,-2.072967,-6.730256,7.047471,3.540245,-0.154079,0.286977
28994,-1.883168,-2.492093,8.136312,3.330938,-0.143417,0.301209
28995,-1.787397,1.703901,8.289908,2.222504,-0.068936,0.263917
28996,-1.102070,5.319581,7.942168,0.287609,0.098902,0.224203
28997,-0.271719,7.587644,6.587164,-2.197859,0.413698,0.107722
28998,0.192425,7.641991,5.373396,-4.803656,0.789034,-0.064024
28999,0.047455,5.183266,4.308283,-7.211626,1.159076,-0.158940
29000,-0.121458,2.091490,2.110927,-9.237815,1.428248,-0.172772
29001,-0.745008,-0.523580,-0.377258,-10.872717,1.634948,-0.108920
29002,-1.491318,-3.307589,-3.554371,-12.069992,1.663368,0.052951
29003,-3.329290,-5.905130,-6.720784,-12.768965,1.531414,0.191525
29004,-5.215497,-11.483618,-6.517270,-12.513373,1.214709,0.291549
29005,-5.121820,-16.436539,-4.886857,-11.372309,0.873904,0.350438
29006,-3.844061,-17.900858,-3.636738,-9.572048,0.634779,0.410945
29007,-3.034281,-17.132475,-2.355468,-7.482925,0.490774,0.428491
29008,-2.579156,-15.185308,-1.826471,-5.530104,0.374931,0.384470
29009,-2.779967,-12.863611,-1.163844,-3.961947,0.287966,0.322919
29010,-2.637216,-10.299317,-0.690514,-3.013874,0.236888,0.296242
29011,-2.559702,-7.966651,-0.611647,-2.709960,0.258915,0.278795
29012,-2.650915,-5.471482,-0.739375,-2.976234,0.309107,0.322928
29013,-2.507521,-3.193968,-1.268497,-3.662837,0.395299,0.411217
29014,-2.290205,-1.921577,-2.890342,-4.649796,0.537327,0.530576
29015,-2.177273,-1.718613,-5.001913,-5.751738,0.702308,0.736272
29016,-2.558695,-2.218638,-6.671446,-6.835055,0.839308,0.951047
29017,-2.708710,-2.998439,-7.950674,-7.793139,0.907546,1.120446
29018,-3.325008,-4.886015,-9.127730,-8.412634,0.974697,1.221285
29019,-3.994205,-7.299926,-9.869043,-8.390800,0.969199,1.198366
29020,-4.263926,-9.012749,-9.992456,-7.783592,0.897524,1.104036
29021,-4.542123,-10.376487,-9.690079,-6.732906,0.865767,0.940567
29022,-4.832915,-11.354503,-8.844066,-5.196243,0.763649,0.657272
29023,-4.448621,-11.299652,-7.524836,-3.466179,0.646320,0.364947
29024,-3.255746,-10.072829,-6.560253,-1.878514,0.585644,0.138004
29025,-2.741639,-8.649300,-5.960045,-0.581705,0.597938,-0.041461
29026,-2.529439,-6.313649,-6.013319,0.119763,0.559682,-0.046575
29027,-2.368826,-3.087335,-6.114514,0.186893,0.534285,0.061241
29028,-3.034392,-0.056028,-6.947220,-0.324163,0.447367,0.155865
29029,-3.745216,0.600946,-8.225065,-1.054987,0.332055,0.233396
29030,-4.019494,-1.323235,-9.017983,-1.753725,0.284431,0.410864
29031,-3.419416,-3.014805,-9.377436,-2.188772,0.327521,0.678029
29032,-3.022088,-2.531978,-8.740021,-2.616005,0.426581,0.943010
29033,-2.608830,-1.703826,-8.386843,-3.115355,0.576312,1.089628
29034,-2.823608,-2.057086,-8.941309,-3.441759,0.707347,1.067874
29035,-3.725942,-3.519250,-9.813981,-3.337750,0.744579,0.903788
29036,-4.410009,-4.873897,-10.124628,-2.803590,0.664182,0.663187
29037,-3.967899,-5.202442,-9.949051,-1.972825,0.532964,0.399113
29038,-3.409745,-4.623821,-9.555761,-1.018739,0.382614,0.114260
29039,-3.107085,-4.162099,-9.150264,-0.084196,0.207603,-0.172422
29040,-2.400700,-3.948495,-8.750440,0.536581,0.055813,-0.273003
29041,-1.810608,-2.601963,-8.207337,0.705738,0.046869,-0.209096
29042,-1.766848,-0.566554,-7.621306,0.516444,0.103800,-0.115047
29043,-2.165092,1.260174,-8.161831,0.093145,0.198045,-0.055580
29044,-2.913006,1.427285,-9.362879,-0.297107,0.284999,-0.066247
29045,-3.292126,-0.637575,-10.473811,-0.461383,0.375688,-0.021280
29046,-2.979200,-2.715177,-11.218662,-0.305768,0.477470,0.140088
29047,-2.586168,-2.744914,-10.865259,-0.005705,0.547368,0.271647
29048,-2.496331,-1.942547,-10.154857,0.230715,0.555900,0.299158
29049,-2.626875,-2.765028,-9.710249,0.476870,0.494891,0.244258
29050,-2.934397,-4.022038,-9.751769,1.084219,0.348304,0.085437
29051,-3.162952,-4.807148,-10.546371,1.969554,0.114801,-0.120423
29052,-3.613696,-5.096350,-11.784900,3.017633,-0.249970,-0.323305
29053,-3.802205,-5.067149,-12.639862,3.934865,-0.685665,-0.447709
29054,-3.466042,-5.308484,-12.510567,4.684206,-1.098655,-0.430632
29055,-2.909261,-5.898591,-11.737721,5.527490,-1.321376,-0.428352
29056,-3.004318,-6.765562,-11.170063,6.461188,-1.385159,-0.482177
29057,-3.657346,-7.777979,-10.591913,7.539079,-1.353123,-0.584837
29058,-4.407091,-8.587209,-11.205826,8.713048,-1.258739,-0.730936
29059,-4.968324,-9.396372,-12.334245,9.888076,-1.235310,-0.900506
29060,-4.723624,-9.719982,-12.530729,10.976636,-1.246813,-1.012359
29061,-3.542448,-9.255157,-11.617437,11.740145,-1.192701,-1.017642
29062,-2.401316,-7.930147,-10.490843,12.017685,-1.004611,-0.960578
29063,-2.826767,-5.060117,-8.749888,11.520916,-0.921154,-0.862837
29064,-3.261532,-0.497382,-4.925384,9.803134,-0.936385,-0.617598
29065,-3.305678,3.003681,-1.142447,6.889339,-0.909958,-0.396244
29066,-2.252349,4.702615,1.977752,3.089387,-0.792179,-0.133102
29067,-1.034738,3.032800,2.239229,-0.649738,-0.452016,0.040143
29068,-0.989269,-1.872486,0.462744,-3.433346,-0.056593,0.218218
29069,-2.355374,-6.126682,-2.054449,-4.855137,0.122808,0.313880
29070,-3.297592,-9.353517,-4.910207,-4.842967,0.145308,0.256268
29071,-3.922284,-12.822516,-5.937341,-3.670125,0.102747,0.128423
29072,-4.142379,-16.090307,-6.034314,-1.791010,-0.085960,0.041039
29073,-3.862988,-17.621837,-5.831874,0.413934,-0.315251,-0.047684
29074,-4.178134,-16.038908,-5.173317,2.318353,-0.555298,-0.084812
29075,-4.313936,-12.846857,-4.626880,3.623692,-0.807742,-0.107052
29076,-4.298188,-10.720591,-4.492553,4.492721,-1.019824,-0.156722
29077,-4.274901,-11.135733,-4.246490,5.406505,-1.211526,-0.260786
29078,-3.845332,-12.137331,-3.743358,6.526841,-1.415342,-0.321293
29079,-3.247779,-13.920564,-4.193274,8.112039,-1.518279,-0.350043
29080,-3.369886,-13.978471,-2.977845,9.770144,-1.684489,-0.342806
29081,-2.426147,-12.456156,-2.914539,11.210493,-1.878224,-0.263621
29082,-1.682254,-10.446542,-1.717541,12.340906,-1.885952,-0.123569
29083,-1.256669,-7.979651,0.381384,12.965043,-1.698873,0.063455
29084,-1.960167,-3.898104,1.873167,12.929001,-1.505700,0.201590
29085,-2.413409,-0.328289,2.381248,12.130027,-1.327193,0.262402
29086,-2.593767,0.313022,2.012897,10.885552,-0.988233,0.252867
29087,-2.960567,-0.448751,3.614360,9.736632,-0.682304,0.047801
29088,-2.701627,0.727769,6.889657,8.748791,-0.538805,-0.294751
29089,-2.083257,3.487581,9.070088,7.488251,-0.474834,-0.598325
29090,-1.762268,6.009933,10.593825,5.688869,-0.369707,-0.626987
29091,-1.881735,6.894793,11.396225,3.489639,-0.272202,-0.500848
29092,-1.845148,5.575495,11.048964,1.326776,-0.155677,-0.412278
29093,-1.694659,1.147587,10.460890,-0.238932,0.034754,-0.313676
29094,-1.953043,-6.082412,9.867341,-0.387644,0.285825,-0.265416
29095,-1.831004,-12.658537,8.528466,1.161120,0.354364,-0.222078
29096,-1.605606,-14.936079,7.145800,3.793861,0.177577,-0.049187
29097,-1.460632,-10.446225,6.452807,6.192681,-0.122581,0.233315
29098,-1.298732,-3.441682,6.895658,7.233038,-0.250956,0.489778
29099,-0.998828,0.711337,7.565985,6.982485,-0.189539,0.708893
29100,-1.388176,1.519463,7.839122,6.257265,-0.060819,0.857760
29101,-1.431042,1.268315,7.816005,5.533234,-0.001484,0.932324
29102,-1.574015,0.854721,7.288428,5.041601,0.050901,1.001174
29103,-1.840488,2.144393,6.838745,4.807141,0.021460,0.991864
29104,-2.318037,4.961662,7.147114,4.457435,-0.014892,0.926391
29105,-2.772850,6.861716,7.251714,3.756772,-0.033568,0.811667
29106,-2.852596,7.144399,7.437103,2.872543,-0.054278,0.669161
29107,-2.615980,6.323170,7.764471,2.016031,-0.068579,0.552500
29108,-2.491600,5.837617,7.980473,1.382555,-0.125503,0.439614
29109,-2.836854,8.672971,8.824406,0.670289,-0.231907,0.256895
29110,-3.287397,12.362727,10.382507,-0.590171,-0.225946,-0.005088
29111,-3.228836,13.976031,10.008060,-2.548133,-0.150313,-0.283757
29112,-2.476366,13.374998,8.358591,-4.791481,-0.143744,-0.590083
29113,-1.924068,10.916324,7.154255,-6.948729,-0.094961,-0.905579
29114,-1.734413,3.674634,7.382930,-8.150410,-0.011240,-1.127478
29115,-0.866568,-3.768404,7.646647,-7.897621,0.021390,-1.190820
29116,-1.109901,-10.112288,8.869866,-6.448204,0.030890,-1.084523
29117,-1.366504,-13.081702,10.154780,-4.105517,-0.078813,-0.848932
29118,-1.233657,-14.495246,10.094218,-1.473683,-0.121572,-0.464221
29119,-1.971851,-12.133475,9.791209,1.149351,-0.316157,-0.156730
29120,-2.005284,-5.344600,8.358473,3.033218,-0.556141,0.085018
29121,-1.642145,-0.337955,7.214435,3.785838,-0.559966,0.236332
29122,-0.897504,1.199715,6.540860,3.931524,-0.467814,0.360699
29123,-1.167153,-0.020855,6.601929,3.835757,-0.330556,0.523600
29124,-1.306212,-3.330322,6.411530,3.999180,-0.294254,0.712154
29125,-0.892435,-3.101597,6.125573,4.534522,-0.309454,0.857488
29126,-0.976457,1.952744,6.465715,4.723777,-0.310513,0.894935
29127,-1.390759,7.091883,7.060810,4.069096,-0.251699,0.809578
29128,-1.957149,9.519814,7.406962,2.865178,-0.205768,0.663116
29129,-2.100665,8.725129,7.829528,1.604677,-0.208192,0.512993
29130,-2.191491,5.972707,8.169157,0.756283,-0.241118,0.393141
29131,-2.227723,4.618279,8.717840,0.395433,-0.324295,0.269344
29132,-1.976414,5.329787,9.367378,0.027755,-0.392422,0.158542
29133,-1.666559,6.332437,9.519018,-0.683472,-0.400308,0.104585
29134,-1.517937,5.616018,9.180583,-1.525119,-0.347959,0.061847
29135,-1.266018,2.787507,8.227218,-2.012868,-0.307054,0.058161
29136,-1.267182,-1.591126,7.838929,-1.665104,-0.290770,0.117114
29137,-0.944060,-3.730632,7.759532,-0.554029,-0.369802,0.230247
29138,-0.825122,-2.659217,7.731991,0.612320,-0.468495,0.418810
29139,-0.680851,0.095262,7.863113,1.388603,-0.523034,0.617578
29140,-0.527092,1.406919,7.697706,1.677544,-0.468590,0.842117
29141,-0.413380,1.326865,6.952158,1.888391,-0.427483,1.076241
29142,-0.505934,1.863538,6.012325,2.166961,-0.466786,1.229211
29143,-0.664014,4.284129,5.937696,2.332658,-0.580960,1.250553
29144,-0.891466,6.993098,6.743911,2.067333,-0.642637,1.150485
29145,-1.082828,8.102316,8.269351,1.451154,-0.658128,1.004038
29146,-1.101610,8.736992,9.639803,0.713776,-0.626079,0.769549
29147,-0.994540,10.130886,9.569928,-0.249110,-0.601492,0.494728
29148,-0.768781,12.011539,8.908766,-1.552155,-0.651574,0.147249
29149,-0.249853,12.644548,8.619558,-3.056468,-0.682871,-0.305605
29150,0.244936,13.087736,8.663312,-4.566733,-0.687376,-0.831466
29151,0.952663,13.432524,8.594822,-6.282894,-0.618170,-1.368951
29152,2.229843,12.954905,7.333344,-8.305148,-0.470065,-1.854746
29153,3.207831,11.073543,4.799563,-10.631980,-0.258880,-2.224823
29154,3.274765,5.644002,0.462915,-12.828253,-0.109076,-2.325321
29155,1.632400,-5.247711,-1.469535,-13.819251,0.042814,-1.998245
29156,-0.132018,-16.993874,2.338687,-12.424259,0.116356,-1.784276
29157,0.134781,-27.669246,4.691632,-8.670481,0.074130,-1.639632
29158,-0.532817,-31.242674,5.795987,-3.121413,-0.326516,-1.301200
29159,-0.060460,-24.382376,5.829067,2.252223,-0.968582,-0.688759
29160,0.836390,-13.539158,5.515125,5.711427,-1.344912,-0.136982
29161,0.645731,-4.781669,5.682927,6.924620,-1.514537,0.223646
29162,0.425858,2.104610,7.444585,6.442546,-1.580641,0.323647
29163,0.548707,7.055978,9.108425,4.674801,-1.430903,0.187783
29164,1.019128,9.253638,9.498191,2.167687,-1.248028,-0.014702
29165,1.782206,9.086687,9.793768,-0.534532,-1.032222,-0.248334
29166,2.470176,6.870988,9.076889,-2.909717,-0.831602,-0.560029
29167,2.569034,3.762883,8.365724,-4.616205,-0.618629,-0.842321
29168,2.268853,0.217906,6.637882,-5.574600,-0.528052,-1.028010
29169,1.420546,-4.547491,5.879775,-5.817404,-0.490329,-1.071595
29170,0.844599,-9.351711,6.576819,-5.281528,-0.565457,-0.995591
29171,1.468243,-13.747831,7.192823,-3.953891,-0.608123,-0.868175
29172,1.385547,-16.257244,7.770936,-2.038587,-0.686886,-0.741214
29173,1.528949,-15.182950,8.148141,0.053858,-0.873595,-0.539395
29174,2.169178,-11.479662,8.273750,1.589265,-1.022796,-0.283853
29175,2.363431,-7.627160,8.612460,2.357443,-1.087767,-0.077367
29176,2.406358,-4.339581,9.176739,2.546139,-1.117282,0.052820
29177,2.081304,-0.969240,9.918803,2.238838,-1.102159,0.112529
29178,1.849760,2.746257,10.945504,1.369194,-1.091491,0.092362
29179,2.009111,4.214807,11.358558,-0.008657,-0.900295,0.052218
29180,2.096422,3.563182,10.329165,-1.483778,-0.769693,-0.060218
29181,2.933286,1.581486,9.016663,-2.761674,-0.703746,-0.276999
29182,3.817586,-0.810712,8.182456,-3.647381,-0.588403,-0.543099
29183,3.771684,-2.248559,7.114554,-4.187333,-0.525943,-0.820540
29184,3.463702,-2.495239,6.165846,-4.529204,-0.477632,-1.106047
29185,2.766225,-3.970679,4.769420,-4.832034,-0.533305,-1.231228
29186,2.063778,-7.224991,5.593508,-4.689949,-0.543045,-1.302139
29187,2.009956,-11.541996,5.891436,-4.035121,-0.602175,-1.322525
29188,2.916859,-14.809722,6.029223,-2.765630,-0.734780,-1.287784
29189,3.666625,-15.157304,6.088565,-1.260836,-0.905164,-1.193842
29190,4.052193,-12.957845,5.631304,0.012837,-1.101165,-1.046024
29191,4.293654,-10.014901,5.324466,0.811044,-1.288972,-0.870819
29192,4.241782,-7.416442,5.581708,1.109409,-1.448133,-0.703057
29193,4.395162,-5.624155,6.479988,1.009088,-1.513650,-0.545455
29194,4.482836,-4.822958,7.872425,0.756032,-1.448219,-0.410825
29195,4.226642,-4.031480,9.467424,0.375544,-1.294077,-0.317661
29196,3.803501,-3.255245,9.902669,-0.179579,-1.112114,-0.262127
29197,3.611106,-2.209596,9.413088,-0.881018,-0.936046,-0.313126
29198,3.515019,-2.190082,7.994759,-1.741783,-0.767512,-0.363979
29199,4.018943,-3.816699,6.330978,-2.530153,-0.617458,-0.442171
29200,4.957360,-6.643111,4.698466,-2.911963,-0.491392,-0.593256
29201,5.414494,-9.664127,3.489577,-2.696931,-0.401672,-0.761593
29202,5.380012,-12.625729,3.299815,-1.846127,-0.362126,-0.906628
29203,4.430321,-13.818351,3.935471,-0.641073,-0.433978,-0.983922
29204,3.952623,-12.983087,4.783358,0.473519,-0.607133,-0.992944
29205,4.367960,-11.398308,5.211453,1.203952,-0.800657,-0.930747
29206,4.790548,-9.894902,5.271844,1.496801,-0.992417,-0.769039
29207,5.116375,-9.373608,4.948570,1.542839,-1.215390,-0.508386
29208,5.979300,-9.607548,5.095462,1.593618,-1.409603,-0.170920
29209,6.606981,-9.638022,5.788140,1.720707,-1.578833,0.218290
29210,6.998619,-8.980570,7.471003,1.944699,-1.665583,0.579297
29211,6.928277,-6.865019,9.353612,2.065571,-1.594177,0.853901
29212,5.811372,-2.893287,10.042280,1.796213,-1.447964,0.940090
29213,4.698768,-0.494815,10.274367,1.072073,-1.179323,0.907797
29214,3.640854,-0.012336,9.703280,0.081197,-0.952036,0.798926
29215,3.128320,-0.732552,7.944628,-0.988510,-0.873453,0.612786
29216,3.848759,-2.953704,5.938226,-1.972380,-0.814519,0.396855
29217,5.039174,-5.567710,4.732544,-2.445947,-0.642155,0.091417
29218,5.650957,-6.969406,4.570938,-2.262464,-0.444637,-0.285119
29219,5.617248,-7.694715,4.626251,-1.615148,-0.285796,-0.631242
29220,5.181717,-7.642831,4.725494,-0.853464,-0.227001,-0.878377
29221,4.663516,-6.817411,4.769180,-0.342915,-0.259678,-1.019895
29222,4.572172,-7.076620,4.453230,-0.108555,-0.384417,-1.063189
29223,5.216555,-8.336913,4.776670,0.122679,-0.552151,-1.037288
29224,6.190871,-9.427508,5.323727,0.477105,-0.713959,-0.961636
29225,7.027229,-8.999575,5.724112,0.912547,-0.862717,-0.861923
29226,7.577408,-7.471496,5.854706,1.239713,-0.955545,-0.730315
29227,7.776124,-5.676491,5.809334,1.397264,-1.000695,-0.598738
29228,7.609772,-3.217539,6.629944,1.337175,-0.957081,-0.559923
29229,6.879690,-1.396985,7.405138,0.953287,-0.799887,-0.604235
29230,6.175005,0.242108,7.728709,0.339104,-0.621402,-0.778825
29231,5.546700,1.156957,7.455683,-0.476526,-0.415261,-1.060263
29232,5.214938,0.451816,6.119704,-1.416928,-0.266294,-1.292654
29233,5.961460,-2.563761,4.088013,-2.171518,-0.137805,-1.480977
29234,7.230993,-6.837278,2.030577,-2.319933,0.038408,-1.647473
29235,7.478211,-9.846597,0.999202,-1.657817,0.172583,-1.828242
29236,6.752438,-10.895863,1.084915,-0.500720,0.090756,-1.970626
29237,6.558269,-10.330458,1.384530,0.639283,-0.147234,-1.977585
29238,7.455249,-8.591839,1.847720,1.422327,-0.389983,-1.840013
29239,8.493882,-6.265450,3.110823,1.750911,-0.497335,-1.669459
29240,8.975247,-4.406409,4.754971,1.664639,-0.576960,-1.427689
29241,9.516577,-2.966821,5.738123,1.294086,-0.717750,-1.099728
29242,10.267228,-3.310623,5.698991,0.702704,-0.827425,-0.642832
29243,10.498429,-4.949164,4.770602,0.159606,-0.944624,-0.141639
29244,9.955132,-5.660342,3.788745,-0.205427,-1.110676,0.268089
29245,9.049877,-4.095803,3.269809,-0.514310,-1.307536,0.460675
29246,7.618635,-2.059338,3.481374,-0.890069,-1.400807,0.402726
29247,6.536087,-1.703199,4.247826,-1.282930,-1.350928,0.181276
29248,6.339342,-3.142102,5.007420,-1.528583,-1.225248,-0.099255
29249,6.491168,-5.002386,5.155917,-1.531605,-1.021219,-0.399535
29250,6.539118,-6.155206,4.777871,-1.389797,-0.820947,-0.691397
29251,6.765458,-6.499599,3.895983,-1.228252,-0.665730,-0.950540
29252,7.043989,-6.776727,2.768658,-0.933176,-0.515177,-1.174036
29253,6.973038,-7.433009,1.870087,-0.418919,-0.490931,-1.307208
29254,7.134287,-8.218747,1.681767,0.290197,-0.590350,-1.306497
29255,8.037549,-7.879501,2.134259,0.920617,-0.771548,-1.187612
29256,9.422519,-6.635360,3.096462,1.265717,-0.909069,-0.949705
29257,10.805660,-5.058283,4.004189,1.230294,-0.923169,-0.674352
29258,11.595531,-3.811800,4.093902,0.889353,-0.888319,-0.386841
29259,11.817025,-2.542049,4.378798,0.419920,-0.799790,-0.163245
29260,11.676108,-0.959531,4.862139,-0.163272,-0.643146,-0.011210
29261,10.470965,1.124748,4.935015,-0.951006,-0.435353,-0.000931
29262,8.990552,1.875937,4.983432,-1.871807,-0.195474,-0.148378
29263,7.565267,0.085051,4.881222,-2.766425,-0.006204,-0.378172
29264,7.074340,-4.022886,3.830482,-3.183722,0.118949,-0.667263
29265,6.754499,-7.963737,2.406046,-2.905862,0.182228,-1.007559
29266,6.143288,-9.838937,1.837570,-2.043609,0.113476,-1.266165
29267,6.074899,-9.952633,2.190339,-0.906051,-0.052133,-1.454432
29268,6.767378,-9.422619,3.108918,0.213753,-0.233189,-1.523444
29269,7.908087,-7.986448,4.203177,1.057018,-0.374624,-1.485534
29270,8.990749,-6.314171,4.878694,1.527347,-0.437507,-1.353464
29271,9.819358,-4.833885,5.201328,1.658892,-0.444453,-1.170272
29272,10.184935,-3.159423,5.435960,1.511013,-0.461654,-0.959861
29273,10.668817,-2.265337,5.405050,1.126652,-0.450926,-0.722230
29274,10.768904,-1.908992,4.603657,0.637570,-0.440658,-0.500269
29275,10.414218,-0.885907,4.064711,0.132285,-0.448207,-0.420913
29276,9.803410,-0.152221,3.769264,-0.505965,-0.443312,-0.426103
29277,9.737125,-0.441898,3.609751,-1.219358,-0.393131,-0.472903
29278,9.593190,-1.954946,3.286403,-1.797403,-0.280293,-0.544751
29279,9.280409,-4.211284,2.561485,-2.030700,-0.162245,-0.655720
29280,8.702241,-5.384665,1.807784,-1.763762,-0.070968,-0.849582
29281,7.951425,-5.879605,1.471981,-1.181169,-0.021555,-1.031966
29282,7.817406,-5.655902,1.483867,-0.459054,-0.085140,-1.167977
29283,8.202151,-5.226370,1.745398,0.203949,-0.153381,-1.214187
29284,8.657946,-4.875967,1.765176,0.761493,-0.230245,-1.200977
29285,8.917833,-4.240942,1.972028,1.164532,-0.306097,-1.151316
29286,9.287268,-3.335774,2.252851,1.402553,-0.359529,-1.087424
29287,9.604730,-2.331434,2.654534,1.472285,-0.388419,-1.019148
29288,9.893289,-1.398158,3.031012,1.320055,-0.375441,-0.943916
29289,10.097537,-1.130891,3.146621,0.972462,-0.362078,-0.854993
29290,10.244180,-1.688161,2.956376,0.585934,-0.324616,-0.747233
29291,10.241139,-2.700970,2.718251,0.296287,-0.286961,-0.621480
29292,10.103355,-3.127524,2.367278,0.139460,-0.268449,-0.492694
29293,10.027482,-2.541939,2.131477,0.001643,-0.233761,-0.379088
29294,9.700480,-1.485475,2.688384,-0.307109,-0.182933,-0.302241
29295,9.737010,-1.682175,2.845358,-0.708772,-0.165364,-0.237842
29296,9.714195,-2.282847,2.720360,-0.998816,-0.119406,-0.211257
29297,9.360331,-2.812957,2.698720,-1.161408,-0.078471,-0.205781
29298,9.189436,-2.934667,2.909357,-1.234701,-0.049119,-0.226475
29299,9.032155,-2.638526,3.033735,-1.316701,-0.005351,-0.260974
29300,8.919533,-2.198376,3.119342,-1.460775,0.024314,-0.280251
29301,8.987917,-2.331641,2.983055,-1.631576,0.059632,-0.282246
29302,9.138979,-2.803181,2.607413,-1.703796,0.085437,-0.275702
29303,9.187342,-3.315863,2.344894,-1.639055,0.102082,-0.264726
29304,9.205780,-3.738956,2.170555,-1.449577,0.107177,-0.234245
29305,9.258350,-3.807034,2.079611,-1.177144,0.087469,-0.206292
29306,9.455621,-3.527248,2.008006,-0.908572,0.073723,-0.160929
29307,9.636296,-2.929041,1.886874,-0.713465,0.065745,-0.132564
29308,9.728217,-2.447666,1.869088,-0.607995,0.063845,-0.103316
29309,9.813287,-2.100621,1.763105,-0.582289,0.060361,-0.069749
29310,9.735201,-1.902755,1.792436,-0.586570,0.054994,-0.053527
29311,9.687866,-1.868399,1.868610,-0.597447,0.039168,-0.045237
29312,9.648256,-2.002618,1.985119,-0.577549,0.027489,-0.049343
29313,9.614706,-2.107411,2.017088,-0.538002,0.015573,-0.045622
29314,9.661976,-2.120774,2.043866,-0.497820,0.001791,-0.037809
29315,9.700893,-2.137054,1.967411,-0.450806,-0.002173,-0.030644
29316,9.706793,-2.062328,1.967014,-0.401614,-0.009467,-0.027472
29317,9.670644,-2.002795,1.936661,-0.365358,-0.013444,-0.028429
29318,9.648493,-1.993813,1.894843,-0.331757,-0.025102,-0.028490
29319,9.659751,-1.769629,1.968710,-0.320602,-0.028731,-0.045569
29320,9.636877,-1.898085,1.980949,-0.324917,-0.024092,-0.067025
29321,9.666112,-2.103588,1.942901,-0.326758,-0.017062,-0.078223
29322,9.770738,-2.314755,1.921129,-0.308250,-0.013799,-0.084319
29323,9.910826,-2.330451,1.716812,-0.299659,-0.009492,-0.088039
29324,9.905695,-2.250497,1.490268,-0.302882,-0.009632,-0.091008
29325,9.880674,-2.170610,1.386932,-0.313236,-0.009639,-0.098002
29326,9.760634,-2.206966,1.412188,-0.308584,-0.007811,-0.113557
29327,9.639125,-2.066109,1.659882,-0.295122,0.006435,-0.144434
29328,9.654790,-1.996771,1.799866,-0.303939,0.034491,-0.172136
29329,9.653286,-1.884941,1.678901,-0.366797,0.065596,-0.173925
29330,9.426272,-1.895965,1.558461,-0.448842,0.092564,-0.172998
29331,9.264095,-1.927241,1.529856,-0.500278,0.090742,-0.156857
29332,9.166343,-1.816866,1.515558,-0.522202,0.069462,-0.148302
29333,9.262222,-1.971928,1.631095,-0.520312,0.050003,-0.140017
29334,9.441962,-2.079231,1.780039,-0.464232,0.035753,-0.118911
29335,9.540422,-2.014865,1.861780,-0.409754,0.031099,-0.101073
29336,9.486890,-1.815493,1.894012,-0.375418,0.029980,-0.085244
29337,9.453067,-1.608999,1.806079,-0.378813,0.043879,-0.082133
29338,9.405212,-1.496522,1.779498,-0.399607,0.045149,-0.074978
29339,9.445227,-1.399976,1.850218,-0.460298,0.059308,-0.090206
29340,9.519076,-1.609511,1.864561,-0.517487,0.067731,-0.096343
29341,9.627854,-1.657585,1.891726,-0.561658,0.080055,-0.113949
29342,9.697484,-1.779543,1.818002,-0.604180,0.096416,-0.122503
29343,9.679604,-1.882461,1.647733,-0.645832,0.116629,-0.140142
29344,9.597342,-2.088055,1.547355,-0.653653,0.118934,-0.137988
29345,9.603664,-2.267882,1.486880,-0.641563,0.123482,-0.137035
29346,9.525018,-2.415099,1.428259,-0.594975,0.116644,-0.123580
29347,9.502729,-2.483537,1.500322,-0.535507,0.105117,-0.111722
29348,9.475845,-2.688250,1.504836,-0.452842,0.088090,-0.083556
29349,9.396015,-2.723960,1.560892,-0.346568,0.068849,-0.055595
29350,9.393173,-2.622514,1.576383,-0.255470,0.046695,-0.034469
29351,9.460657,-2.707119,1.594592,-0.179294,0.034953,-0.013633
29352,9.429607,-2.769511,1.565123,-0.104981,0.028389,0.014034
29353,9.466262,-2.680768,1.644318,-0.029219,0.022440,0.034917
29354,9.482414,-2.700359,1.701266,0.030864,0.017948,0.053781
29355,9.578877,-2.661494,1.674744,0.102690,0.022274,0.070643
29356,9.613608,-2.394154,1.798189,0.153180,0.019290,0.075956
29357,9.650224,-2.216795,1.777118,0.175446,0.024101,0.071062
29358,9.689354,-2.207159,1.817395,0.181743,0.030962,0.058591
29359,9.748027,-2.280466,1.742505,0.190991,0.031217,0.047530
29360,9.679016,-2.220000,1.756108,0.198848,0.040562,0.042375
29361,9.605202,-2.113077,1.740842,0.197074,0.045089,0.037000
29362,9.529058,-2.084679,1.704926,0.181549,0.044709,0.041907
29363,9.481513,-2.053402,1.649771,0.155543,0.048355,0.049686
29364,9.371771,-1.985435,1.601881,0.128366,0.043325,0.055380
29365,9.260934,-1.803501,1.669179,0.089233,0.034190,0.056315
29366,9.274171,-1.900645,1.708997,0.035745,0.033820,0.055616
29367,9.328654,-2.143994,1.718607,-0.000220,0.039235,0.049369
29368,9.362677,-2.292830,1.716208,-0.013757,0.040192,0.051662
29369,9.451148,-2.354025,1.719914,-0.019472,0.044943,0.048332
