// Start Time: Unknown
// Update Rate: 100.0Hz
// Filter Profile: human (46.1)
// Firmware Version: 4.3.5
PacketCounter,Acc_X,Acc_Y,Acc_Z,Gyr_X,Gyr_Y,Gyr_Z
15820,9.502132,-1.229942,2.153657,0.015286,0.008128,0.008622
15821,9.488646,-1.220104,2.136585,0.021419,0.001586,0.007536
15822,9.539562,-1.191718,2.149020,0.007415,0.006569,0.006209
15823,9.533960,-1.208349,2.111145,0.005593,0.010714,0.009808
15824,9.501176,-1.231804,2.156806,0.010854,0.008114,0.005006
15825,9.541469,-1.235453,2.091655,0.006979,0.000545,0.006321
15826,9.562605,-1.272002,2.088776,0.018534,0.003627,0.001814
15827,9.543311,-1.187148,2.118603,0.038054,0.000874,0.000533
15828,9.592345,-1.205844,2.105019,0.024393,0.003289,0.002217
15829,9.571052,-1.168968,2.108769,0.016703,0.002921,-0.002501
15830,9.525284,-1.181143,2.135914,0.016920,-0.002061,-0.000584
15831,9.576362,-1.151958,2.148066,0.015466,0.004475,-0.001606
15832,9.548430,-1.168539,2.159645,0.012395,0.005318,-0.005019
15833,9.517274,-1.153061,2.158110,0.005447,-0.001409,-0.007109
15834,9.551871,-1.199041,2.172658,-0.005616,0.000311,-0.006119
15835,9.541304,-1.230506,2.095318,-0.000627,0.003913,-0.009435
15836,9.510869,-1.204333,2.166196,0.014093,-0.001243,-0.009711
15837,9.520311,-1.191994,2.098571,0.007214,-0.004335,-0.007301
15838,9.523804,-1.222925,2.111184,0.010126,-0.001415,-0.009213
15839,9.497390,-1.201565,2.075566,0.006160,-0.001588,-0.008714
15840,9.510805,-1.210932,2.093193,0.009759,-0.003802,-0.004595
15841,9.538827,-1.192853,2.081962,0.013785,-0.004850,-0.008501
15842,9.526388,-1.171048,2.136550,0.012203,-0.000730,-0.010621
15843,9.499993,-1.149480,2.100896,0.008111,-0.003320,-0.011216
15844,9.525515,-1.206242,2.182579,-0.002024,-0.006767,-0.009905
15845,9.523213,-1.264147,2.083028,-0.022293,-0.013663,-0.007283
15846,9.520925,-1.322541,1.983007,-0.004430,-0.016012,0.000349
15847,9.539750,-1.316956,2.038257,0.011263,-0.011649,0.008561
15848,9.526573,-1.307675,2.019362,0.006930,-0.014209,0.013680
15849,9.554630,-1.291311,2.006804,0.018985,-0.022305,0.009593
15850,9.547080,-1.265480,2.025542,0.033404,-0.031060,0.010516
15851,9.528295,-1.181337,2.052232,0.035609,-0.027957,0.010199
15852,9.530992,-1.132875,2.075182,0.043561,-0.043502,-0.002397
15853,9.519468,-1.110917,2.126110,0.026751,-0.043897,-0.008605
15854,9.531644,-1.049929,2.080617,0.025279,-0.042226,-0.017540
15855,9.567883,-0.965873,2.130864,0.029694,-0.031081,-0.025813
15856,9.597356,-0.935002,2.190149,0.020198,-0.017506,-0.026651
15857,9.558805,-0.891167,2.207940,-0.002945,-0.012574,-0.029435
15858,9.627186,-0.901486,2.248980,-0.046698,-0.007043,-0.040206
15859,9.641479,-0.999874,2.180499,-0.098946,0.005600,-0.039368
15860,9.571503,-1.161268,2.072652,-0.120773,0.002831,-0.038865
15861,9.590451,-1.254839,1.969511,-0.116018,-0.003314,-0.036796
15862,9.585447,-1.269309,1.929879,-0.071950,0.009533,-0.034577
15863,9.573196,-1.246534,1.984980,-0.037678,0.011499,-0.035918
15864,9.539511,-1.187232,2.043759,-0.058376,0.014556,-0.037127
15865,9.522562,-1.270872,1.974352,-0.076293,0.013161,-0.033728
15866,9.517359,-1.285174,1.935916,-0.060135,0.012531,-0.029327
15867,9.518298,-1.273334,2.009021,-0.028311,0.011414,-0.024607
15868,9.524560,-1.245425,2.120995,-0.022573,0.008676,-0.025311
15869,9.534543,-1.221894,2.126497,-0.039603,0.008293,-0.025828
15870,9.580370,-1.206963,2.099724,-0.030550,0.004701,-0.028840
15871,9.554610,-1.174487,2.137111,-0.027178,0.007469,-0.026632
15872,9.553020,-1.220633,2.111090,-0.044383,0.005881,-0.024848
15873,9.568573,-1.281581,1.996179,-0.049230,0.004672,-0.020443
15874,9.540236,-1.308060,1.934375,-0.026707,0.002330,-0.014898
15875,9.565293,-1.247293,1.983714,-0.000039,0.006360,-0.019781
15876,9.557299,-1.219591,2.005398,0.002852,0.004306,-0.014054
15877,9.613528,-1.173268,2.056819,-0.010978,0.010460,-0.017685
15878,9.607302,-1.225738,2.065005,-0.020970,0.009400,-0.015292
15879,9.595611,-1.166549,2.074248,-0.017655,0.008550,-0.017601
15880,9.590235,-1.208967,2.154587,-0.025627,0.004570,-0.021138
15881,9.585197,-1.223410,2.115525,-0.037738,-0.000799,-0.021874
15882,9.582192,-1.317486,2.062396,-0.025853,-0.000242,-0.023362
15883,9.555662,-1.295171,2.027072,-0.003929,0.004992,-0.022710
15884,9.534223,-1.256723,2.031514,0.018108,0.012637,-0.020947
15885,9.506478,-1.271814,2.044134,0.022479,0.018850,-0.021535
15886,9.489413,-1.227226,2.015619,0.016754,0.011775,-0.021158
15887,9.502817,-1.235085,2.034670,0.020004,0.012133,-0.020047
15888,9.483342,-1.276500,2.025541,0.009899,0.008652,-0.018768
15889,9.481893,-1.322515,1.999846,0.016343,0.000760,-0.013436
15890,9.541084,-1.317407,1.991115,0.038755,0.001027,-0.016610
15891,9.518716,-1.316908,2.041728,0.049262,0.005549,-0.010360
15892,9.528508,-1.293158,2.047866,0.047083,0.002446,-0.010071
15893,9.520367,-1.265039,2.069992,0.057730,0.004565,-0.010664
15894,9.519534,-1.300646,2.117437,0.067906,0.001869,-0.007744
15895,9.525719,-1.244531,2.110810,0.078869,-0.002200,-0.009855
15896,9.607100,-1.264627,2.171925,0.083963,0.003860,-0.012086
15897,9.557821,-1.242929,2.187886,0.092130,0.009084,-0.010902
15898,9.535265,-1.241457,2.239539,0.095750,0.006892,-0.006799
15899,9.561401,-1.268826,2.204447,0.101877,0.006588,-0.012154
15900,9.521694,-1.224913,2.226107,0.109743,0.018025,-0.009504
15901,9.516852,-1.227021,2.263016,0.113916,0.019443,-0.012362
15902,9.566276,-1.231604,2.325209,0.114495,0.031545,-0.006921
15903,9.624356,-1.225271,2.321632,0.121104,0.054361,-0.003155
15904,9.637710,-1.183759,2.372955,0.133017,0.074622,-0.004237
15905,9.651980,-1.093494,2.451781,0.141580,0.092106,-0.007546
15906,9.622044,-1.107412,2.473157,0.086135,0.096725,-0.007114
15907,9.621709,-1.196549,2.398060,0.031244,0.093776,-0.001681
15908,9.573224,-1.385639,2.370841,0.014788,0.099245,0.007495
15909,9.552166,-1.558173,2.333536,0.056697,0.107977,0.022187
15910,9.484984,-1.579114,2.315913,0.111480,0.120712,0.048097
15911,9.420741,-1.622822,2.384751,0.095731,0.123496,0.079938
15912,9.362860,-1.756204,2.334724,0.039743,0.124454,0.112628
15913,9.322615,-1.920894,2.123577,0.015623,0.124525,0.150065
15914,9.309019,-2.049088,2.047000,0.063004,0.134277,0.189808
15915,9.306839,-2.178196,2.063738,0.145371,0.154622,0.229128
15916,9.284693,-2.175855,2.136940,0.237032,0.164012,0.266266
15917,9.317635,-2.140947,2.190484,0.285780,0.166360,0.299175
15918,9.327066,-2.120371,2.221839,0.319517,0.164196,0.337662
15919,9.307684,-2.119382,2.264227,0.346614,0.160256,0.376101
15920,9.319163,-2.216714,2.298224,0.357266,0.151028,0.419948
15921,9.280739,-2.310485,2.272383,0.354547,0.141914,0.468308
15922,9.245842,-2.390635,2.283970,0.370536,0.119146,0.503758
15923,9.246127,-2.484849,2.264123,0.400685,0.103980,0.547236
15924,9.244806,-2.582492,2.244943,0.444629,0.100148,0.589138
15925,9.251447,-2.648173,2.303336,0.472446,0.099846,0.632988
15926,9.264735,-2.647307,2.266156,0.488864,0.103026,0.676720
15927,9.228986,-2.771726,2.261166,0.492178,0.095434,0.725643
15928,9.207304,-2.859451,2.140087,0.509209,0.084345,0.774992
15929,9.188476,-2.918519,2.128717,0.531901,0.078031,0.818279
15930,9.090524,-2.940267,2.124395,0.548949,0.063336,0.853123
15931,9.109913,-2.922619,2.160783,0.541247,0.060766,0.879588
15932,9.105758,-2.950236,2.189136,0.514918,0.063989,0.906583
15933,9.088928,-3.001712,2.213340,0.483868,0.064872,0.929101
15934,9.088748,-3.063354,2.222788,0.480609,0.072594,0.950515
15935,9.116638,-3.126893,2.308714,0.494933,0.075350,0.956930
15936,9.139710,-3.131936,2.397052,0.481591,0.080023,0.974168
15937,9.114796,-3.142857,2.510503,0.430256,0.079735,0.998194
15938,9.111128,-3.213256,2.518507,0.356733,0.075355,1.020717
15939,9.046708,-3.388315,2.475381,0.308908,0.062885,1.042205
15940,8.997159,-3.555503,2.487308,0.287586,0.057584,1.053849
15941,8.964296,-3.642595,2.468371,0.287819,0.045594,1.056510
15942,8.966676,-3.651073,2.561821,0.285829,0.040923,1.060817
15943,8.868192,-3.669478,2.582312,0.248718,0.043185,1.075565
15944,8.838769,-3.709438,2.614014,0.199782,0.038337,1.078702
15945,8.836879,-3.731193,2.578488,0.176111,0.027370,1.083226
15946,8.794148,-3.752725,2.533088,0.146666,0.018318,1.085210
15947,8.827194,-3.748727,2.551650,0.097087,0.000435,1.079847
15948,8.869140,-3.847188,2.570262,0.041696,0.002018,1.076919
15949,8.785502,-4.019044,2.458525,-0.007268,-0.007460,1.075725
15950,8.740263,-4.163326,2.369704,-0.000703,-0.022877,1.073086
15951,8.610329,-4.268280,2.281613,0.045679,-0.040869,1.071949
15952,8.568878,-4.288235,2.226768,0.126366,-0.071697,1.060522
15953,8.552694,-4.167424,2.208580,0.186040,-0.092126,1.047402
15954,8.501506,-4.099389,2.359690,0.186765,-0.104852,1.040216
15955,8.434255,-4.138185,2.456183,0.170346,-0.125111,1.032090
15956,8.407100,-4.294747,2.402854,0.128665,-0.159471,1.042633
15957,8.353135,-4.498862,2.361333,0.138879,-0.193576,1.052146
15958,8.384217,-4.717178,2.300939,0.205386,-0.219327,1.051927
15959,8.388887,-4.777459,2.284463,0.313606,-0.232324,1.041188
15960,8.346620,-4.723082,2.327675,0.401645,-0.240772,1.022720
15961,8.281956,-4.567367,2.379962,0.457353,-0.255308,0.995272
15962,8.254303,-4.427815,2.314725,0.465695,-0.271389,0.968041
15963,8.215074,-4.335449,2.196042,0.478243,-0.271939,0.936097
15964,8.179345,-4.183708,2.229774,0.470436,-0.269547,0.907220
15965,8.175786,-4.130763,2.220692,0.413039,-0.274480,0.881935
15966,8.198972,-4.097236,2.126750,0.384403,-0.273487,0.847749
15967,8.143170,-4.094401,2.197986,0.364941,-0.260281,0.817009
15968,8.014709,-4.152014,2.263878,0.313985,-0.257179,0.795796
15969,7.918127,-4.240379,2.266443,0.264017,-0.254992,0.779228
15970,7.768244,-4.330534,2.138591,0.249406,-0.261030,0.754391
15971,7.761408,-4.363642,2.041801,0.279365,-0.286634,0.739544
15972,7.777892,-4.387932,1.999555,0.310022,-0.299064,0.725317
15973,7.867261,-4.422773,1.950696,0.338983,-0.308018,0.694404
15974,8.034856,-4.402004,2.080674,0.391377,-0.312051,0.654489
15975,8.219075,-4.438920,2.290502,0.390712,-0.291136,0.609893
15976,8.199518,-4.480930,2.372437,0.374945,-0.272436,0.571035
15977,8.109591,-4.543153,2.292909,0.380848,-0.262315,0.536991
15978,8.122450,-4.494476,2.263323,0.389935,-0.264111,0.506106
15979,8.153539,-4.423809,2.267452,0.399422,-0.263130,0.466619
15980,8.159888,-4.186484,2.314608,0.410294,-0.246161,0.419007
15981,8.196407,-3.937091,2.502658,0.391658,-0.231054,0.365686
15982,8.172141,-3.847006,2.653275,0.268107,-0.229049,0.334953
15983,8.174465,-4.010238,2.560156,0.114753,-0.231773,0.316882
15984,8.197738,-4.333893,2.454840,0.033139,-0.240076,0.302670
15985,8.362397,-4.517915,2.425445,0.042886,-0.243173,0.283873
15986,8.515335,-4.678476,2.531861,0.068646,-0.243505,0.260656
15987,8.702266,-4.714250,2.605248,0.112274,-0.223419,0.231131
15988,8.755238,-4.550702,2.638290,0.153035,-0.200554,0.177948
15989,8.832286,-4.416464,2.646190,0.119216,-0.152098,0.132651
15990,8.829558,-4.369051,2.789581,0.114735,-0.089105,0.076795
15991,8.785711,-4.302085,2.844386,0.136604,-0.048906,0.013384
15992,8.753024,-4.192560,3.038094,0.165757,-0.019489,-0.027003
15993,8.669021,-4.173787,3.260741,0.105367,-0.048269,-0.058494
15994,8.714724,-4.371808,2.978046,-0.008976,-0.118743,-0.088226
15995,9.145470,-4.678756,2.914435,0.058727,-0.124582,-0.129660
15996,9.502938,-4.707297,3.335806,0.256079,-0.016394,-0.167995
15997,9.444381,-4.341864,3.711549,0.377701,0.097966,-0.220896
15998,9.340379,-3.803117,3.728753,0.399825,0.158908,-0.279879
15999,9.626632,-3.399399,3.714141,0.326393,0.200876,-0.326487
16000,10.066300,-3.253634,3.766561,0.282009,0.324986,-0.370007
16001,10.123973,-3.067823,3.918373,0.316420,0.454934,-0.427312
16002,9.989308,-2.815465,4.157096,0.324138,0.512778,-0.497176
16003,9.962931,-2.627753,4.400398,0.230143,0.482318,-0.569444
16004,10.128540,-2.698154,4.691069,0.086976,0.458036,-0.633334
16005,10.212059,-2.949529,4.778628,0.036748,0.485430,-0.696633
16006,9.964497,-3.109995,4.959146,0.129150,0.552680,-0.765845
16007,9.655510,-3.176804,5.297507,0.206908,0.587224,-0.819389
16008,9.512072,-3.341901,5.550738,0.127429,0.568304,-0.828605
16009,9.526800,-3.723405,5.466820,-0.089979,0.529131,-0.787408
16010,9.552889,-4.481420,5.088191,-0.285204,0.516749,-0.711581
16011,9.564319,-5.448618,4.648150,-0.262212,0.534107,-0.630916
16012,9.574602,-6.282852,4.225778,0.037770,0.599849,-0.564142
16013,9.481357,-6.707511,4.201518,0.483701,0.658653,-0.531019
16014,9.428167,-6.788985,4.400085,0.815282,0.665738,-0.495194
16015,9.412593,-6.759168,4.478865,0.993569,0.676994,-0.441656
16016,9.355240,-6.793975,4.416007,1.153268,0.691140,-0.395657
16017,9.219459,-6.852564,4.356111,1.326546,0.692818,-0.339351
16018,9.146513,-6.652481,4.224314,1.534695,0.709118,-0.282412
16019,9.007694,-6.235646,4.229064,1.675739,0.735896,-0.213281
16020,9.028373,-5.937096,4.351896,1.714566,0.760020,-0.131620
16021,9.037944,-5.680918,4.405732,1.670917,0.808435,-0.034179
16022,8.947074,-5.515125,4.510802,1.575569,0.858226,0.070098
16023,8.700427,-5.383937,4.539515,1.402697,0.921071,0.175253
16024,8.489480,-5.325685,4.399143,1.230690,0.971678,0.271723
16025,8.431512,-5.414287,4.645170,1.102295,1.024760,0.391265
16026,8.349988,-5.432381,4.835109,0.910230,1.091701,0.517359
16027,8.245488,-5.393829,4.678910,0.692355,1.169571,0.646987
16028,8.065403,-5.446416,4.541867,0.497930,1.267862,0.789035
16029,7.983705,-5.446352,4.598222,0.351876,1.317249,0.877762
16030,8.081955,-5.617222,4.678838,0.154733,1.377258,0.988939
16031,7.839292,-5.782406,4.518189,0.012611,1.470363,1.098609
16032,7.498392,-5.836876,4.444467,-0.059537,1.509074,1.173599
16033,7.475859,-5.798096,4.516128,-0.132159,1.515717,1.225723
16034,7.266350,-5.931532,4.570147,-0.231905,1.597476,1.295696
16035,6.807121,-6.058673,4.519295,-0.300316,1.648437,1.360413
16036,6.538331,-6.173203,4.897870,-0.220586,1.648237,1.406189
16037,6.586293,-6.150659,5.715350,-0.222926,1.647752,1.473759
16038,6.558667,-5.983885,5.846106,-0.372886,1.700468,1.556991
16039,6.198984,-5.993426,6.092353,-0.561805,1.837765,1.661226
16040,5.671888,-6.069877,6.055936,-0.704021,1.869677,1.760361
16041,5.390381,-6.237289,6.183842,-0.737438,1.883840,1.844209
16042,5.380533,-6.336211,6.234975,-0.867508,1.920580,1.930030
16043,5.222766,-6.554283,6.014027,-1.005256,1.995184,2.025813
16044,4.804464,-6.770661,6.118977,-1.024447,2.024936,2.073765
16045,4.628842,-6.873422,6.124001,-0.955487,2.037405,2.090684
16046,4.354795,-6.920975,6.547341,-0.933035,2.109336,2.076985
16047,4.000240,-6.749536,6.946499,-1.054723,2.127248,2.067061
16048,3.887823,-6.658608,6.705167,-1.317154,2.177126,2.092514
16049,3.604480,-6.877968,6.066690,-1.540929,2.261347,2.151425
16050,3.105198,-7.309951,5.828072,-1.556290,2.317451,2.185368
16051,2.715556,-7.594238,5.593898,-1.467149,2.224684,2.191766
16052,2.841637,-7.546287,5.374819,-1.360791,2.126895,2.208535
16053,2.795253,-7.411304,5.277595,-1.306418,2.122914,2.221113
16054,2.545568,-7.391451,5.223673,-1.285257,2.090571,2.244820
16055,2.207981,-7.348168,5.073523,-1.282198,2.049616,2.258195
16056,1.825729,-7.295569,5.064222,-1.263440,2.028970,2.266929
16057,1.412259,-7.348761,4.948132,-1.258769,1.997589,2.269985
16058,0.975674,-7.240683,4.839717,-1.199241,1.977810,2.248551
16059,0.627913,-7.227540,5.031097,-1.102932,1.932239,2.215301
16060,0.439852,-7.095451,5.061703,-1.093035,1.846331,2.170551
16061,0.377521,-6.955864,4.889463,-1.143917,1.801746,2.129524
16062,0.122285,-6.921515,5.003736,-1.169126,1.786945,2.090322
16063,0.009225,-7.013645,4.767267,-1.206542,1.733663,2.044887
16064,-0.233588,-7.108929,4.544815,-1.218652,1.735894,1.983366
16065,-0.572847,-7.182176,4.713225,-1.169707,1.726973,1.932616
16066,-0.973049,-7.075249,4.625986,-1.160388,1.664229,1.866018
16067,-1.161174,-7.099707,4.581347,-1.195685,1.612976,1.799848
16068,-1.541872,-7.321459,4.419729,-1.224208,1.568383,1.754952
16069,-1.899805,-7.679117,4.157175,-1.164661,1.495483,1.701019
16070,-1.947148,-7.865787,4.073399,-0.971741,1.377639,1.633604
16071,-1.949568,-7.862435,3.870186,-0.813270,1.297237,1.585441
16072,-2.217031,-7.698522,3.751778,-0.676453,1.231215,1.527085
16073,-2.443668,-7.597684,4.041364,-0.569604,1.192457,1.453393
16074,-2.588210,-7.462322,4.002185,-0.469460,1.135582,1.372302
16075,-2.632349,-7.337300,3.954026,-0.397507,1.083130,1.297666
16076,-2.833535,-7.225689,3.852996,-0.358175,1.071971,1.226089
16077,-3.003034,-7.150001,3.720734,-0.340913,1.031079,1.153700
16078,-2.998723,-7.121382,3.666786,-0.292049,0.988950,1.096376
16079,-2.977406,-7.113142,3.536987,-0.252751,0.947468,1.052975
16080,-3.115717,-6.917414,3.387839,-0.220363,0.945793,0.994654
16081,-3.374978,-6.646557,3.758527,-0.210395,0.932975,0.925082
16082,-3.423901,-6.715602,3.738012,-0.314561,0.869502,0.854086
16083,-3.420701,-6.956843,3.291396,-0.357128,0.834295,0.798004
16084,-3.512723,-7.158043,3.318351,-0.268049,0.832800,0.762171
16085,-3.667926,-7.204014,3.362817,-0.192252,0.788124,0.739386
16086,-3.899798,-7.165191,3.217233,-0.129926,0.749367,0.709514
16087,-4.024275,-7.086491,3.115557,-0.054933,0.703480,0.661450
16088,-4.044175,-7.005185,3.140966,0.006803,0.670367,0.616391
16089,-4.077002,-6.917592,3.091779,0.019571,0.635270,0.575232
16090,-4.109033,-6.853655,3.285463,0.040783,0.614469,0.537900
16091,-4.190523,-6.847312,3.364701,0.028889,0.596931,0.508994
16092,-4.372837,-6.865820,3.190469,0.027676,0.581196,0.476317
16093,-4.503474,-6.807493,3.080643,0.018720,0.566058,0.425214
16094,-4.498426,-6.745670,2.954113,0.020862,0.531469,0.386754
16095,-4.465290,-6.747576,2.850410,0.040578,0.493453,0.346363
16096,-4.547924,-6.696998,2.753757,0.068328,0.471492,0.315157
16097,-4.780231,-6.610819,2.642916,0.076226,0.460514,0.285877
16098,-5.107512,-6.511066,2.504755,0.090394,0.417769,0.256636
16099,-5.133267,-6.475602,2.441018,0.094725,0.341973,0.211162
16100,-4.892055,-6.460456,2.345605,0.100543,0.276279,0.144112
16101,-4.491950,-6.552728,2.304792,0.127330,0.223020,0.070271
16102,-4.294265,-6.544994,2.162698,0.197512,0.190325,0.006173
16103,-4.284713,-6.376090,2.026683,0.269852,0.128753,-0.069823
16104,-4.222960,-6.132774,1.963007,0.308136,0.051665,-0.148807
16105,-4.051650,-5.744280,2.114807,0.286461,-0.041799,-0.242857
16106,-3.951897,-5.562246,2.313287,0.177111,-0.149535,-0.338797
16107,-3.774155,-5.569802,2.244615,0.034895,-0.268800,-0.433524
16108,-3.663447,-5.783104,2.281719,-0.039616,-0.347760,-0.525552
16109,-3.779655,-6.089077,2.476457,-0.072530,-0.412558,-0.601129
16110,-3.921381,-6.423027,2.536358,-0.052886,-0.483816,-0.665573
16111,-3.887967,-6.551177,2.740089,0.037295,-0.545570,-0.724632
16112,-3.854533,-6.508311,3.114410,0.105246,-0.578917,-0.781227
16113,-3.699069,-6.499651,3.319009,0.119543,-0.612186,-0.856538
16114,-3.445410,-6.604388,3.483989,0.131427,-0.631095,-0.935342
16115,-3.379282,-6.713034,3.649913,0.161524,-0.642862,-1.010970
16116,-3.381005,-6.733109,3.719777,0.195744,-0.684271,-1.093903
16117,-3.243669,-6.686398,3.702216,0.241294,-0.744694,-1.175508
16118,-3.161710,-6.734123,3.786855,0.264096,-0.795337,-1.246437
16119,-3.091173,-6.953747,3.705375,0.283989,-0.857400,-1.316251
16120,-2.968283,-7.183408,3.597854,0.398095,-0.901654,-1.382543
16121,-2.896661,-7.262826,3.717816,0.514230,-0.947134,-1.452234
16122,-2.691402,-7.278361,3.648204,0.599680,-1.009655,-1.523513
16123,-2.484459,-7.071822,3.554342,0.624100,-1.086035,-1.612349
16124,-2.412043,-6.838395,3.411241,0.582873,-1.198461,-1.703863
16125,-2.572291,-6.783887,3.505976,0.484020,-1.368607,-1.827116
16126,-2.485962,-6.991399,3.739506,0.485704,-1.507964,-1.917150
16127,-2.320628,-7.239904,3.990343,0.679336,-1.587940,-1.951957
16128,-2.194633,-7.296871,4.246567,0.900034,-1.627736,-1.943689
16129,-1.911572,-7.231167,4.431320,1.047448,-1.645546,-1.943760
16130,-1.245904,-7.060888,4.504720,1.180243,-1.672854,-1.998586
16131,-0.321027,-6.907870,4.471223,1.273955,-1.695476,-2.070810
16132,0.290403,-6.851905,4.509953,1.281410,-1.676502,-2.147859
16133,0.387891,-6.921771,4.756705,1.266766,-1.629224,-2.236808
16134,0.409563,-7.177711,5.032221,1.259948,-1.627869,-2.290680
16135,0.608776,-7.410901,5.215732,1.244578,-1.644308,-2.336383
16136,0.930328,-7.736603,5.669415,1.253277,-1.654208,-2.375889
16137,1.036026,-8.002439,5.887584,1.256186,-1.691597,-2.426969
16138,1.065448,-8.175447,5.955564,1.270687,-1.754991,-2.473961
16139,1.301936,-8.320374,5.986366,1.356510,-1.834141,-2.491047
16140,1.530911,-8.320266,5.893660,1.449448,-1.875534,-2.492696
16141,1.830884,-8.308523,5.790414,1.541187,-1.906081,-2.491393
16142,2.219809,-8.143371,5.813002,1.648842,-1.907415,-2.497421
16143,2.703656,-7.878155,6.011165,1.748029,-1.926700,-2.520794
16144,3.178824,-7.545897,6.237805,1.790683,-1.985215,-2.578700
16145,3.667435,-7.361671,6.481206,1.743360,-2.061118,-2.654319
16146,4.027430,-7.351724,6.616641,1.664879,-2.105872,-2.690982
16147,4.034769,-7.328390,6.589472,1.646571,-2.093152,-2.678511
16148,3.809853,-7.100919,6.424062,1.695423,-2.120130,-2.652695
16149,4.210879,-6.655245,6.056445,1.798626,-2.223534,-2.641191
16150,4.852518,-6.045637,5.875122,1.919871,-2.295842,-2.667507
16151,5.603992,-5.597173,6.224327,1.916791,-2.311143,-2.686317
16152,6.007962,-5.761211,6.819354,1.637781,-2.264422,-2.643972
16153,5.764365,-6.367605,6.638307,1.340566,-2.139823,-2.566275
16154,4.994778,-6.647446,6.632708,1.444134,-2.025682,-2.477652
16155,4.572795,-6.342816,6.957510,1.690215,-2.051195,-2.378493
16156,4.966904,-5.750342,7.277598,1.651409,-2.116818,-2.253978
16157,5.885114,-5.315422,6.920701,1.377116,-2.139832,-2.075854
16158,6.818047,-5.335015,6.494966,1.134431,-2.055691,-1.864868
16159,7.448886,-5.791565,6.693968,0.957894,-1.871028,-1.664392
16160,7.619692,-6.494465,6.803237,0.777896,-1.696596,-1.459908
16161,7.319543,-6.914393,6.478826,0.776109,-1.571288,-1.309421
16162,6.920440,-6.857951,6.680840,0.932749,-1.515806,-1.188171
16163,6.807462,-6.538254,6.507039,1.024149,-1.547408,-1.081239
16164,6.659710,-5.981769,6.614648,1.106036,-1.578129,-0.991421
16165,6.795534,-5.553320,6.677647,1.000524,-1.620602,-0.871469
16166,7.158853,-5.399505,6.187250,0.862367,-1.664004,-0.674143
16167,7.433956,-5.414183,5.920696,0.819572,-1.579131,-0.476370
16168,7.478648,-5.575937,6.026976,0.776186,-1.441865,-0.293007
16169,7.387633,-5.490482,5.478338,0.791667,-1.348879,-0.191863
16170,7.196127,-4.836932,5.322504,1.005159,-1.222946,-0.190463
16171,7.210081,-4.114035,5.890783,1.129490,-1.165902,-0.176324
16172,7.604993,-3.674270,6.117199,0.920387,-1.143132,-0.134747
16173,8.119275,-3.459266,6.139890,0.528274,-1.081017,-0.021554
16174,8.477722,-3.579483,5.897611,0.162645,-0.951473,0.102340
16175,8.474328,-3.786582,5.562664,-0.033009,-0.807891,0.216295
16176,8.332656,-3.960505,5.245977,-0.189012,-0.732280,0.305232
16177,8.254451,-4.028387,4.640146,-0.329385,-0.687631,0.370518
16178,8.256295,-4.064971,4.165522,-0.389554,-0.639918,0.402026
16179,8.191084,-3.908628,3.865355,-0.274682,-0.615777,0.396461
16180,8.168072,-3.474601,4.369259,-0.132275,-0.547234,0.361104
16181,8.298344,-3.278810,4.930316,-0.296435,-0.526273,0.371959
16182,8.376308,-3.381347,4.790815,-0.673113,-0.541928,0.455152
16183,8.299500,-3.776447,4.231720,-0.952210,-0.550248,0.541222
16184,8.321263,-4.085684,3.611143,-1.028195,-0.549556,0.605924
16185,8.343650,-4.427981,3.235112,-0.956702,-0.557063,0.659368
16186,8.445404,-4.521868,2.949447,-0.833904,-0.571297,0.678046
16187,8.585170,-4.374122,2.833501,-0.595314,-0.530401,0.633894
16188,8.667968,-3.917707,3.475305,-0.279440,-0.477628,0.562123
16189,8.796805,-3.526258,4.528239,-0.145057,-0.441254,0.511217
16190,8.852454,-3.071220,5.046906,-0.306552,-0.421913,0.516595
16191,8.788273,-2.997325,4.998516,-0.699338,-0.412733,0.557634
16192,8.726202,-3.409423,4.592982,-1.048958,-0.431607,0.632865
16193,8.806549,-4.083037,4.104692,-1.187305,-0.462779,0.726237
16194,8.917450,-4.679520,3.706734,-1.177120,-0.485985,0.792972
16195,9.054454,-5.020992,3.514028,-1.023370,-0.485638,0.808335
16196,9.103264,-5.026878,3.641020,-0.866025,-0.455041,0.800534
16197,9.041291,-4.925560,3.852989,-0.850765,-0.404697,0.749632
16198,8.893486,-4.843600,3.993257,-0.882785,-0.331876,0.703348
16199,8.601348,-4.739318,3.876702,-0.906147,-0.282512,0.672463
16200,8.341501,-4.659385,3.799163,-0.868984,-0.278474,0.650810
16201,8.194764,-4.636694,3.686396,-0.844200,-0.297929,0.651505
16202,8.187344,-4.667373,3.551853,-0.878116,-0.334717,0.654607
16203,8.264515,-4.809173,3.365342,-0.877220,-0.350430,0.663778
16204,8.354800,-4.923392,3.210561,-0.768637,-0.330860,0.648744
16205,8.400893,-4.805767,3.144229,-0.560819,-0.296308,0.607465
16206,8.596921,-4.565803,3.275633,-0.365654,-0.245191,0.562133
16207,8.662214,-4.138615,3.466817,-0.279908,-0.188221,0.513026
16208,8.606547,-3.811882,3.447757,-0.282567,-0.155167,0.471895
16209,8.574503,-3.556440,3.362989,-0.322605,-0.149092,0.420501
16210,8.644829,-3.495684,3.408161,-0.383869,-0.138076,0.374350
16211,8.574178,-3.650979,3.473128,-0.493486,-0.137772,0.342127
16212,8.613245,-3.924253,3.463547,-0.586907,-0.132781,0.330063
16213,8.675049,-4.316852,3.442079,-0.644414,-0.123015,0.329831
16214,8.666183,-4.544313,3.321459,-0.610760,-0.088225,0.317821
16215,8.598293,-4.681632,3.269079,-0.539466,-0.054360,0.301083
16216,8.552822,-4.754149,3.298245,-0.478786,-0.039608,0.273538
16217,8.471064,-4.859010,3.298324,-0.470730,-0.040221,0.250686
16218,8.416931,-4.978492,3.072932,-0.483059,-0.049647,0.224300
16219,8.308907,-5.191467,2.790154,-0.484699,-0.057951,0.209863
16220,8.281040,-5.541884,2.662751,-0.445553,-0.070222,0.199928
16221,8.243667,-5.878176,2.515509,-0.344767,-0.072780,0.193734
16222,8.160825,-6.100664,2.420541,-0.175949,-0.077810,0.198836
16223,8.027543,-6.121259,2.313331,0.036558,-0.086580,0.197670
16224,8.029146,-5.970276,2.424255,0.211013,-0.098079,0.201410
16225,7.999608,-5.779957,2.426493,0.289837,-0.108523,0.198024
16226,8.018256,-5.579814,2.326071,0.320283,-0.113590,0.190246
16227,8.086230,-5.403301,2.251588,0.356465,-0.112709,0.179939
16228,8.091758,-5.302353,2.224303,0.372880,-0.098477,0.175924
16229,8.074435,-5.249491,2.241608,0.372501,-0.084345,0.175101
16230,7.887006,-5.409672,2.398527,0.350024,-0.087134,0.189772
16231,7.470062,-5.604816,2.369701,0.295160,-0.130051,0.216988
16232,7.274358,-5.719511,2.137766,0.265902,-0.183654,0.242706
16233,7.449785,-5.693219,1.874663,0.259106,-0.212856,0.259651
16234,7.771685,-5.591760,1.849285,0.293260,-0.200730,0.251422
16235,8.078597,-5.511724,2.113472,0.322468,-0.159093,0.220479
16236,8.214258,-5.308705,2.309063,0.315172,-0.111521,0.172489
16237,8.353983,-4.899501,2.372761,0.338235,-0.047508,0.100572
16238,8.432605,-4.239155,2.236499,0.340851,0.010343,0.016702
16239,8.350355,-3.771036,2.653594,0.256419,0.066225,-0.039956
16240,8.467020,-3.819801,3.428328,-0.112498,0.100602,-0.023126
16241,8.136699,-4.323952,3.380840,-0.633745,0.113050,0.012946
16242,7.746955,-5.142105,2.809448,-0.843581,0.101161,0.037096
16243,7.716393,-5.707554,2.485374,-0.750608,0.075159,0.076690
16244,7.766050,-6.051712,2.379680,-0.625840,0.030952,0.121439
16245,7.808632,-6.253504,2.258423,-0.580364,-0.041077,0.138921
16246,8.111756,-6.493856,2.119030,-0.501236,-0.119483,0.118595
16247,8.422795,-6.659218,1.899733,-0.288448,-0.109788,0.092462
16248,8.522826,-6.560188,1.869097,0.059328,-0.052916,0.064996
16249,8.426042,-6.034736,2.051730,0.333659,-0.029207,0.042570
16250,8.465390,-5.398993,2.211686,0.457294,-0.039464,0.025061
16251,8.465095,-4.930579,2.297487,0.470024,-0.030685,0.006960
16252,8.517469,-4.619982,2.450333,0.425527,-0.027798,-0.018523
16253,8.503985,-4.399960,2.491178,0.343009,-0.020538,-0.043666
16254,8.614089,-4.197529,2.465415,0.225150,-0.018628,-0.080921
16255,8.697988,-4.102365,2.332528,0.074508,-0.001418,-0.130557
16256,8.759936,-4.101574,2.216098,-0.039262,0.027825,-0.186132
16257,8.711239,-4.049012,2.170601,-0.126178,0.056734,-0.251156
16258,8.632217,-4.030508,2.147991,-0.220253,0.081108,-0.303775
16259,8.507338,-4.033407,2.073263,-0.296465,0.097112,-0.358885
16260,8.370347,-4.091479,2.061656,-0.314204,0.100322,-0.408878
16261,8.199027,-4.162868,2.174350,-0.291687,0.094271,-0.463277
16262,8.181041,-4.103197,2.288393,-0.214909,0.101637,-0.532568
16263,8.194090,-3.777635,2.409700,-0.127275,0.133295,-0.604543
16264,8.220813,-3.459115,2.610516,-0.107961,0.157380,-0.676087
16265,8.368690,-3.188325,2.761556,-0.156776,0.180513,-0.751252
16266,8.534236,-3.114789,2.830316,-0.278610,0.189241,-0.827533
16267,8.697599,-3.198328,2.874555,-0.418335,0.195141,-0.907568
16268,8.752764,-3.580012,2.840504,-0.526333,0.210116,-0.994354
16269,8.642150,-4.055434,2.682298,-0.563090,0.230310,-1.073902
16270,8.619951,-4.338580,2.581247,-0.515375,0.242322,-1.143362
16271,8.731454,-4.532377,2.495431,-0.405933,0.243367,-1.204037
16272,8.858600,-4.490957,2.465289,-0.294582,0.250243,-1.263484
16273,9.072392,-4.385707,2.458418,-0.201104,0.265068,-1.328220
16274,9.221558,-4.232565,2.358370,-0.114214,0.284465,-1.402094
16275,9.310151,-3.892013,2.141814,-0.052655,0.281977,-1.496994
16276,9.472106,-3.410395,1.775511,-0.011903,0.267132,-1.604779
16277,9.805983,-2.791596,1.027089,0.034810,0.268668,-1.747220
16278,10.263491,-2.029334,0.773749,0.098750,0.291858,-1.878536
16279,10.610051,-1.544585,1.401203,-0.018429,0.309652,-1.924742
16280,10.554692,-1.793041,2.237648,-0.635732,0.291631,-1.913428
16281,10.207144,-2.890053,1.920241,-1.443675,0.240727,-1.861873
16282,9.944332,-4.354426,0.807188,-1.718290,0.267495,-1.790534
16283,9.700488,-5.310181,0.235234,-1.289262,0.379283,-1.710068
16284,9.480887,-5.217375,0.951528,-0.778988,0.471042,-1.647315
16285,9.245693,-4.649286,1.683393,-0.727523,0.453328,-1.585122
16286,9.184546,-4.391750,1.693592,-0.825679,0.386493,-1.546578
16287,9.158040,-4.194756,1.622127,-0.795693,0.358498,-1.529877
16288,9.064055,-3.805589,1.920838,-0.758793,0.379441,-1.521602
16289,8.858521,-3.455287,2.295986,-0.844861,0.410494,-1.497564
16290,8.586716,-3.347545,2.594856,-1.054027,0.431683,-1.432938
16291,8.368767,-3.764779,2.580801,-1.260506,0.410620,-1.353234
16292,8.365688,-4.365977,2.196727,-1.294459,0.376302,-1.270516
16293,8.483746,-4.790301,1.945847,-1.112301,0.343903,-1.184891
16294,8.614573,-4.906414,1.935562,-0.842801,0.306077,-1.098468
16295,8.799247,-4.872248,2.036706,-0.671676,0.252598,-1.020830
16296,9.030111,-4.793989,1.890136,-0.502068,0.201080,-0.966038
16297,9.192693,-4.569160,1.799544,-0.275288,0.180142,-0.928009
16298,9.227618,-4.239506,1.841200,-0.070783,0.157250,-0.890042
16299,9.171264,-3.778846,1.879893,0.075642,0.125357,-0.854983
16300,9.207152,-3.287139,1.907343,0.156408,0.099170,-0.819076
16301,9.294264,-2.799810,1.927336,0.177863,0.071829,-0.769312
16302,9.443023,-2.438190,1.966731,0.126843,0.048291,-0.720828
16303,9.573908,-2.182126,1.992166,0.060818,0.029316,-0.681837
16304,9.611321,-1.988064,2.133240,-0.004484,0.023088,-0.654075
16305,9.605575,-1.839407,2.154895,-0.083530,0.020849,-0.643284
16306,9.432969,-1.770676,2.117853,-0.165985,0.028528,-0.618542
16307,9.248461,-1.859872,2.046514,-0.197127,-0.004162,-0.599507
16308,9.087567,-1.895908,1.891746,-0.143841,-0.061790,-0.546117
16309,8.908068,-1.623548,1.701754,-0.079786,-0.131737,-0.516662
16310,8.864635,-1.316830,1.715384,-0.070886,-0.194155,-0.504437
16311,9.034984,-1.224310,1.926162,-0.201178,-0.221040,-0.485526
16312,9.091829,-1.225413,1.855985,-0.385129,-0.206074,-0.474643
16313,9.000787,-1.200743,1.831559,-0.440625,-0.158541,-0.464813
16314,8.953697,-1.264703,2.022974,-0.494893,-0.113625,-0.439373
16315,8.947690,-1.310605,2.138704,-0.551491,-0.079290,-0.402382
16316,8.972239,-1.327186,2.282879,-0.627144,-0.062729,-0.365719
16317,9.031338,-1.395635,2.444667,-0.719430,-0.070618,-0.329963
16318,9.062057,-1.587394,2.439642,-0.843199,-0.099095,-0.293316
16319,9.154475,-1.810529,2.309945,-0.921956,-0.140801,-0.263596
16320,9.280343,-2.096743,2.151343,-0.903831,-0.163009,-0.232076
16321,9.392878,-2.294251,2.104490,-0.804507,-0.179428,-0.228481
16322,9.457347,-2.251598,2.051486,-0.667683,-0.177121,-0.233741
16323,9.546334,-2.064788,2.156529,-0.547533,-0.156584,-0.226476
16324,9.640292,-1.871686,2.233486,-0.474273,-0.143357,-0.215689
16325,9.580725,-1.800167,2.389301,-0.446211,-0.137859,-0.194944
16326,9.531294,-1.807164,2.301321,-0.421871,-0.156131,-0.178607
16327,9.562876,-1.710058,2.211412,-0.335791,-0.168650,-0.171909
16328,9.598492,-1.533334,2.228019,-0.249806,-0.176772,-0.152866
16329,9.581820,-1.378798,2.304229,-0.217983,-0.174783,-0.146433
16330,9.506608,-1.301631,2.249080,-0.232820,-0.173338,-0.145624
16331,9.445597,-1.282219,2.184968,-0.252398,-0.174427,-0.143945
16332,9.382040,-1.238917,2.036251,-0.250152,-0.175826,-0.146786
16333,9.420491,-1.164817,1.929519,-0.242457,-0.157726,-0.148378
16334,9.425592,-1.116060,1.867880,-0.237695,-0.133961,-0.151184
16335,9.410914,-1.103738,1.869270,-0.264451,-0.107563,-0.148454
16336,9.438155,-1.089745,1.808502,-0.256167,-0.083258,-0.155773
16337,9.463056,-1.067965,1.822491,-0.264562,-0.067561,-0.153284
16338,9.410081,-1.199773,1.808026,-0.335378,-0.077968,-0.128790
16339,9.458824,-1.432659,1.622357,-0.359623,-0.100389,-0.117982
16340,9.490789,-1.521976,1.429179,-0.307914,-0.100240,-0.100427
16341,9.579647,-1.529872,1.443820,-0.198406,-0.092789,-0.099967
16342,9.610700,-1.335824,1.589648,-0.145521,-0.072633,-0.100193
16343,9.621467,-1.240717,1.728969,-0.175455,-0.064355,-0.092250
16344,9.623937,-1.276165,1.764553,-0.214968,-0.062496,-0.080357
16345,9.666763,-1.304337,1.807767,-0.233571,-0.066056,-0.063688
16346,9.590157,-1.408653,1.796383,-0.253271,-0.069192,-0.049634
16347,9.616100,-1.549357,1.682229,-0.245959,-0.080145,-0.037203
16348,9.612734,-1.517010,1.660291,-0.183406,-0.087024,-0.035883
16349,9.657960,-1.453089,1.654235,-0.123200,-0.083184,-0.021358
16350,9.675060,-1.403947,1.731330,-0.106726,-0.079757,-0.023359
16351,9.639163,-1.358930,1.710529,-0.095633,-0.077079,-0.011710
16352,9.665529,-1.293645,1.722609,-0.076166,-0.072271,-0.008939
16353,9.728524,-1.232717,1.703739,-0.076789,-0.062707,-0.002546
16354,9.743243,-1.244094,1.714703,-0.063054,-0.047565,-0.005552
16355,9.742236,-1.199091,1.739619,-0.054516,-0.034231,0.001583
16356,9.731774,-1.171961,1.831539,-0.069567,-0.031989,0.006187
16357,9.723147,-1.155101,1.777097,-0.072900,-0.036667,0.016051
16358,9.716912,-1.226166,1.735944,-0.076204,-0.038984,0.027115
16359,9.708847,-1.252362,1.724391,-0.062540,-0.039345,0.036936
16360,9.690659,-1.254914,1.736142,-0.036586,-0.034933,0.038710
16361,9.706578,-1.174120,1.703777,-0.001784,-0.019308,0.040648
16362,9.698611,-1.095385,1.794946,-0.004693,-0.011242,0.040728
16363,9.706578,-1.078077,1.801368,-0.042331,0.006523,0.044454
16364,9.642510,-1.062568,1.726432,-0.052110,0.012289,0.050168
16365,9.634124,-1.131984,1.762757,-0.068543,0.001223,0.058447
16366,9.626497,-1.169623,1.609355,-0.064682,0.009616,0.065188
16367,9.611006,-1.161627,1.665992,-0.032769,0.015026,0.065265
16368,9.626821,-1.124748,1.681488,-0.018883,0.023686,0.066419
16369,9.614364,-1.062128,1.736402,-0.031155,0.024333,0.066842
16370,9.640078,-1.049236,1.729353,-0.045136,0.024490,0.062789
16371,9.648224,-1.038544,1.665773,-0.045894,0.038088,0.063948
16372,9.610161,-1.041123,1.701320,-0.044516,0.046726,0.057842
16373,9.600306,-1.069304,1.697962,-0.060217,0.041018,0.056874
16374,9.671134,-1.038407,1.667541,-0.067253,0.042818,0.057181
16375,9.657793,-1.121442,1.667139,-0.072350,0.048803,0.060869
16376,9.639261,-1.172089,1.656574,-0.080961,0.043696,0.060751
16377,9.599898,-1.279245,1.591028,-0.087130,0.039001,0.063485
16378,9.613120,-1.301456,1.537614,-0.060907,0.035784,0.065911
16379,9.647385,-1.309041,1.581668,-0.033528,0.034444,0.072144
16380,9.613838,-1.261780,1.540415,-0.034099,0.033512,0.070227
16381,9.616267,-1.255780,1.583157,-0.017113,0.027233,0.061927
16382,9.613884,-1.215917,1.616168,0.011377,0.031478,0.053235
16383,9.633713,-1.164320,1.673905,0.025312,0.031946,0.047333
16384,9.667120,-1.123173,1.748814,0.013399,0.032962,0.041915
16385,9.630468,-1.126475,1.710769,-0.006137,0.034840,0.034918
16386,9.597582,-1.116629,1.712844,-0.006520,0.035227,0.030729
16387,9.633616,-1.123636,1.683902,-0.015638,0.025784,0.024013
16388,9.608125,-1.236557,1.634647,-0.014657,0.029396,0.021323
16389,9.606265,-1.192992,1.667592,0.011345,0.027792,0.017362
16390,9.637540,-1.207679,1.671361,0.002701,0.022692,0.017248
16391,9.638311,-1.212745,1.600589,0.019811,0.023449,0.012630
16392,9.628027,-1.189469,1.626123,0.038732,0.021295,0.007772
16393,9.625242,-1.098526,1.689235,0.023204,0.028140,0.002827
16394,9.634500,-1.122056,1.669568,0.014224,0.036944,-0.001899
16395,9.611669,-1.173950,1.691436,0.000301,0.028383,-0.003157
16396,9.604020,-1.198976,1.614074,0.015408,0.030724,-0.005241
16397,9.620573,-1.196253,1.674797,0.027390,0.035114,-0.007375
16398,9.605456,-1.138224,1.691594,0.038746,0.036194,-0.012610
16399,9.631876,-1.158338,1.729540,0.042904,0.028960,-0.012402
16400,9.632741,-1.202769,1.702282,0.005823,0.024382,-0.001478
