// Start Time: Unknown
// Update Rate: 100.0Hz
// Filter Profile: human (46.1)
// Firmware Version: 4.3.5
PacketCounter,Acc_X,Acc_Y,Acc_Z,Gyr_X,Gyr_Y,Gyr_Z
14997,9.584792,-2.292557,1.353800,-0.015926,0.012672,-0.003571
14998,9.570402,-2.312123,1.357817,-0.011687,0.020461,-0.002035
14999,9.584405,-2.292425,1.356754,-0.005641,0.018799,-0.001459
15000,9.556103,-2.240388,1.367824,-0.001812,0.019006,-0.001024
15001,9.569687,-2.279847,1.375618,-0.004029,0.018489,-0.000668
15002,9.569358,-2.280143,1.377416,-0.002197,0.020569,0.005954
15003,9.556018,-2.251677,1.304851,-0.005207,0.018808,0.011193
15004,9.541253,-2.240212,1.322202,-0.006224,0.024731,0.008261
15005,9.569238,-2.169616,1.331424,-0.012681,0.021204,0.006083
15006,9.568334,-2.197551,1.354577,-0.025984,0.022878,0.007216
15007,9.525622,-2.198289,1.355418,-0.032444,0.021744,0.004540
15008,9.581916,-2.275737,1.316613,-0.026615,0.020080,-0.001207
15009,9.526200,-2.273117,1.264456,-0.009891,0.018196,-0.004487
15010,9.539931,-2.279746,1.284830,0.011464,0.015371,-0.011713
15011,9.568470,-2.206978,1.293807,0.014887,0.012772,-0.013368
15012,9.568594,-2.173194,1.308078,0.013465,0.013503,-0.017899
15013,9.540740,-2.151646,1.306107,0.001777,0.012473,-0.015485
15014,9.540983,-2.150166,1.306770,-0.010719,0.003439,-0.016767
15015,9.556174,-2.166085,1.257255,-0.014960,0.002820,-0.019799
15016,9.527717,-2.230587,1.283831,-0.006495,-0.002691,-0.022314
15017,9.528324,-2.228301,1.283297,0.008623,-0.009033,-0.025391
15018,9.543397,-2.237796,1.267310,0.023323,-0.011004,-0.032051
15019,9.557615,-2.236150,1.319776,0.044259,-0.014212,-0.041866
15020,9.559080,-2.172249,1.310625,0.052101,-0.015754,-0.044229
15021,9.546683,-2.191816,1.278652,0.046426,-0.018027,-0.051297
15022,9.561454,-2.220550,1.318305,0.047607,-0.016346,-0.053595
15023,9.548950,-2.175245,1.311508,0.053233,-0.020787,-0.055109
15024,9.564561,-2.149653,1.307893,0.046567,-0.019951,-0.054547
15025,9.522883,-2.165674,1.361851,0.042729,-0.022541,-0.054490
15026,9.567384,-2.197065,1.314631,0.042290,-0.020552,-0.057584
15027,9.498459,-2.230356,1.318343,0.042472,-0.024897,-0.060327
15028,9.514796,-2.209237,1.280079,0.063578,-0.028017,-0.063836
15029,9.516904,-2.234129,1.266295,0.082043,-0.032063,-0.069583
15030,9.546634,-2.240479,1.302829,0.095444,-0.030815,-0.074976
15031,9.563122,-2.244278,1.286673,0.112081,-0.034930,-0.077785
15032,9.564705,-2.256825,1.341653,0.123074,-0.036977,-0.078587
15033,9.594869,-2.235030,1.356818,0.124009,-0.035653,-0.077164
15034,9.568849,-2.179782,1.331047,0.117714,-0.031997,-0.074521
15035,9.556365,-2.185601,1.367916,0.104772,-0.022806,-0.072317
15036,9.586936,-2.229263,1.358901,0.092530,-0.027117,-0.068206
15037,9.603469,-2.266694,1.331060,0.074439,-0.017896,-0.060888
15038,9.562725,-2.260465,1.330716,0.069201,-0.013033,-0.056804
15039,9.578018,-2.261480,1.349881,0.057791,-0.009375,-0.049038
15040,9.566116,-2.314185,1.306960,0.050241,-0.010246,-0.039817
15041,9.553662,-2.388901,1.319880,0.049902,-0.011043,-0.032331
15042,9.568899,-2.424854,1.326591,0.061463,-0.015416,-0.019951
15043,9.583395,-2.429525,1.345590,0.070177,-0.014004,-0.007595
15044,9.555415,-2.435387,1.364189,0.085298,-0.020513,-0.000608
15045,9.556527,-2.499465,1.339908,0.097887,-0.028352,0.014234
15046,9.570868,-2.539127,1.346457,0.113806,-0.031577,0.025873
15047,9.542600,-2.553554,1.330694,0.127510,-0.035324,0.037875
15048,9.569912,-2.596480,1.390132,0.128856,-0.039065,0.056741
15049,9.640537,-2.717524,1.357512,0.131088,-0.049046,0.082345
15050,9.752680,-2.867554,1.346376,0.126145,-0.063829,0.110747
15051,9.936162,-3.208453,1.244481,0.127286,-0.082828,0.150322
15052,9.947214,-3.530873,1.276826,0.177343,-0.105900,0.194263
15053,9.800088,-3.714470,1.318763,0.247884,-0.128060,0.251069
15054,9.579613,-3.863384,1.460374,0.339012,-0.160038,0.305772
15055,9.371272,-3.968411,1.578089,0.427704,-0.189644,0.366521
15056,9.302229,-4.010816,1.615309,0.506635,-0.216579,0.425007
15057,9.259199,-4.069780,1.691844,0.571345,-0.228004,0.482492
15058,9.269792,-4.152477,1.722221,0.638944,-0.227259,0.534870
15059,9.249971,-4.199807,1.695479,0.693761,-0.220916,0.582845
15060,9.230134,-4.177727,1.727077,0.749321,-0.210079,0.627704
15061,9.267218,-4.107740,1.766670,0.783861,-0.190841,0.664908
15062,9.333622,-4.002727,1.798552,0.794237,-0.158719,0.689225
15063,9.413531,-3.915173,1.816489,0.774699,-0.123933,0.713143
15064,9.390019,-3.911516,1.821704,0.736735,-0.090270,0.735232
15065,9.401791,-4.004742,1.832756,0.683070,-0.060891,0.765179
15066,9.317247,-4.038908,1.903295,0.627304,-0.027787,0.791740
15067,9.208742,-4.168308,1.929084,0.581058,-0.000521,0.820361
15068,9.083309,-4.292542,1.938018,0.557455,0.028000,0.837182
15069,9.023532,-4.442748,1.953895,0.565254,0.036554,0.857585
15070,8.935508,-4.557060,1.909966,0.589400,0.060801,0.870486
15071,8.885825,-4.685880,1.836445,0.636363,0.067809,0.883781
15072,8.913592,-4.859180,1.758806,0.701519,0.073724,0.895606
15073,8.881409,-4.823121,1.733308,0.768137,0.084252,0.906821
15074,8.875180,-4.810533,1.715521,0.807631,0.079989,0.919705
15075,8.966081,-4.726318,1.869253,0.810181,0.090548,0.943183
15076,9.055790,-4.655671,1.988775,0.775100,0.101489,0.971324
15077,9.081030,-4.715663,2.080166,0.722798,0.128101,1.000355
15078,9.015803,-4.870829,2.081157,0.673977,0.160619,1.026223
15079,9.010397,-5.073150,1.968002,0.646604,0.189823,1.055386
15080,8.960558,-5.186127,1.973327,0.614776,0.213951,1.083065
15081,8.889387,-5.123227,1.896373,0.559855,0.237561,1.117307
15082,8.787758,-5.009812,1.852512,0.463417,0.239905,1.137509
15083,8.716686,-4.963124,1.824209,0.358465,0.242698,1.156193
15084,8.604202,-5.208806,1.754777,0.271499,0.239074,1.171341
15085,8.512825,-5.567598,1.779453,0.260846,0.229350,1.181168
15086,8.481097,-5.838195,1.822906,0.309106,0.220364,1.197446
15087,8.442558,-5.953006,1.922538,0.387470,0.220773,1.204241
15088,8.416516,-5.973448,1.990410,0.475468,0.218420,1.204789
15089,8.356474,-5.919757,2.019092,0.560495,0.221704,1.200347
15090,8.299117,-5.863472,2.051219,0.624954,0.223690,1.192148
15091,8.239196,-5.830296,2.022163,0.678243,0.232834,1.174127
15092,8.164972,-5.814741,1.910870,0.712269,0.234003,1.159901
15093,8.125401,-5.732832,1.920252,0.744516,0.230328,1.142849
15094,8.093107,-5.657028,1.838286,0.767645,0.229053,1.107640
15095,7.965004,-5.513279,1.830657,0.776626,0.228987,1.082827
15096,7.842729,-5.365799,1.819308,0.765512,0.218087,1.048769
15097,7.788294,-5.292995,1.774742,0.741110,0.203416,1.012410
15098,7.773622,-5.385041,1.742037,0.726473,0.192138,0.981801
15099,7.761090,-5.573297,1.735438,0.730179,0.185063,0.955267
15100,7.694661,-5.552339,1.792648,0.761881,0.175739,0.918175
15101,7.638389,-5.451889,1.811988,0.775540,0.164492,0.891414
15102,7.535306,-5.265271,1.794230,0.779621,0.159021,0.850761
15103,7.429885,-5.119269,1.932020,0.772124,0.162055,0.805059
15104,7.320892,-4.917681,1.944591,0.746049,0.162275,0.753687
15105,7.277174,-4.801292,2.009619,0.699641,0.147411,0.699442
15106,7.220878,-4.766219,1.997748,0.639612,0.125256,0.654802
15107,7.204138,-4.767842,2.037201,0.610197,0.106523,0.595885
15108,7.244909,-4.885073,1.934405,0.619618,0.086888,0.538415
15109,7.261254,-4.950663,1.969501,0.676708,0.088600,0.477441
15110,7.285575,-4.899630,2.144485,0.749811,0.072074,0.420677
15111,7.323589,-4.632724,2.341244,0.790439,0.076375,0.370142
15112,7.310391,-4.368538,2.447737,0.772002,0.086999,0.315241
15113,7.315363,-4.264048,2.421576,0.727364,0.090107,0.257677
15114,7.270161,-4.265872,2.362897,0.678584,0.081726,0.198276
15115,7.315619,-4.373005,2.210927,0.648669,0.055821,0.147487
15116,7.461568,-4.469751,2.261480,0.626719,0.035913,0.101720
15117,7.471739,-4.504971,2.438375,0.613295,0.009178,0.060229
15118,7.606095,-4.526686,2.507816,0.598973,0.001933,0.022666
15119,7.620205,-4.399636,2.605298,0.582064,0.006106,-0.008426
15120,7.565745,-4.255998,2.597896,0.542824,-0.005299,-0.039297
15121,7.628925,-4.180587,2.468091,0.489633,-0.018781,-0.063138
15122,7.645823,-4.193071,2.421104,0.458491,-0.017315,-0.095021
15123,7.592173,-4.074531,2.589177,0.424436,-0.035860,-0.121906
15124,7.449373,-3.956992,2.872944,0.364237,-0.062659,-0.140042
15125,7.342713,-4.060606,3.044605,0.290277,-0.081505,-0.154465
15126,7.277572,-4.257016,3.018752,0.252665,-0.094529,-0.184268
15127,7.303059,-4.464167,2.924743,0.286485,-0.119841,-0.217256
15128,7.413372,-4.557906,2.786943,0.371842,-0.145408,-0.249413
15129,7.554089,-4.302340,2.745951,0.464597,-0.183364,-0.281114
15130,7.826334,-4.013745,2.918471,0.504078,-0.203620,-0.314876
15131,8.149044,-3.826902,3.049163,0.484711,-0.202315,-0.336787
15132,8.353985,-3.784875,3.236393,0.417316,-0.183475,-0.345988
15133,8.427623,-3.851031,3.413173,0.328365,-0.160058,-0.347974
15134,8.478665,-3.919911,3.463979,0.239917,-0.140712,-0.350333
15135,8.475322,-3.892119,3.468648,0.137089,-0.132019,-0.332666
15136,8.383236,-3.662380,3.371779,0.002967,-0.147233,-0.316069
15137,8.459572,-3.705633,3.374626,-0.150589,-0.157677,-0.292574
15138,8.427702,-3.775253,3.229238,-0.288740,-0.165410,-0.278711
15139,8.611582,-4.131239,3.405086,-0.342997,-0.158324,-0.270044
15140,8.712493,-4.641366,3.571180,-0.341134,-0.156098,-0.259190
15141,9.076948,-5.055043,3.841431,-0.274357,-0.159156,-0.242520
15142,9.344455,-4.963880,4.278607,-0.199800,-0.138006,-0.208348
15143,9.519120,-4.563448,4.531288,-0.198466,-0.102636,-0.164842
15144,9.469302,-4.445701,4.612043,-0.252104,-0.047041,-0.126500
15145,9.096742,-4.624511,4.072501,-0.310704,-0.027864,-0.091774
15146,8.798457,-4.924676,3.861207,-0.298130,-0.028222,-0.085625
15147,8.553757,-5.057755,3.864984,-0.249200,-0.045113,-0.080027
15148,8.808658,-5.585951,4.202894,-0.166899,-0.039796,-0.059101
15149,8.992112,-6.266433,4.367769,-0.019183,-0.010998,-0.029606
15150,9.120840,-6.402093,4.537036,0.194954,-0.010082,-0.000557
15151,9.050143,-6.112502,4.325353,0.352679,-0.003558,0.058062
15152,9.107154,-5.617015,4.085320,0.503035,-0.024043,0.072646
15153,9.346715,-5.329129,4.410362,0.491810,-0.036609,0.156770
15154,9.492957,-5.111397,4.463656,0.367010,-0.048244,0.251152
15155,9.999060,-5.907614,4.318406,0.271863,-0.059879,0.362712
15156,10.448030,-7.017756,4.271495,0.355134,-0.034741,0.506074
15157,10.773843,-7.352809,4.825293,0.553214,-0.007339,0.673589
15158,10.704860,-7.371559,4.936676,0.708463,0.019426,0.861084
15159,10.665268,-7.258147,5.275083,0.845599,0.054482,1.023542
15160,10.614283,-7.510247,5.608596,0.902507,0.087067,1.232854
15161,10.446468,-7.931574,5.627567,0.950377,0.110086,1.441523
15162,10.478229,-8.406741,5.713018,1.042509,0.129157,1.631798
15163,10.485510,-8.674158,5.972810,1.132595,0.160914,1.826186
15164,10.420631,-8.844424,6.144498,1.187816,0.202005,2.019211
15165,10.451857,-9.119613,6.370957,1.211782,0.241549,2.200487
15166,10.510489,-9.398790,6.559178,1.221193,0.304480,2.363760
15167,10.450564,-9.711969,6.423339,1.227527,0.360646,2.534692
15168,10.476834,-9.965026,6.285649,1.262846,0.417902,2.695098
15169,10.361733,-10.182360,6.219304,1.323321,0.478214,2.837374
15170,10.108609,-10.251978,6.230978,1.371504,0.539535,2.960499
15171,9.836148,-10.131617,6.243620,1.375477,0.613148,3.063740
15172,9.502484,-9.966014,6.229497,1.318576,0.684301,3.166041
15173,8.964567,-9.914520,6.225927,1.254274,0.768106,3.257545
15174,8.248710,-10.233649,6.325493,1.196004,0.845222,3.347218
15175,7.714487,-10.776033,6.300243,1.186044,0.900670,3.469074
15176,7.280321,-10.859708,6.326290,1.239702,0.947567,3.560181
15177,6.707971,-10.656470,6.500422,1.294210,0.988074,3.630979
15178,6.017050,-10.369846,6.713880,1.342458,1.026797,3.695009
15179,5.348286,-10.303943,6.842003,1.396874,1.068188,3.757133
15180,4.937417,-10.186587,6.994840,1.461542,1.111261,3.814784
15181,4.641361,-9.864800,7.003619,1.510793,1.168959,3.864344
15182,4.313020,-9.498350,6.846126,1.529298,1.218168,3.902949
15183,3.732218,-9.055494,6.624938,1.544621,1.263568,3.923236
15184,3.101671,-8.621424,6.527454,1.553308,1.305787,3.922010
15185,2.633576,-8.512990,6.463054,1.521284,1.336959,3.931920
15186,2.388073,-8.469017,6.368051,1.501010,1.358915,3.942418
15187,2.080197,-8.296131,6.212770,1.505617,1.376025,3.926335
15188,1.803793,-8.158244,6.096935,1.500960,1.392580,3.926615
15189,1.426904,-7.736595,5.971765,1.505437,1.387618,3.926170
15190,0.920377,-7.268003,6.023413,1.477723,1.380960,3.899788
15191,0.270376,-6.986787,5.951760,1.484224,1.346228,3.869422
15192,-0.231255,-7.001744,5.928675,1.545560,1.298764,3.826065
15193,-0.525570,-7.002795,5.862591,1.673079,1.247045,3.792564
15194,-0.776754,-6.644786,5.837139,1.843680,1.202285,3.749796
15195,-1.052432,-6.070349,5.875696,2.009153,1.173296,3.703080
15196,-1.388994,-5.543679,6.181256,2.114220,1.138148,3.657512
15197,-1.761123,-4.992513,6.620500,2.194862,1.123042,3.616074
15198,-2.263570,-4.531393,6.986517,2.262138,1.118283,3.539909
15199,-2.739273,-4.314270,7.000752,2.340597,1.130883,3.457334
15200,-3.014522,-4.558765,6.583421,2.426773,1.138297,3.405869
15201,-3.150141,-4.755896,6.073547,2.606335,1.136104,3.339993
15202,-3.240682,-4.734038,5.713721,2.821862,1.107219,3.275987
15203,-3.265213,-4.256408,5.558353,3.058721,1.082540,3.203699
15204,-3.352217,-3.432623,5.347781,3.234039,1.056709,3.128053
15205,-3.348115,-2.425744,5.267678,3.326922,1.017070,3.040148
15206,-3.394524,-1.931462,5.335216,3.262387,0.986244,2.977312
15207,-3.344728,-1.645848,5.430083,3.155067,0.965753,2.932565
15208,-3.425968,-1.214685,5.376277,3.095512,0.930205,2.839558
15209,-3.632865,-0.657689,5.541994,3.070165,0.896776,2.734455
15210,-3.747152,-0.430945,5.737848,3.068357,0.889315,2.637240
15211,-3.786718,-0.402072,5.981406,3.100294,0.879336,2.533006
15212,-3.590182,-0.524374,6.092099,3.135850,0.873777,2.464724
15213,-3.492860,-0.423070,5.803580,3.231659,0.869413,2.404894
15214,-3.621082,0.284955,5.470841,3.309747,0.876578,2.318087
15215,-3.661925,1.298572,5.135877,3.286802,0.876607,2.203947
15216,-3.777507,2.168960,4.960615,3.056864,0.870514,2.120240
15217,-3.915768,2.853289,4.848909,2.759887,0.834760,2.021472
15218,-3.844765,3.027251,5.013720,2.469273,0.806820,1.914668
15219,-3.743750,2.797867,5.071915,2.280916,0.787949,1.811489
15220,-3.640895,2.497951,4.940906,2.218515,0.768609,1.718830
15221,-3.528881,2.344305,4.677862,2.249174,0.756189,1.637179
15222,-3.529760,2.437362,4.354703,2.306718,0.734235,1.569353
15223,-3.531844,2.957870,4.139410,2.352008,0.715256,1.483153
15224,-3.518993,3.671510,4.153139,2.327210,0.684588,1.387926
15225,-3.457971,4.428568,4.156452,2.204500,0.655258,1.302437
15226,-3.455046,4.942579,4.122698,2.013502,0.639620,1.194950
15227,-3.522426,5.064593,4.018653,1.761146,0.597826,1.107355
15228,-3.528184,4.944521,3.767195,1.542672,0.549574,1.029168
15229,-3.526963,4.675371,3.622147,1.396032,0.502797,0.956416
15230,-3.624705,4.525659,3.465650,1.344540,0.444696,0.885007
15231,-3.724327,4.507509,3.380470,1.342134,0.383457,0.806519
15232,-3.732105,4.808657,3.207919,1.330595,0.319380,0.742244
15233,-3.604053,5.178289,3.149194,1.292360,0.261149,0.670982
15234,-3.588680,5.452319,3.205656,1.200219,0.203970,0.611074
15235,-3.568166,5.560674,3.284367,1.081070,0.149695,0.558596
15236,-3.549910,5.637111,3.323317,0.956230,0.105113,0.501825
15237,-3.540752,5.796312,3.418964,0.814906,0.064293,0.450024
15238,-3.452091,5.986828,3.393389,0.662164,0.024144,0.384062
15239,-3.456556,6.095862,3.336152,0.487554,-0.013046,0.328855
15240,-3.517045,6.169176,3.258379,0.295749,-0.054068,0.274611
15241,-3.477930,6.208885,3.154401,0.078163,-0.098597,0.216077
15242,-3.352695,6.191021,3.067300,-0.166271,-0.145057,0.152602
15243,-3.256093,6.179155,3.026264,-0.411926,-0.182272,0.077658
15244,-3.239297,6.290476,2.907466,-0.651429,-0.227316,-0.015483
15245,-3.258458,6.434703,2.937686,-0.908238,-0.277873,-0.099125
15246,-3.232703,6.457247,3.143554,-1.163334,-0.320327,-0.189794
15247,-3.199453,6.334871,3.380524,-1.405122,-0.357430,-0.274512
15248,-3.305428,6.011144,3.681131,-1.623447,-0.402198,-0.348299
15249,-3.363709,5.582679,3.794547,-1.813353,-0.449349,-0.408670
15250,-3.516747,5.242130,3.883936,-1.979616,-0.492328,-0.468105
15251,-3.681572,4.929674,3.967006,-2.160681,-0.544385,-0.527177
15252,-3.645510,4.613321,4.143368,-2.331821,-0.581429,-0.588473
15253,-3.606347,4.370337,4.289000,-2.487114,-0.617980,-0.665136
15254,-3.736188,4.319746,4.395106,-2.646539,-0.654160,-0.742502
15255,-3.794010,4.344463,4.543163,-2.815784,-0.701411,-0.816173
15256,-3.764243,4.008526,4.682075,-3.017275,-0.734806,-0.880823
15257,-3.801895,3.570027,4.709605,-3.195292,-0.760478,-0.930220
15258,-3.814237,2.994098,4.768713,-3.335109,-0.782304,-0.977062
15259,-3.975146,2.574625,5.021598,-3.400910,-0.798666,-1.026558
15260,-3.915961,2.169378,5.342364,-3.430799,-0.810849,-1.078432
15261,-3.775873,1.673341,5.402963,-3.424680,-0.816818,-1.138843
15262,-3.695211,1.144995,5.291357,-3.377749,-0.803383,-1.200202
15263,-3.718149,0.780220,5.310618,-3.269383,-0.796994,-1.271204
15264,-3.924335,0.568319,5.432501,-3.141696,-0.789892,-1.352077
15265,-4.113692,0.428746,5.786984,-3.013876,-0.790553,-1.434487
15266,-4.207179,0.124226,6.398348,-2.894722,-0.787674,-1.510646
15267,-4.248340,-0.155942,6.686455,-2.828678,-0.795874,-1.566710
15268,-4.183196,-0.133926,7.126387,-2.802440,-0.770797,-1.600118
15269,-4.240492,-0.011680,7.377044,-2.861117,-0.741685,-1.634683
15270,-4.104501,-0.024803,7.678344,-2.965844,-0.709282,-1.685272
15271,-3.984303,-0.393269,7.793941,-3.071784,-0.653277,-1.740484
15272,-3.561840,-0.992500,8.020716,-3.113789,-0.575749,-1.809832
15273,-3.283568,-1.610814,8.036209,-3.119276,-0.467943,-1.880262
15274,-3.338255,-2.041680,7.972993,-3.068653,-0.353547,-1.935576
15275,-3.714717,-2.080872,7.794155,-3.023090,-0.278938,-1.986130
15276,-3.993214,-2.079216,7.289841,-3.026108,-0.233975,-2.048369
15277,-3.898719,-2.513540,7.303437,-3.003873,-0.212626,-2.117495
15278,-3.469869,-3.558601,7.680715,-2.946700,-0.168353,-2.183635
15279,-2.918917,-4.462186,8.197928,-2.763961,-0.102088,-2.249866
15280,-2.454969,-5.000919,8.456189,-2.470960,-0.022987,-2.315101
15281,-2.521296,-5.161346,8.132470,-2.141528,0.048963,-2.385579
15282,-3.112711,-5.104240,7.460725,-1.832129,0.103895,-2.449444
15283,-3.837481,-4.872338,6.813905,-1.556432,0.105032,-2.533612
15284,-4.086073,-4.730453,6.768651,-1.344549,0.062449,-2.627972
15285,-3.903382,-4.898551,7.462096,-1.168628,0.027326,-2.708863
15286,-3.661201,-4.941738,8.126202,-1.007140,-0.005837,-2.783046
15287,-3.070714,-5.064104,8.533887,-0.894779,0.001594,-2.844503
15288,-3.061561,-5.475242,8.417451,-0.845877,0.021732,-2.848198
15289,-3.415402,-5.591091,7.650638,-0.783865,-0.055518,-2.861740
15290,-3.665615,-5.531438,7.071001,-0.672006,-0.154073,-2.890410
15291,-3.846187,-5.178284,7.005178,-0.542955,-0.277002,-2.923228
15292,-3.604755,-4.907289,7.416026,-0.483489,-0.428804,-2.945911
15293,-3.216589,-4.862433,7.992770,-0.482642,-0.567387,-2.946209
15294,-2.867959,-5.080318,8.558663,-0.521056,-0.640974,-2.960823
15295,-2.584713,-5.573873,8.793382,-0.565276,-0.700311,-2.955191
15296,-2.308428,-6.068037,8.777982,-0.615996,-0.721713,-2.928608
15297,-1.992447,-6.281804,8.718603,-0.684851,-0.716867,-2.887316
15298,-1.858205,-6.311979,8.529494,-0.783857,-0.721595,-2.848839
15299,-1.762813,-6.329596,8.241941,-0.859214,-0.733559,-2.838421
15300,-1.602119,-6.262200,7.863777,-0.896191,-0.758832,-2.842711
15301,-1.315023,-6.200829,7.732969,-0.919019,-0.773845,-2.869917
15302,-0.853640,-6.515867,7.564721,-0.965867,-0.797220,-2.886395
15303,-0.319396,-7.089272,7.695767,-0.984287,-0.806560,-2.870795
15304,0.533960,-8.029595,7.916179,-1.055859,-0.789239,-2.806666
15305,1.257052,-8.682865,7.992651,-1.129623,-0.734017,-2.712679
15306,1.523040,-8.670502,7.836257,-1.231500,-0.691707,-2.637735
15307,1.469260,-8.089388,7.455573,-1.358046,-0.666522,-2.583618
15308,1.347283,-7.473082,6.864811,-1.518376,-0.669039,-2.566295
15309,1.443682,-7.314852,6.278245,-1.616518,-0.693841,-2.565068
15310,1.486517,-7.481619,5.993912,-1.562834,-0.712643,-2.610205
15311,1.885928,-8.068880,6.177983,-1.378058,-0.718874,-2.658000
15312,2.736342,-8.794001,6.765435,-1.132469,-0.680202,-2.658654
15313,3.717641,-9.157929,7.187361,-0.970803,-0.618775,-2.617942
15314,4.515127,-8.963162,7.618009,-0.996192,-0.550241,-2.500442
15315,4.570567,-8.260875,7.529391,-1.206704,-0.470147,-2.420247
15316,4.380989,-7.759834,7.029142,-1.480630,-0.434286,-2.367450
15317,4.139999,-7.684684,6.218813,-1.654753,-0.391091,-2.374074
15318,4.129595,-7.422613,5.782783,-1.711882,-0.382023,-2.407891
15319,4.553828,-7.599811,5.571064,-1.721145,-0.361928,-2.425369
15320,5.024704,-8.590887,5.377068,-1.646963,-0.315826,-2.427050
15321,5.529622,-10.402521,5.274927,-1.411458,-0.258210,-2.415429
15322,6.229688,-11.565072,5.347747,-1.017331,-0.198084,-2.343953
15323,6.541459,-10.393053,5.801571,-0.695348,-0.160080,-2.268718
15324,6.682349,-7.909418,6.464268,-0.763700,-0.136933,-2.185282
15325,6.727680,-5.774530,6.708367,-1.312958,-0.100522,-2.088625
15326,6.919698,-4.821370,6.389548,-2.096184,-0.038598,-2.016086
15327,7.050668,-5.055491,5.828533,-2.831210,0.044319,-1.995855
15328,6.977518,-5.826069,5.215449,-3.321860,0.103071,-1.996182
15329,7.026436,-6.955652,4.399170,-3.483803,0.168890,-2.012692
15330,7.003107,-8.355316,3.620596,-3.266514,0.223019,-2.049302
15331,7.291792,-9.500793,3.307091,-2.707617,0.277794,-2.103163
15332,7.675995,-9.431617,3.623156,-2.006099,0.343320,-2.176209
15333,8.298811,-8.602128,4.142738,-1.435186,0.392216,-2.188789
15334,8.909529,-8.004751,4.236351,-1.176020,0.451555,-2.129185
15335,9.204456,-8.065302,3.740834,-1.107152,0.496045,-2.003955
15336,9.291518,-8.499824,3.306440,-1.094712,0.511548,-1.864703
15337,9.148759,-8.347614,3.162320,-1.117744,0.494784,-1.722732
15338,8.990052,-7.724249,3.103247,-1.230241,0.438455,-1.568683
15339,8.944282,-7.253574,3.024535,-1.418717,0.397259,-1.405520
15340,9.028302,-7.180051,2.949367,-1.612192,0.362421,-1.238615
15341,8.959985,-7.280425,2.841023,-1.744371,0.346882,-1.075082
15342,8.725304,-7.265932,2.525807,-1.783521,0.318247,-0.920305
15343,8.451116,-7.279892,2.352483,-1.734947,0.295117,-0.780681
15344,8.282268,-7.128885,2.338920,-1.604900,0.265303,-0.673975
15345,8.163790,-7.279659,2.224512,-1.434079,0.229213,-0.577139
15346,8.086380,-7.627796,2.189274,-1.177887,0.189875,-0.500335
15347,7.970118,-8.014971,2.165928,-0.834461,0.165065,-0.444267
15348,7.785100,-7.922427,2.250384,-0.427206,0.109233,-0.411849
15349,7.875670,-7.383704,2.483366,-0.108460,0.074487,-0.375346
15350,7.939175,-6.791043,2.735789,0.076182,0.043846,-0.349564
15351,8.099099,-6.396761,2.838383,0.142749,0.042829,-0.325754
15352,8.168210,-6.353799,2.749730,0.160093,0.048473,-0.303589
15353,8.294602,-6.606280,2.601621,0.186896,0.049870,-0.270320
15354,8.290400,-6.784356,2.403247,0.247497,0.052304,-0.237940
15355,8.256457,-6.566727,2.467619,0.307193,0.044035,-0.202151
15356,8.200444,-6.214893,2.481858,0.318897,0.046459,-0.169584
15357,8.081354,-6.046810,2.477272,0.320522,0.039315,-0.153358
15358,8.045074,-6.060085,2.591215,0.330884,0.038197,-0.132731
15359,8.014973,-6.081179,2.615758,0.353742,0.044755,-0.123928
15360,7.995591,-6.037829,2.689908,0.384589,0.037908,-0.115979
15361,8.060390,-5.909561,2.814912,0.357196,0.031826,-0.088926
15362,8.072158,-5.771304,2.765662,0.263239,0.033479,-0.058003
15363,7.918828,-5.842603,2.677882,0.188018,0.027779,-0.058988
15364,7.778989,-6.029545,2.651974,0.170419,0.019706,-0.050907
15365,7.738955,-6.100001,2.681976,0.192488,0.017067,-0.043882
15366,7.772567,-5.967756,2.810865,0.232792,0.007442,-0.057289
15367,7.818237,-5.806052,2.721508,0.260439,0.002521,-0.066457
15368,7.899182,-5.686341,2.686091,0.284558,-0.001542,-0.095279
15369,8.058712,-5.598460,2.773513,0.328065,-0.011639,-0.129780
15370,8.288922,-5.389313,2.900686,0.362323,-0.010830,-0.173019
15371,8.611114,-5.497559,2.822647,0.398889,-0.026098,-0.219889
15372,8.752118,-5.916366,2.166070,0.540243,-0.039534,-0.267528
15373,8.604522,-5.516499,1.609950,0.753738,-0.103881,-0.292462
15374,8.826964,-4.745294,1.590953,0.805685,-0.161264,-0.280196
15375,9.164158,-3.667358,2.067507,0.604806,-0.171377,-0.220036
15376,9.347720,-2.795469,2.553130,0.243330,-0.139360,-0.173934
15377,9.329495,-2.599110,2.553504,-0.181375,-0.102964,-0.110653
15378,9.212445,-2.656519,2.322604,-0.534274,-0.085592,-0.051105
15379,9.019046,-2.976527,2.094319,-0.784479,-0.065060,-0.013019
15380,8.824441,-3.372654,1.832850,-0.899162,-0.080195,-0.007334
15381,8.536143,-3.661792,1.693876,-0.885183,-0.103827,-0.026529
15382,8.369590,-3.836359,1.757925,-0.768350,-0.137922,-0.079858
15383,8.431121,-3.957406,1.709415,-0.581366,-0.162686,-0.158644
15384,8.435599,-4.084558,1.715631,-0.350297,-0.186930,-0.253241
15385,8.539060,-4.153265,1.645406,-0.089673,-0.212264,-0.357030
15386,8.612912,-4.116264,1.716727,0.172371,-0.236111,-0.457813
15387,8.600783,-3.855310,1.655825,0.359150,-0.272577,-0.534325
15388,8.616218,-3.720185,1.650174,0.453871,-0.317894,-0.586931
15389,8.593490,-3.625163,1.532623,0.486309,-0.366697,-0.621918
15390,8.480534,-3.527013,1.398083,0.469207,-0.436391,-0.645927
15391,8.551401,-3.467808,1.409301,0.427825,-0.500198,-0.659306
15392,8.568080,-3.460759,1.594062,0.345056,-0.550117,-0.664902
15393,8.711996,-3.496414,1.894692,0.246095,-0.581981,-0.674768
15394,8.878531,-3.620993,2.094994,0.128711,-0.596216,-0.682741
15395,9.016994,-3.751081,2.105201,0.024585,-0.589264,-0.702782
15396,9.093655,-3.866573,2.035784,-0.062821,-0.573559,-0.725568
15397,9.150930,-3.891818,1.886766,-0.145772,-0.552558,-0.752683
15398,9.157707,-3.817705,1.676944,-0.236685,-0.533707,-0.785185
15399,9.126604,-3.673797,1.476580,-0.338314,-0.520750,-0.833608
15400,9.027945,-3.591739,1.235086,-0.456851,-0.515960,-0.891295
15401,8.717839,-3.788553,1.237680,-0.548735,-0.514588,-0.935026
15402,8.342327,-4.376794,1.344481,-0.570196,-0.510899,-0.981058
15403,8.245205,-4.972226,1.554725,-0.491622,-0.498785,-1.032064
15404,8.382088,-5.153488,1.695086,-0.357241,-0.455266,-1.078839
15405,8.569609,-5.129234,1.903674,-0.237353,-0.406191,-1.130703
15406,8.632610,-4.935246,1.949968,-0.180796,-0.352481,-1.162712
15407,8.634386,-4.793336,1.994960,-0.196497,-0.295876,-1.187834
15408,8.732422,-4.723943,1.989064,-0.259526,-0.240246,-1.212925
15409,8.877118,-4.518726,1.958764,-0.376746,-0.184040,-1.229820
15410,9.107820,-4.422226,1.928159,-0.533895,-0.131030,-1.236984
15411,9.177555,-4.458167,1.965833,-0.714759,-0.085388,-1.226495
15412,9.102621,-4.646480,1.997201,-0.874073,-0.049977,-1.201431
15413,9.092014,-4.900015,1.964866,-0.983705,-0.011139,-1.179425
15414,9.159838,-5.070252,1.960223,-1.044509,0.029787,-1.148484
15415,9.261977,-5.138795,1.928981,-1.072909,0.069516,-1.121577
15416,9.376028,-5.131366,1.850218,-1.089854,0.106286,-1.094663
15417,9.361047,-5.117333,1.742735,-1.087799,0.137605,-1.056968
15418,9.370245,-5.021619,1.643088,-1.091120,0.159129,-1.024783
15419,9.432128,-4.820689,1.506389,-1.125678,0.168080,-0.989707
15420,9.560153,-4.626992,1.442463,-1.189838,0.165711,-0.938721
15421,9.617988,-4.515919,1.370376,-1.274335,0.166086,-0.894150
15422,9.630478,-4.557544,1.342682,-1.334442,0.166574,-0.852570
15423,9.559231,-4.750457,1.354876,-1.348172,0.159129,-0.809283
15424,9.414609,-4.833956,1.422469,-1.297648,0.162021,-0.773361
15425,9.286094,-4.692745,1.431449,-1.223841,0.173848,-0.753949
15426,9.237674,-4.576615,1.378999,-1.145583,0.173792,-0.738382
15427,9.283459,-4.750044,1.254888,-1.054765,0.176396,-0.729591
15428,9.412742,-4.991096,1.110041,-0.919767,0.160601,-0.699088
15429,9.465974,-5.094820,1.010765,-0.754690,0.159610,-0.665738
15430,9.390522,-4.866908,0.974735,-0.593118,0.147025,-0.625251
15431,9.360160,-4.408776,1.057863,-0.502432,0.138379,-0.576484
15432,9.334165,-4.060502,1.131871,-0.476012,0.127030,-0.533570
15433,9.325876,-3.985257,1.188169,-0.488444,0.120631,-0.490641
15434,9.300819,-3.946684,1.179431,-0.510498,0.117730,-0.449199
15435,9.287901,-3.919535,1.188772,-0.526642,0.119740,-0.405060
15436,9.288105,-3.785831,1.196032,-0.554421,0.120763,-0.368461
15437,9.384757,-3.739504,1.129649,-0.591677,0.111609,-0.327683
15438,9.423692,-3.721018,1.031106,-0.614752,0.113881,-0.289288
15439,9.362552,-3.600735,0.950977,-0.622337,0.120517,-0.267281
15440,9.201358,-3.497021,0.908478,-0.626350,0.122531,-0.250173
15441,9.110496,-3.478518,0.844204,-0.630354,0.122085,-0.232573
15442,9.090856,-3.543636,0.757328,-0.602848,0.122639,-0.225966
15443,9.083511,-3.570948,0.804997,-0.559017,0.112723,-0.216315
15444,9.061691,-3.536633,0.793605,-0.510760,0.117522,-0.206383
15445,9.094288,-3.446394,0.830403,-0.457418,0.106851,-0.197547
15446,9.124670,-3.293518,0.896670,-0.427427,0.108701,-0.190371
15447,9.054703,-3.104144,0.958863,-0.416380,0.104503,-0.178181
15448,9.072762,-2.992215,0.858015,-0.424246,0.097215,-0.165222
15449,9.075799,-2.949785,0.867859,-0.439169,0.090929,-0.158068
15450,9.108212,-2.958800,0.865038,-0.447904,0.080550,-0.149934
15451,9.113841,-2.983548,0.809950,-0.442960,0.071457,-0.147091
15452,9.136105,-3.107131,0.763145,-0.418557,0.062639,-0.138173
15453,9.153792,-3.105887,0.774483,-0.376960,0.054305,-0.132890
15454,9.170876,-3.076663,0.767094,-0.335058,0.052792,-0.122493
15455,9.213756,-3.004909,0.792508,-0.305197,0.042510,-0.111136
15456,9.281721,-2.917257,0.904528,-0.281298,0.038381,-0.094824
15457,9.294313,-2.855155,0.982842,-0.268818,0.034880,-0.087394
15458,9.321882,-2.778301,0.991695,-0.258618,0.033231,-0.080049
15459,9.309254,-2.791995,1.022980,-0.239932,0.027295,-0.068311
15460,9.295942,-2.777733,1.035079,-0.207241,0.017793,-0.060961
15461,9.267702,-2.808805,1.136187,-0.183587,0.014021,-0.057276
15462,9.257652,-2.941814,1.209397,-0.142182,0.007035,-0.040376
15463,9.355281,-2.996957,1.368227,-0.083861,0.003375,-0.033785
15464,9.408663,-2.967397,1.471350,-0.021912,0.018205,-0.019762
15465,9.529185,-2.782748,1.466696,0.023504,0.030887,-0.002858
15466,9.715664,-2.523797,1.513596,0.029463,0.045107,0.005039
15467,9.833651,-2.254305,1.455282,-0.002708,0.061645,0.011765
15468,9.858057,-2.158352,1.421312,-0.078179,0.067614,0.028026
15469,9.761963,-2.277054,1.412234,-0.131970,0.075294,0.040075
15470,9.680457,-2.407603,1.385944,-0.160944,0.076396,0.048079
15471,9.665105,-2.464077,1.409329,-0.155353,0.083174,0.054531
15472,9.632634,-2.450637,1.446508,-0.133902,0.086674,0.053702
15473,9.632378,-2.460943,1.383179,-0.107867,0.091179,0.052292
15474,9.632650,-2.499086,1.339792,-0.069359,0.095561,0.041639
15475,9.629766,-2.445408,1.310664,-0.033394,0.103614,0.034262
15476,9.655357,-2.351243,1.247712,-0.016535,0.114962,0.019166
15477,9.681522,-2.284964,1.204617,-0.009652,0.119632,0.014173
15478,9.597627,-2.234007,1.106600,-0.015080,0.123654,0.005027
15479,9.552374,-2.205032,1.132345,-0.024048,0.127804,-0.002019
15480,9.523885,-2.216642,1.125918,-0.034067,0.125290,-0.006111
15481,9.539304,-2.257669,1.105041,-0.045180,0.125456,-0.002442
15482,9.596891,-2.268414,1.067061,-0.045590,0.122824,-0.004693
15483,9.555000,-2.271413,1.041671,-0.040083,0.125064,-0.003750
15484,9.555504,-2.302114,1.036578,-0.026687,0.115113,-0.002460
15485,9.500218,-2.267228,0.973399,-0.006434,0.106696,-0.002008
15486,9.466972,-2.157802,0.994100,-0.003112,0.105961,-0.000388
15487,9.464264,-2.127056,1.019268,-0.000219,0.092511,-0.002103
15488,9.466871,-2.159204,0.977486,0.000990,0.086363,0.000565
15489,9.481329,-2.198546,0.987720,0.009550,0.072638,0.000212
15490,9.480719,-2.140091,0.957351,0.019756,0.066503,-0.004182
15491,9.478378,-2.108878,0.979804,0.023779,0.064205,-0.003262
15492,9.518263,-2.076314,1.003980,0.016681,0.057526,-0.004294
15493,9.533156,-2.085817,0.993424,0.014423,0.050084,-0.009211
15494,9.546237,-2.122420,1.035681,0.005330,0.053566,-0.012598
15495,9.546155,-2.062771,1.003365,0.003596,0.049470,-0.018992
15496,9.573093,-2.019812,1.007567,-0.009496,0.048328,-0.028502
15497,9.571303,-1.986728,1.027442,-0.023778,0.044321,-0.025772
15498,9.588671,-2.025238,0.999058,-0.034622,0.038151,-0.031077
15499,9.533276,-2.073272,1.018224,-0.033587,0.032380,-0.034740
