// Start Time: Unknown
// Update Rate: 100.0Hz
// Filter Profile: human (46.1)
// Firmware Version: 4.3.5
PacketCounter,Acc_X,Acc_Y,Acc_Z,Gyr_X,Gyr_Y,Gyr_Z
41951,9.725043,-1.776016,0.239317,-0.024895,0.012599,-0.026482
41952,9.733462,-1.733318,0.250924,-0.005429,0.013937,-0.026573
41953,9.795622,-1.684400,0.255494,0.003148,0.013177,-0.028030
41954,9.783666,-1.623200,0.214064,-0.005660,0.012055,-0.032592
41955,9.774284,-1.608391,0.234185,-0.019840,0.015644,-0.029767
41956,9.743346,-1.681411,0.266371,-0.032174,0.018330,-0.036153
41957,9.658332,-1.681497,0.287652,-0.038163,0.011643,-0.033578
41958,9.682805,-1.721133,0.264561,-0.033111,0.014700,-0.036855
41959,9.693294,-1.729389,0.246179,-0.033911,0.009596,-0.037081
41960,9.707958,-1.757118,0.241849,-0.022886,0.010238,-0.035230
41961,9.698649,-1.742067,0.261371,-0.012804,0.007244,-0.034079
41962,9.715378,-1.737697,0.301218,-0.006308,0.012877,-0.029680
41963,9.771682,-1.780456,0.265243,-0.000750,0.007508,-0.028643
41964,9.742438,-1.742443,0.323115,0.007215,0.010099,-0.029590
41965,9.762715,-1.763227,0.286138,0.004945,0.008035,-0.024468
41966,9.741763,-1.764482,0.372294,0.008528,0.006778,-0.025054
41967,9.743654,-1.735128,0.325802,0.002394,0.008912,-0.020299
41968,9.765844,-1.724358,0.332317,-0.004398,0.004467,-0.015292
41969,9.742623,-1.759384,0.373915,-0.009969,0.000717,-0.008633
41970,9.768844,-1.769158,0.393936,0.004108,-0.000572,-0.003973
41971,9.778858,-1.780319,0.375439,0.019891,0.006089,-0.006340
41972,9.816341,-1.690307,0.403628,0.029498,0.004969,-0.004204
41973,9.857495,-1.625188,0.354785,0.022808,0.005619,-0.004014
41974,9.810841,-1.512170,0.355954,-0.003685,0.012641,0.000358
41975,9.756971,-1.519228,0.363911,-0.043096,0.009984,0.011832
41976,9.693147,-1.600216,0.316470,-0.077698,0.006771,0.024368
41977,9.699486,-1.669524,0.391060,-0.090385,-0.001028,0.037478
41978,9.726945,-1.736759,0.379315,-0.101150,-0.008123,0.057276
41979,9.735833,-1.754792,0.357611,-0.112306,-0.009042,0.065285
41980,9.693266,-1.827438,0.403741,-0.125132,-0.017130,0.088254
41981,9.686276,-1.924135,0.449598,-0.124139,-0.029184,0.101895
41982,9.790506,-2.029628,0.494042,-0.114957,-0.036807,0.120617
41983,9.812484,-2.080993,0.555359,-0.098558,-0.037063,0.138443
41984,9.911938,-2.087855,0.659774,-0.093018,-0.033843,0.167909
41985,9.903203,-2.110296,0.779216,-0.110566,-0.021818,0.200241
41986,9.943329,-2.111633,0.877945,-0.173235,-0.006442,0.244454
41987,9.949854,-2.120010,0.899012,-0.257505,0.017106,0.293639
41988,9.917374,-2.274364,0.860977,-0.376458,0.037489,0.348757
41989,9.955013,-2.456220,0.683394,-0.503962,0.041378,0.411991
41990,9.993775,-2.791183,0.591718,-0.603992,0.052173,0.473189
41991,9.985299,-3.069115,0.467088,-0.660003,0.047796,0.538608
41992,9.998748,-3.413714,0.415990,-0.711330,0.036613,0.611547
41993,10.030834,-3.880193,0.222315,-0.709476,0.018634,0.692699
41994,10.036184,-4.329681,0.245158,-0.624040,0.015154,0.776686
41995,10.029751,-4.666546,0.228051,-0.472831,-0.001347,0.845320
41996,10.024803,-4.729801,0.334439,-0.268853,0.000804,0.903544
41997,9.910162,-4.513499,0.418157,-0.128045,-0.013503,0.972536
41998,9.832916,-4.277390,0.446518,-0.094460,-0.026746,1.054237
41999,9.777030,-4.232664,0.407814,-0.125768,-0.028742,1.142236
42000,9.786617,-4.337554,0.266954,-0.182150,-0.042086,1.225712
42001,9.785737,-4.664511,0.245210,-0.215458,-0.030449,1.314272
42002,9.708614,-5.078651,0.150668,-0.197572,-0.019055,1.408314
42003,9.568985,-5.468243,0.020233,-0.103840,-0.013915,1.487729
42004,9.491961,-5.815822,-0.129069,0.070662,-0.015459,1.530717
42005,9.477022,-5.918842,-0.145295,0.293205,-0.005646,1.561963
42006,9.435490,-5.784097,-0.034345,0.480556,0.007513,1.594132
42007,9.389864,-5.618291,-0.091774,0.594370,0.010754,1.641121
42008,9.333406,-5.474110,-0.172723,0.668594,0.007693,1.689971
42009,9.278508,-5.417504,-0.201059,0.708775,0.002046,1.734294
42010,9.220278,-5.466606,-0.071957,0.720714,0.004553,1.786465
42011,9.140082,-5.576253,-0.032778,0.723918,0.004731,1.825298
42012,9.070637,-5.710164,0.150595,0.712950,0.002018,1.864759
42013,8.936198,-5.698290,0.146127,0.684306,0.006415,1.894867
42014,8.795252,-5.637636,0.162244,0.625882,0.006126,1.908020
42015,8.711606,-5.588132,0.166105,0.547060,0.002513,1.927910
42016,8.671392,-5.670832,0.117191,0.449986,-0.007345,1.949481
42017,8.537952,-5.824542,0.028964,0.383172,-0.004439,1.966477
42018,8.431105,-6.129354,-0.092421,0.340109,-0.006861,1.974126
42019,8.263654,-6.548290,-0.131864,0.372679,0.016271,1.987817
42020,8.019972,-7.023380,-0.222395,0.510062,0.020022,1.962465
42021,7.852381,-7.314162,-0.198773,0.745474,0.014819,1.919086
42022,7.647268,-7.303879,-0.119781,0.983170,0.004290,1.872461
42023,7.409608,-6.900188,-0.011274,1.144370,-0.017838,1.833935
42024,7.320971,-6.515262,0.072945,1.180189,-0.025253,1.803719
42025,7.205474,-6.227371,0.165504,1.146455,-0.027075,1.781920
42026,7.053100,-6.096121,0.154788,1.051312,-0.054203,1.743516
42027,7.088886,-6.340412,0.179271,0.965840,-0.069799,1.711854
42028,7.030244,-6.500427,0.212348,0.916652,-0.082186,1.679512
42029,7.011750,-6.495245,0.396749,0.891882,-0.074713,1.643327
42030,6.828106,-6.378806,0.527454,0.840020,-0.071908,1.598003
42031,6.766410,-6.351104,0.723103,0.757776,-0.056342,1.551146
42032,6.579270,-6.339913,0.896147,0.664099,-0.041749,1.508630
42033,6.375181,-6.366835,0.826759,0.573438,-0.049429,1.453942
42034,6.279251,-6.487382,0.752737,0.525883,-0.043761,1.409009
42035,6.085495,-6.504844,0.748592,0.474040,-0.064805,1.366857
42036,6.191228,-6.675362,0.834622,0.430881,-0.062496,1.308264
42037,6.175446,-6.605393,1.133591,0.418748,-0.038806,1.250918
42038,6.201380,-6.468636,1.468682,0.356056,-0.035054,1.189904
42039,6.256368,-6.489226,1.461755,0.253462,-0.029540,1.131887
42040,6.157772,-6.605522,1.240388,0.202483,-0.021203,1.071044
42041,5.993288,-6.821740,1.031639,0.214968,-0.009942,1.014790
42042,5.740313,-6.909341,0.733375,0.266188,-0.018968,0.946087
42043,5.644223,-6.928429,0.722328,0.340905,-0.032152,0.866716
42044,5.726754,-6.907607,0.988433,0.390260,-0.045999,0.799545
42045,5.895453,-6.893910,1.332472,0.407140,-0.040086,0.746843
42046,6.009246,-6.839056,1.565310,0.389286,-0.041307,0.689993
42047,5.963362,-6.776963,1.627665,0.356904,-0.028879,0.639524
42048,5.843654,-6.777781,1.588106,0.311269,-0.025324,0.592346
42049,5.765537,-6.795553,1.486472,0.271332,-0.025685,0.543754
42050,5.685976,-6.751568,1.389730,0.255333,-0.027865,0.490273
42051,5.636937,-6.773125,1.290634,0.215152,-0.042191,0.430729
42052,5.655236,-6.854821,1.251573,0.189695,-0.051161,0.379778
42053,5.740693,-7.075178,1.252335,0.190821,-0.062808,0.338472
42054,5.857489,-7.281764,1.350197,0.221375,-0.056547,0.296896
42055,5.925700,-7.321181,1.571319,0.259746,-0.057029,0.271235
42056,5.830616,-7.194537,1.668923,0.272863,-0.067180,0.240224
42057,5.732412,-7.018516,1.591669,0.243318,-0.078486,0.211108
42058,5.587519,-7.016415,1.423697,0.198723,-0.098700,0.183875
42059,5.562128,-7.054625,1.433063,0.158840,-0.107236,0.161621
42060,5.592161,-7.182175,1.579173,0.136631,-0.110300,0.132206
42061,5.607399,-7.323903,1.668625,0.116592,-0.118072,0.101711
42062,5.608971,-7.445673,1.660220,0.130589,-0.117488,0.072156
42063,5.509282,-7.453885,1.697190,0.157438,-0.117543,0.027626
42064,5.388967,-7.434636,1.671657,0.189253,-0.123584,-0.008384
42065,5.391435,-7.296139,1.868674,0.202686,-0.119445,-0.041559
42066,5.440466,-7.185849,1.971975,0.157815,-0.125625,-0.061602
42067,5.521377,-7.263601,2.061973,0.068103,-0.121065,-0.078545
42068,5.491541,-7.593555,1.975430,0.023726,-0.117511,-0.089388
42069,5.400503,-7.782292,1.844820,0.048953,-0.120084,-0.115177
42070,5.264807,-7.924396,1.752433,0.120883,-0.125960,-0.138956
42071,5.135840,-7.888314,1.720104,0.196236,-0.145890,-0.167753
42072,5.246095,-7.841237,1.742988,0.235487,-0.161066,-0.186388
42073,5.323463,-7.928706,1.951566,0.254023,-0.159882,-0.191304
42074,5.406426,-7.974257,2.026953,0.256420,-0.159628,-0.196454
42075,5.511758,-8.027819,2.110168,0.275926,-0.155083,-0.201278
42076,5.567048,-8.100892,2.151288,0.262550,-0.145881,-0.194065
42077,5.640293,-8.202552,2.184163,0.251678,-0.147057,-0.188462
42078,5.648600,-8.323554,2.134718,0.249016,-0.143492,-0.179653
42079,5.677241,-8.342505,2.067323,0.258835,-0.146644,-0.173863
42080,5.640357,-8.354502,2.129566,0.255488,-0.137109,-0.154044
42081,5.583906,-8.292424,2.261085,0.251124,-0.139493,-0.143983
42082,5.668573,-8.243293,2.623911,0.213621,-0.118456,-0.126497
42083,5.972490,-8.524206,3.253752,0.120885,-0.044536,-0.070334
42084,5.836909,-9.152495,2.364665,0.117039,-0.113931,-0.039077
42085,6.335632,-9.817128,2.295677,0.231620,-0.082085,0.011415
42086,5.919928,-9.731748,2.526914,0.451590,-0.034324,0.070732
42087,5.997014,-9.186522,2.721776,0.416338,-0.100475,0.118997
42088,6.212463,-9.178903,2.467524,0.311241,-0.116563,0.192578
42089,6.257541,-9.423243,2.502815,0.215566,-0.134543,0.280222
42090,6.217779,-10.057642,2.451073,0.181491,-0.158474,0.393654
42091,6.140651,-10.642395,2.454547,0.220420,-0.176419,0.517943
42092,6.126981,-11.132389,2.600886,0.305712,-0.222775,0.649204
42093,6.272254,-11.427998,2.721125,0.413467,-0.262953,0.780165
42094,6.475234,-11.669911,2.865379,0.469457,-0.296673,0.942197
42095,6.443654,-11.919662,2.993659,0.534916,-0.309487,1.100965
42096,6.197643,-12.179286,3.119025,0.639019,-0.308425,1.255758
42097,5.793888,-12.309424,3.348620,0.799213,-0.323132,1.405515
42098,5.555205,-12.263489,3.538697,0.920066,-0.364825,1.541954
42099,5.382658,-12.218078,3.660462,0.989365,-0.375032,1.699129
42100,5.066188,-11.966110,3.901037,1.040172,-0.389958,1.844100
42101,4.719826,-11.904898,3.977438,0.935617,-0.401530,2.001175
42102,4.497813,-12.507442,3.820051,0.836335,-0.402841,2.160256
42103,4.373571,-13.221685,3.497631,0.811905,-0.436757,2.294843
42104,4.437884,-13.430575,3.068325,0.916715,-0.510970,2.409918
42105,4.570328,-13.217013,3.112897,0.980538,-0.558407,2.535932
42106,4.497812,-13.192672,3.132712,0.968131,-0.589222,2.698830
42107,4.293238,-13.120417,3.418442,0.983460,-0.613054,2.848222
42108,3.961716,-12.989028,3.707118,0.939483,-0.632959,3.010008
42109,3.515870,-12.792414,3.884505,0.902409,-0.651711,3.145699
42110,3.195126,-12.689983,3.931808,0.858594,-0.685502,3.260998
42111,2.980223,-12.725500,3.982886,0.872708,-0.677056,3.339117
42112,2.533807,-12.866749,3.989000,0.947628,-0.666118,3.407642
42113,2.108840,-12.975945,3.868906,1.078226,-0.677736,3.482143
42114,1.672032,-12.775594,3.801586,1.284953,-0.694123,3.537579
42115,1.447004,-12.503778,3.694470,1.362750,-0.726193,3.607695
42116,1.405524,-12.033048,3.572148,1.427947,-0.742057,3.681806
42117,1.235086,-11.179522,3.846379,1.435322,-0.737129,3.707306
42118,0.860159,-10.750346,4.139253,1.278360,-0.750874,3.727990
42119,0.364748,-10.633747,4.469809,1.182186,-0.750644,3.728777
42120,-0.037272,-10.783909,4.998501,1.102627,-0.748486,3.725908
42121,-0.351154,-11.116420,5.248826,1.096315,-0.740247,3.721440
42122,-0.596453,-11.727387,5.089659,1.165394,-0.736086,3.751532
42123,-0.758725,-11.786762,4.784839,1.404840,-0.738468,3.774810
42124,-0.931761,-11.314321,4.554004,1.634973,-0.728237,3.762504
42125,-1.237200,-10.724738,4.370567,1.777390,-0.723684,3.771995
42126,-1.638423,-10.238302,4.244610,1.871505,-0.726064,3.777093
42127,-2.039298,-9.998290,4.374470,1.886410,-0.742052,3.761777
42128,-2.374743,-10.001230,4.509428,1.986206,-0.751849,3.738175
42129,-2.805594,-9.919074,4.912487,2.228335,-0.745060,3.657140
42130,-3.136900,-10.087374,5.052414,2.419326,-0.740575,3.621013
42131,-3.105166,-9.787725,4.971687,2.843319,-0.744718,3.553896
42132,-2.711494,-9.063321,4.722019,3.117873,-0.712191,3.511372
42133,-2.410410,-8.191158,4.340482,3.494746,-0.643521,3.443767
42134,-2.410321,-7.387861,4.149950,3.731636,-0.545484,3.383934
42135,-2.670235,-6.720760,4.145979,3.928095,-0.440106,3.325823
42136,-3.075000,-5.860608,4.212917,4.094451,-0.361671,3.246646
42137,-3.247519,-4.984573,4.412960,4.146693,-0.320003,3.149281
42138,-3.093088,-4.367533,4.692008,4.031995,-0.268571,3.080149
42139,-2.825774,-3.910366,4.876908,3.936610,-0.209462,3.006774
42140,-2.812881,-3.313420,4.663291,3.845706,-0.134186,2.927194
42141,-2.886003,-2.768581,4.612643,3.758265,-0.059201,2.875880
42142,-2.993895,-2.408497,4.540944,3.591442,-0.006862,2.812426
42143,-3.066134,-2.308331,4.204727,3.449928,0.040197,2.736650
42144,-3.082471,-2.189150,4.177519,3.446060,0.098196,2.650164
42145,-3.034207,-2.019964,4.370069,3.525777,0.142341,2.570932
42146,-2.961693,-1.770048,4.719523,3.595261,0.193511,2.497641
42147,-2.912576,-1.374006,5.038302,3.678696,0.261985,2.432891
42148,-2.790708,-0.901160,5.045497,3.773675,0.326546,2.357355
42149,-2.705161,-0.356191,4.699191,3.848758,0.418278,2.297224
42150,-2.711500,0.249399,4.146491,3.927243,0.504133,2.220578
42151,-2.744979,0.879528,4.038237,4.118256,0.587816,2.173224
42152,-2.928353,1.641315,4.220733,4.298725,0.639918,2.137725
42153,-3.096240,2.535814,4.700522,4.292222,0.673645,2.056402
42154,-3.122606,3.439120,5.114489,3.920516,0.726906,1.923710
42155,-3.199820,4.251382,5.300482,3.250873,0.736365,1.808053
42156,-3.179410,4.525517,4.972167,2.677688,0.735732,1.735475
42157,-3.164920,4.494238,4.886348,2.280648,0.729841,1.637364
42158,-3.284247,4.309573,4.219518,2.001581,0.716272,1.556322
42159,-3.364803,4.347760,4.123677,1.957263,0.697146,1.459854
42160,-3.584129,4.568755,4.168552,1.970140,0.670762,1.377645
42161,-3.704927,4.933703,4.053196,2.015894,0.607000,1.288588
42162,-3.645705,5.386751,4.334263,2.003077,0.559353,1.177077
42163,-3.577816,5.650177,4.289274,1.779566,0.500555,1.090852
42164,-3.388521,5.630029,4.004513,1.543092,0.443894,1.032277
42165,-3.523442,5.612669,3.730607,1.431920,0.422466,0.981779
42166,-3.811032,5.615389,3.825632,1.302546,0.371582,0.939326
42167,-3.946177,5.663712,3.792258,1.202605,0.307154,0.890730
42168,-3.729374,5.824486,3.710415,1.124570,0.242866,0.824522
42169,-3.397728,5.952114,3.677056,0.996694,0.210485,0.753493
42170,-3.084010,6.100709,3.588328,0.870291,0.180124,0.694450
42171,-2.862532,6.144897,3.493602,0.729909,0.156373,0.651144
42172,-2.678556,6.144141,3.454889,0.617545,0.129313,0.597050
42173,-2.507331,6.029592,3.336776,0.523957,0.118146,0.556428
42174,-2.500063,6.090617,3.184511,0.493901,0.102022,0.488345
42175,-2.505542,6.233107,3.011040,0.512663,0.073920,0.409805
42176,-2.501311,6.421549,2.855248,0.552182,0.039453,0.297301
42177,-2.461714,6.919841,2.796226,0.592511,-0.001215,0.185437
42178,-2.457419,7.549176,2.875912,0.529074,-0.035819,0.111003
42179,-2.482495,8.034440,2.746014,0.359364,-0.083395,0.010540
42180,-2.572923,8.467467,2.782917,0.054255,-0.143810,-0.116925
42181,-2.656218,8.658271,2.777255,-0.298605,-0.189501,-0.188957
42182,-2.783323,8.550648,2.726548,-0.620101,-0.254656,-0.287831
42183,-2.811174,8.140504,2.750098,-0.862804,-0.317872,-0.412922
42184,-2.833205,7.615579,2.915864,-1.011560,-0.355151,-0.539695
42185,-3.013524,7.123812,3.021882,-1.092995,-0.401334,-0.664188
42186,-3.134751,6.843903,3.284455,-1.110306,-0.440306,-0.794109
42187,-3.200649,6.660828,3.517774,-1.112020,-0.480387,-0.919865
42188,-3.314626,6.675560,3.806891,-1.140917,-0.527636,-1.040702
42189,-3.165105,6.694128,3.926467,-1.245258,-0.567355,-1.156110
42190,-2.941436,6.515360,3.924100,-1.411630,-0.605525,-1.258431
42191,-2.753532,6.191910,3.778894,-1.604521,-0.625228,-1.353050
42192,-2.766077,5.757496,3.866238,-1.799930,-0.636347,-1.435545
42193,-2.925362,5.190516,3.863036,-1.973321,-0.657433,-1.515261
42194,-2.998990,4.680780,4.045595,-2.086722,-0.689122,-1.596161
42195,-3.088850,4.297514,4.205926,-2.163515,-0.707390,-1.673366
42196,-3.208256,3.954005,4.474439,-2.259130,-0.727963,-1.732686
42197,-3.290566,3.561457,4.919172,-2.407699,-0.748044,-1.778160
42198,-3.415006,3.070249,5.058112,-2.544125,-0.766021,-1.809032
42199,-3.397235,2.615379,5.141920,-2.631590,-0.773228,-1.839557
42200,-3.405432,2.192152,4.926902,-2.704528,-0.771214,-1.870717
42201,-3.432875,1.865009,4.679178,-2.751952,-0.760642,-1.905888
42202,-3.507394,1.614189,4.828925,-2.787897,-0.739398,-1.947455
42203,-3.578427,1.276003,5.056310,-2.908885,-0.747813,-1.961258
42204,-3.496635,0.810417,5.373015,-3.067810,-0.736565,-1.990348
42205,-3.519576,0.235985,6.136787,-3.216013,-0.677935,-1.988627
42206,-3.812835,-0.422832,6.550415,-3.400233,-0.624818,-1.972098
42207,-3.850380,-0.986261,6.252736,-3.435753,-0.590376,-1.965535
42208,-3.540115,-1.434982,5.880023,-3.279043,-0.527181,-1.988589
42209,-3.487417,-1.729301,5.529937,-3.118748,-0.440344,-1.976182
42210,-3.874327,-1.808366,5.405757,-2.983932,-0.380722,-1.948304
42211,-4.060822,-1.760969,6.191322,-2.886558,-0.346308,-1.955420
42212,-4.240117,-1.924428,7.096063,-3.084431,-0.338391,-1.956392
42213,-4.235568,-2.376980,7.673800,-3.383987,-0.330910,-1.995995
42214,-4.106067,-2.941875,7.868315,-3.554763,-0.268905,-2.009133
42215,-3.871925,-3.461595,7.533514,-3.578067,-0.191820,-2.003843
42216,-3.639610,-3.883797,6.693908,-3.536079,-0.087759,-2.018161
42217,-3.696016,-4.200085,5.736695,-3.400039,0.006650,-2.025641
42218,-3.813173,-4.073119,5.982896,-3.225394,0.052264,-2.029992
42219,-3.892412,-3.896173,6.730951,-3.363989,0.037800,-2.046576
42220,-3.810743,-4.331757,7.379790,-3.618323,0.035103,-2.085640
42221,-3.791671,-5.089460,8.046104,-3.825559,0.065925,-2.105982
42222,-3.629301,-6.118747,8.168276,-4.053005,0.122411,-2.056443
42223,-3.599461,-7.302054,7.036527,-4.004463,0.207945,-1.987885
42224,-3.605113,-8.334777,5.972569,-3.600886,0.338976,-1.950770
42225,-4.007945,-8.505516,5.110403,-3.020413,0.468124,-1.914478
42226,-4.163916,-7.951214,5.138585,-2.670469,0.465246,-1.952300
42227,-3.899956,-7.458289,5.401956,-2.528353,0.459525,-1.976519
42228,-3.851457,-7.011403,5.900394,-2.544947,0.509069,-2.035214
42229,-3.990923,-7.263938,6.388161,-2.708120,0.554303,-2.123585
42230,-3.987084,-7.973978,6.246691,-2.804626,0.601520,-2.201896
42231,-3.786374,-8.775361,5.796462,-2.748015,0.660122,-2.253502
42232,-3.695996,-9.437215,5.213486,-2.556372,0.710684,-2.291251
42233,-3.602795,-9.885166,4.748471,-2.192921,0.747524,-2.306054
42234,-3.648950,-9.825244,4.672393,-1.754254,0.769124,-2.354476
42235,-3.638999,-9.303460,4.791017,-1.501275,0.755057,-2.382310
42236,-3.415139,-8.535454,5.196194,-1.466934,0.735689,-2.384039
42237,-3.064772,-8.001329,5.521891,-1.658698,0.730744,-2.378016
42238,-2.923959,-8.142897,5.448836,-1.972457,0.759861,-2.374245
42239,-3.071759,-8.967634,5.047699,-2.133779,0.808855,-2.397151
42240,-3.210257,-10.132455,4.614924,-2.117839,0.836386,-2.435145
42241,-3.176631,-11.292039,4.163056,-1.899792,0.833467,-2.480726
42242,-2.838018,-12.141408,3.649068,-1.446277,0.837822,-2.516354
42243,-2.484989,-11.682853,3.904422,-0.835598,0.867827,-2.535550
42244,-2.315724,-10.769544,4.245219,-0.520567,0.847901,-2.583663
42245,-2.182676,-9.953668,4.527087,-0.357510,0.811933,-2.595826
42246,-2.099478,-9.225389,4.824080,-0.381611,0.785317,-2.593069
42247,-1.929535,-8.838552,5.017590,-0.550253,0.726609,-2.602374
42248,-1.515096,-9.421003,4.470806,-0.840668,0.649520,-2.592313
42249,-0.962102,-10.620233,3.980581,-0.961032,0.625000,-2.551845
42250,-0.551532,-11.792503,3.862510,-0.892694,0.612273,-2.519829
42251,-0.349192,-12.548380,3.846035,-0.567648,0.625549,-2.493959
42252,-0.211334,-12.337046,4.130795,-0.111578,0.627090,-2.522982
42253,-0.116732,-11.415251,4.165534,0.167289,0.598887,-2.511458
42254,0.007500,-10.226579,4.205833,0.245872,0.580824,-2.469877
42255,0.345524,-9.163121,4.136584,-0.016938,0.545909,-2.413112
42256,1.032620,-8.963690,3.948536,-0.591911,0.508614,-2.341647
42257,1.875546,-10.099444,3.526331,-1.151920,0.497341,-2.243604
42258,2.610847,-11.966471,2.852624,-1.382498,0.530007,-2.138515
42259,2.728692,-13.620102,2.550880,-1.088102,0.646734,-2.059823
42260,2.584757,-13.991062,2.466345,-0.410556,0.666815,-2.063789
42261,2.599482,-12.899821,2.364505,0.212811,0.664994,-2.085078
42262,2.521826,-11.081335,2.422506,0.579285,0.642781,-2.065767
42263,2.952985,-9.560039,2.741845,0.529965,0.574376,-2.024128
42264,3.826702,-9.052504,2.855188,0.111452,0.518099,-1.932990
42265,4.758485,-9.497508,2.681257,-0.334148,0.491490,-1.793041
42266,5.277591,-10.008730,2.628398,-0.615934,0.483735,-1.672096
42267,5.294251,-10.419870,2.623202,-0.747967,0.492439,-1.579918
42268,5.076802,-10.732497,2.627277,-0.688762,0.471177,-1.509625
42269,4.998662,-10.993033,2.525040,-0.563802,0.447228,-1.439863
42270,4.940276,-10.912527,2.509505,-0.389282,0.439025,-1.367515
42271,4.850743,-10.316697,2.570000,-0.319496,0.402904,-1.283208
42272,4.847682,-9.826513,2.566511,-0.384083,0.373737,-1.201286
42273,4.842900,-9.494092,2.595467,-0.465173,0.369737,-1.148507
42274,4.674475,-9.501618,2.665524,-0.537218,0.360155,-1.098824
42275,4.584366,-9.774439,2.369931,-0.508012,0.343537,-1.075331
42276,4.424127,-9.855417,2.296985,-0.382905,0.332317,-1.062254
42277,4.392798,-9.454866,2.398782,-0.278254,0.317531,-1.042945
42278,4.452466,-8.874076,2.405006,-0.276983,0.298991,-1.029861
42279,4.527601,-8.457541,2.319050,-0.394113,0.284448,-1.004335
42280,4.622846,-8.595176,2.038968,-0.538760,0.274470,-0.972865
42281,4.689277,-9.049922,1.789919,-0.551636,0.262901,-0.949502
42282,4.654144,-9.659221,1.644420,-0.426998,0.248389,-0.929049
42283,4.659790,-9.989489,1.760893,-0.177661,0.233266,-0.919473
42284,4.804449,-9.879445,1.956713,0.085088,0.211852,-0.896393
42285,4.983548,-9.126426,2.190145,0.250135,0.199254,-0.866621
42286,4.994434,-8.212592,2.519336,0.260635,0.198359,-0.837429
42287,5.020113,-7.560437,2.718813,0.066132,0.168847,-0.792090
42288,5.406873,-7.933385,2.590787,-0.276077,0.137541,-0.734653
42289,5.514477,-9.196839,2.304678,-0.379504,0.163295,-0.664921
42290,5.403838,-9.992407,2.237749,-0.195885,0.147932,-0.629347
42291,5.301961,-9.670484,2.341444,0.024639,0.124633,-0.596812
42292,5.365923,-9.010340,2.521956,0.079549,0.102794,-0.563931
42293,5.382337,-8.772024,2.632709,0.053726,0.101832,-0.533424
42294,5.431843,-8.671679,2.624710,0.065668,0.106276,-0.513427
42295,5.290909,-8.355658,2.701166,0.084258,0.114815,-0.499029
42296,5.328762,-7.989058,2.777687,-0.003066,0.083824,-0.483645
42297,5.487789,-8.094157,2.489840,-0.153746,0.066358,-0.457578
42298,5.484346,-8.575756,2.263146,-0.220878,0.058149,-0.436322
42299,5.418932,-8.884266,2.099237,-0.164325,0.035443,-0.418699
42300,5.432080,-8.757014,2.203674,-0.039762,0.023642,-0.417897
42301,5.371741,-7.996183,2.585570,0.053943,0.026398,-0.440988
42302,5.420520,-7.371378,2.792892,-0.008109,0.018384,-0.445084
42303,5.552021,-7.537723,2.603621,-0.176925,0.008485,-0.432779
42304,5.594256,-8.164656,2.273676,-0.178424,0.014512,-0.432349
42305,5.518954,-8.594824,2.124560,-0.035559,0.011125,-0.439733
42306,5.656529,-8.329355,2.325772,0.154510,0.001584,-0.428277
42307,5.920830,-7.785913,2.577668,0.088281,-0.012086,-0.381794
42308,6.096497,-7.618521,2.771260,-0.122865,0.005972,-0.320903
42309,6.264278,-8.030927,2.788597,-0.356087,0.025471,-0.269477
42310,6.168534,-8.598568,2.443552,-0.425738,0.048928,-0.224193
42311,5.971486,-8.909742,2.171679,-0.337922,0.047584,-0.205240
42312,5.907567,-8.985148,2.153755,-0.172281,0.039497,-0.184866
42313,5.918418,-8.877698,2.176168,-0.016336,0.023461,-0.157292
42314,6.067674,-8.785962,2.081843,0.096226,0.003052,-0.133656
42315,6.110773,-8.647916,2.036130,0.249846,-0.002148,-0.113695
42316,6.058023,-8.329383,1.971409,0.395714,-0.022385,-0.105419
42317,6.138648,-7.788800,1.962722,0.553416,-0.034819,-0.107423
42318,6.138129,-7.169082,2.118639,0.608904,-0.035947,-0.102671
42319,6.119205,-6.653051,2.473461,0.514674,-0.043899,-0.091869
42320,6.306245,-6.288581,2.516380,0.301958,-0.055205,-0.087556
42321,6.424128,-6.332963,2.456009,0.071221,-0.029148,-0.068029
42322,6.324849,-6.615993,2.510821,-0.060858,-0.005678,-0.067068
42323,6.325334,-6.866625,2.444596,-0.120498,-0.008423,-0.064316
42324,6.631625,-7.122382,2.244689,-0.138375,-0.010074,-0.068181
42325,6.895946,-7.232582,2.234719,-0.104033,0.014674,-0.070600
42326,7.048398,-7.004868,2.315504,-0.025064,0.050905,-0.088740
42327,7.090541,-6.541115,2.550416,-0.049507,0.086184,-0.083258
42328,7.007391,-6.187827,2.564792,-0.156008,0.116383,-0.091424
42329,6.987050,-6.077896,2.398192,-0.267741,0.144320,-0.105821
42330,6.961836,-5.971800,2.409837,-0.386151,0.176529,-0.108762
42331,6.966992,-5.869086,2.150527,-0.487774,0.194162,-0.137946
42332,7.125302,-6.012956,1.933519,-0.546454,0.218731,-0.169423
42333,7.103435,-6.315314,1.803562,-0.536108,0.253826,-0.188956
42334,6.837297,-6.488792,1.565808,-0.448461,0.261445,-0.237349
42335,6.542808,-6.409429,1.667941,-0.309478,0.274671,-0.297028
42336,6.183864,-6.179242,1.872454,-0.180674,0.268852,-0.350645
42337,6.028125,-6.083884,1.741459,-0.176259,0.217388,-0.386299
42338,6.154294,-6.214687,1.693455,-0.210518,0.165171,-0.422985
42339,6.074558,-6.428854,1.312547,-0.224191,0.101020,-0.460558
42340,6.113413,-6.376898,0.969873,-0.232989,0.026900,-0.515392
42341,6.218034,-5.954184,0.905606,-0.255969,-0.039132,-0.584426
42342,6.355760,-5.499377,0.836609,-0.423681,-0.112577,-0.672610
42343,6.518540,-5.379709,0.559801,-0.643674,-0.171551,-0.753412
42344,6.570186,-5.284573,0.774365,-0.810326,-0.192866,-0.838019
42345,6.515198,-5.291378,0.914059,-0.993172,-0.233554,-0.901587
42346,6.549558,-5.482135,0.879262,-1.105747,-0.260998,-0.984306
42347,6.557785,-5.935719,0.740009,-1.152055,-0.281161,-1.062658
42348,6.482166,-6.193773,0.628609,-1.051969,-0.300154,-1.152659
42349,6.501126,-6.242674,0.656817,-0.901173,-0.324694,-1.249157
42350,6.558525,-6.151231,0.684310,-0.738875,-0.330293,-1.348222
42351,6.535621,-6.050932,0.754168,-0.579662,-0.333387,-1.450072
42352,6.615714,-6.054901,0.780376,-0.423121,-0.323484,-1.557689
42353,6.682143,-5.938013,0.872045,-0.273383,-0.307083,-1.671719
42354,6.748560,-5.730283,0.839765,-0.160286,-0.299090,-1.781325
42355,6.830726,-5.514779,0.851784,-0.125002,-0.301368,-1.877950
42356,6.987512,-5.335593,0.849167,-0.152318,-0.318139,-1.978956
42357,7.145144,-5.270025,0.796870,-0.229890,-0.337194,-2.055274
42358,7.493449,-5.400559,0.740521,-0.325010,-0.351682,-2.108714
42359,7.873633,-5.634786,0.774517,-0.417348,-0.353011,-2.137790
42360,8.293368,-5.942189,0.790275,-0.495908,-0.348821,-2.146421
42361,8.705778,-6.301707,0.899480,-0.549931,-0.329212,-2.126001
42362,9.130932,-6.669981,0.912311,-0.569898,-0.296370,-2.081088
42363,9.489519,-7.047149,0.958815,-0.510297,-0.229818,-2.031539
42364,9.666302,-7.151053,0.933372,-0.409628,-0.153781,-1.989339
42365,9.648599,-6.974007,0.932291,-0.309845,-0.087842,-1.941099
42366,9.607677,-6.424119,1.087450,-0.266000,-0.023710,-1.895488
42367,9.412664,-5.689637,1.190141,-0.334440,0.024828,-1.862807
42368,9.393898,-4.979436,1.409298,-0.499532,0.062787,-1.830661
42369,9.398715,-4.500089,1.432577,-0.815082,0.078683,-1.762838
42370,9.493222,-4.505143,1.303562,-1.222687,0.106778,-1.662913
42371,9.463867,-5.116441,1.035182,-1.532253,0.135600,-1.570848
42372,9.404624,-5.813821,0.790403,-1.638438,0.146414,-1.517548
42373,9.409342,-6.220305,0.526754,-1.592663,0.150536,-1.468980
42374,9.419505,-6.245045,0.373301,-1.461627,0.138542,-1.422699
42375,9.513160,-6.151557,0.295947,-1.353189,0.132929,-1.358991
42376,9.506146,-5.938546,0.189102,-1.243472,0.128295,-1.301683
42377,9.525405,-5.770001,0.199115,-1.139829,0.116109,-1.250724
42378,9.561202,-5.575503,0.300099,-1.035125,0.121790,-1.210063
42379,9.486114,-5.450925,0.374091,-0.941324,0.123983,-1.146989
42380,9.409260,-5.487781,0.494010,-0.839127,0.114787,-1.075338
42381,9.411471,-5.301503,0.471050,-0.711235,0.097625,-1.020835
42382,9.527468,-4.988248,0.456864,-0.626809,0.082584,-0.972769
42383,9.605793,-4.834798,0.439236,-0.582949,0.071418,-0.919990
42384,9.619365,-4.768767,0.352679,-0.576211,0.059803,-0.860756
42385,9.607234,-4.715007,0.259748,-0.548923,0.053766,-0.794519
42386,9.555829,-4.569414,0.277920,-0.473715,0.038426,-0.755597
42387,9.428003,-4.237986,0.336507,-0.384960,0.019884,-0.727710
42388,9.411700,-3.915329,0.459222,-0.322773,0.015283,-0.697279
42389,9.412027,-3.640456,0.558757,-0.330669,0.014113,-0.642043
42390,9.411071,-3.492388,0.606323,-0.375390,0.015692,-0.583212
42391,9.487340,-3.458639,0.601039,-0.428209,0.020737,-0.518820
42392,9.463876,-3.450184,0.496173,-0.459824,0.033564,-0.452518
42393,9.437376,-3.525586,0.311558,-0.460848,0.034755,-0.394978
42394,9.420881,-3.407327,0.208931,-0.429731,0.024712,-0.345993
42395,9.446668,-3.328601,0.178724,-0.412720,0.022406,-0.296927
42396,9.511403,-3.346472,0.127841,-0.393973,0.028173,-0.254473
42397,9.574771,-3.368051,0.077830,-0.356262,0.025394,-0.204415
42398,9.601344,-3.237202,-0.037015,-0.282966,0.026554,-0.182288
42399,9.619454,-3.122122,-0.025530,-0.213459,0.023221,-0.162922
42400,9.643738,-2.917180,-0.053541,-0.143790,0.020628,-0.153363
42401,9.695339,-2.751081,0.043136,-0.129331,0.023653,-0.130275
42402,9.649494,-2.762908,-0.031005,-0.139152,0.037989,-0.106781
42403,9.572461,-2.747922,-0.045076,-0.101193,0.023467,-0.076180
42404,9.598875,-2.700923,-0.082670,-0.069283,0.013910,-0.067422
42405,9.520908,-2.689185,-0.096434,-0.015420,0.009378,-0.050691
42406,9.535577,-2.558217,-0.031074,0.042139,-0.005921,-0.053137
42407,9.581796,-2.452255,-0.116970,0.080582,-0.019255,-0.050194
42408,9.646229,-2.293789,-0.069857,0.117549,-0.025998,-0.052443
42409,9.638848,-2.170105,-0.012639,0.141581,-0.037713,-0.067343
42410,9.755785,-1.950364,-0.028509,0.180543,-0.034555,-0.070102
42411,9.707411,-1.786414,0.108676,0.162465,-0.019100,-0.063092
42412,9.751039,-1.687246,0.204937,0.124467,-0.018232,-0.051480
42413,9.705797,-1.731077,0.235374,0.060441,-0.011761,-0.035136
42414,9.665543,-1.873155,0.196891,0.049404,-0.006543,-0.040288
42415,9.649703,-1.974549,0.121646,0.077527,-0.004208,-0.053098
42416,9.626464,-1.928349,0.150282,0.119049,-0.008939,-0.063058
42417,9.649259,-1.832928,0.148216,0.143314,-0.019046,-0.071841
42418,9.715661,-1.720001,0.159458,0.138025,-0.022291,-0.075314
42419,9.728639,-1.693678,0.186032,0.116074,-0.027463,-0.083220
42420,9.768356,-1.676000,0.139919,0.083158,-0.028540,-0.087878
42421,9.806473,-1.770056,0.149007,0.049231,-0.018300,-0.079457
42422,9.759604,-1.867469,0.085577,0.036296,-0.019893,-0.078380
42423,9.715424,-1.908270,0.115415,0.044691,-0.016029,-0.074478
42424,9.732482,-1.903100,0.154072,0.055571,-0.015525,-0.072453
42425,9.733843,-1.896168,0.153569,0.044884,-0.014409,-0.068388
42426,9.748158,-1.949199,0.099350,0.036751,-0.010455,-0.054825
42427,9.783343,-1.997368,0.143707,0.038973,-0.007274,-0.043865
42428,9.694332,-1.978068,0.150690,0.065003,0.001297,-0.050654
42429,9.715791,-1.993379,0.112628,0.068387,0.001999,-0.043683
42430,9.737669,-1.982986,0.212226,0.063049,-0.000847,-0.039142
42431,9.702922,-1.954940,0.122444,0.049209,0.003821,-0.038250
42432,9.683043,-1.931500,0.162966,0.025355,0.002114,-0.031195
42433,9.659432,-1.995097,0.063661,-0.002733,0.002314,-0.020614
42434,9.617439,-2.091021,0.061278,0.008650,0.004131,-0.013958
42435,9.670331,-2.110965,0.009418,0.047707,-0.006471,-0.014771
42436,9.719006,-2.001557,-0.019501,0.076277,-0.004910,-0.012742
42437,9.731844,-1.952981,0.054449,0.090788,-0.009757,-0.008591
42438,9.707185,-1.911789,0.081991,0.084970,-0.010774,-0.002996
42439,9.702411,-1.892681,0.161370,0.100636,-0.011319,-0.007860
42440,9.783043,-1.784546,0.119231,0.104778,-0.012208,-0.019795
42441,9.782239,-1.702067,0.108408,0.080933,-0.007616,-0.025750
42442,9.785663,-1.749349,0.075385,0.036098,-0.002202,-0.016604
42443,9.716019,-1.864089,0.099365,0.023804,0.002248,-0.023470
42444,9.760071,-1.843416,0.113860,0.031749,0.003893,-0.040190
42445,9.824612,-1.733323,0.123773,0.015123,0.008095,-0.033240
42446,9.787107,-1.738999,0.170349,-0.012411,0.018517,-0.033354
42447,9.703895,-1.820576,0.110714,-0.045433,0.017669,-0.029954
42448,9.636438,-1.903615,0.089919,-0.031158,0.015351,-0.034622
42449,9.654612,-1.870645,0.085079,-0.012929,0.014104,-0.043654
42450,9.659711,-1.886749,0.098858,-0.009029,0.012531,-0.045711
42451,9.640235,-1.971829,0.104291,-0.010376,0.007091,-0.034799
42452,9.627871,-2.017749,0.123399,0.005978,0.005899,-0.042590
42453,9.708416,-2.017705,0.137934,0.034846,0.004560,-0.039724
42454,9.703276,-1.913564,0.114973,0.036398,0.007983,-0.033824
42455,9.697801,-1.920924,0.148574,0.028974,0.004012,-0.026136
42456,9.705862,-1.988592,0.128698,0.023985,0.003946,-0.017370
42457,9.742692,-1.897510,0.072780,0.031155,0.004121,-0.020858
42458,9.719740,-1.824349,0.055407,0.025091,0.008714,-0.018414
42459,9.670645,-1.850741,0.075490,0.019169,0.011816,-0.015547
42460,9.671871,-1.820112,0.123116,0.016102,0.011225,-0.016004
42461,9.718862,-1.850356,0.104822,0.002021,0.014673,-0.013237
42462,9.712158,-1.888240,0.092594,0.000891,0.016686,-0.017247
42463,9.743642,-1.916687,0.035308,0.001438,0.017505,-0.020605
42464,9.722362,-1.923599,0.030196,0.002973,0.017802,-0.020377
42465,9.716660,-1.932034,0.064344,0.007517,0.016048,-0.017376
42466,9.717809,-1.901483,0.111769,0.004624,0.007184,-0.012355
42467,9.714469,-1.851343,0.145586,-0.013047,0.002432,-0.001639
42468,9.736101,-1.842597,0.152141,-0.041682,0.001228,0.004309
42469,9.760227,-1.774733,0.159237,-0.068923,0.001814,0.010058
42470,9.829237,-1.742837,0.329123,-0.124807,0.011117,0.022366
42471,9.894600,-1.579643,0.338719,-0.204510,0.028075,0.034349
42472,9.836036,-1.459863,0.276098,-0.299398,0.061023,0.029291
42473,9.761217,-1.366553,0.129958,-0.390731,0.087540,0.028211
42474,9.617986,-1.498013,-0.028676,-0.455885,0.106144,0.024678
42475,9.554344,-1.606347,-0.036528,-0.472995,0.106059,0.014569
42476,9.575519,-1.847153,-0.056766,-0.485682,0.098884,0.012013
42477,9.568155,-2.135221,-0.101481,-0.444538,0.098433,0.010642
42478,9.532110,-2.334333,-0.085466,-0.345765,0.080184,0.001322
42479,9.544828,-2.396339,-0.049162,-0.211661,0.058202,-0.004566
42480,9.613266,-2.196979,-0.075947,-0.090493,0.034129,-0.017376
