// Start Time: Unknown
// Update Rate: 100.0Hz
// Filter Profile: human (46.1)
// Firmware Version: 4.3.5
PacketCounter,Acc_X,Acc_Y,Acc_Z,Gyr_X,Gyr_Y,Gyr_Z
07385,9.706948,-0.622043,1.151032,-0.083354,-0.037958,0.040988
07386,9.787388,-0.641258,1.250181,-0.073624,-0.035059,0.053917
07387,9.797894,-0.701025,1.243291,-0.056496,-0.019468,0.058944
07388,9.827705,-0.724253,1.244944,-0.041274,-0.005378,0.063366
07389,9.810980,-0.757333,1.259417,-0.017807,0.001796,0.061724
07390,9.813268,-0.735425,1.191951,0.001051,0.004991,0.054685
07391,9.848716,-0.677525,1.185165,0.021829,0.014071,0.058495
07392,9.884360,-0.661354,1.144296,0.023733,0.018030,0.049647
07393,9.857140,-0.639009,1.164760,0.019875,0.015040,0.048431
07394,9.866796,-0.654736,1.197650,0.017030,0.021549,0.043987
07395,9.866239,-0.658955,1.199923,0.013551,0.022486,0.045253
07396,9.862301,-0.673409,1.180647,0.014946,0.029040,0.043724
07397,9.808920,-0.724837,1.241450,0.030596,0.035755,0.039615
07398,9.795183,-0.786379,1.247623,0.051891,0.042197,0.036115
07399,9.777462,-0.756107,1.212558,0.069832,0.050882,0.034707
07400,9.726714,-0.736034,1.242387,0.090988,0.049135,0.029611
07401,9.772160,-0.710764,1.146739,0.101218,0.051843,0.025773
07402,9.748147,-0.717017,1.158232,0.109118,0.050112,0.028698
07403,9.730616,-0.685542,1.123747,0.117789,0.051814,0.026345
07404,9.719886,-0.675525,1.098274,0.127094,0.046329,0.026589
07405,9.689125,-0.600881,1.044445,0.127421,0.039945,0.027920
07406,9.535649,-0.512324,0.918943,0.108416,0.025230,0.032972
07407,9.419149,-0.446689,0.713942,0.086996,-0.005492,0.042859
07408,9.336253,-0.431243,0.495766,0.040145,-0.059786,0.051463
07409,9.366276,-0.411243,0.525661,-0.027125,-0.111263,0.069332
07410,9.569513,-0.489594,0.652625,-0.100241,-0.146605,0.087656
07411,9.746726,-0.560548,0.884847,-0.178089,-0.150590,0.114215
07412,9.864375,-0.703365,1.131208,-0.234977,-0.123390,0.138670
07413,9.922048,-0.815884,1.372958,-0.246223,-0.088390,0.152381
07414,10.009525,-0.845913,1.600305,-0.219042,-0.057894,0.154226
07415,10.106667,-0.888192,1.862544,-0.198969,-0.009764,0.148651
07416,10.295574,-0.971201,2.162682,-0.144780,0.067689,0.130118
07417,10.432349,-0.952142,2.353786,-0.088045,0.186026,0.108428
07418,10.448964,-0.957989,2.373240,0.012296,0.304536,0.073426
07419,10.386927,-0.974371,2.288024,0.108856,0.391824,0.046536
07420,10.248709,-1.027148,1.969393,0.196023,0.446075,0.027572
07421,10.090849,-0.980944,1.639300,0.274194,0.457535,0.017468
07422,9.965885,-0.824681,1.415785,0.316102,0.444856,-0.001798
07423,9.811065,-0.703359,1.128036,0.314903,0.417852,-0.017252
07424,9.615615,-0.624214,0.833404,0.292494,0.386921,-0.018724
07425,9.352064,-0.518200,0.582495,0.227878,0.338047,-0.013618
07426,9.123621,-0.458311,0.203317,0.139801,0.255501,-0.002422
07427,8.721573,-0.426314,-0.316273,0.043085,0.139220,0.026994
07428,8.535856,-0.357886,-0.404056,-0.081330,-0.017823,0.047669
07429,8.762860,-0.265436,-0.216227,-0.244183,-0.193039,0.066613
07430,9.273463,-0.269453,0.129397,-0.433217,-0.297296,0.107806
07431,9.725050,-0.277303,0.771638,-0.626102,-0.295676,0.146389
07432,9.971323,-0.362382,1.336674,-0.804082,-0.221356,0.158263
07433,9.976818,-0.673634,1.549607,-0.895946,-0.155885,0.161292
07434,9.881674,-0.985960,1.772337,-0.910112,-0.152498,0.171389
07435,10.008883,-1.161305,2.541679,-0.885312,-0.148941,0.149075
07436,10.517244,-1.330732,3.438868,-0.815121,-0.061141,0.127506
07437,11.237728,-1.491335,4.313504,-0.697464,0.171217,0.079170
07438,11.590759,-1.557211,4.491627,-0.514119,0.513498,0.009999
07439,11.123014,-1.910737,3.723031,-0.233644,0.820779,-0.060926
07440,10.315703,-2.211726,2.795061,0.215295,0.936223,-0.095952
07441,9.987181,-2.207447,2.196165,0.587872,0.837081,-0.100322
07442,10.247594,-2.023601,2.167093,0.749413,0.701450,-0.072862
07443,10.657337,-1.562001,2.267755,0.704770,0.683062,-0.054576
07444,10.605936,-1.149499,2.141975,0.563034,0.819691,-0.067976
07445,9.616147,-0.973409,1.241601,0.513127,0.968980,-0.079681
07446,8.439765,-0.871465,0.234592,0.557147,0.922775,-0.066886
07447,7.762885,-0.912769,-0.941490,0.574959,0.640547,-0.017992
07448,7.674557,-0.990168,-1.642173,0.451092,0.247914,0.073604
07449,7.754502,-0.849762,-1.574530,0.190420,-0.116819,0.170545
07450,8.538932,-0.225334,-0.695544,-0.208737,-0.331204,0.227639
07451,9.302520,-0.116311,0.212473,-0.584175,-0.326510,0.268573
07452,9.534999,-0.184660,0.855513,-0.772605,-0.228901,0.278205
07453,9.375838,-0.623452,1.126170,-0.877628,-0.177522,0.285353
07454,9.185431,-1.285316,1.268776,-0.900140,-0.262073,0.324009
07455,9.449431,-1.500171,2.281419,-0.866877,-0.374801,0.360068
07456,10.474791,-1.348817,4.067059,-0.892152,-0.354849,0.369426
07457,11.545856,-1.294936,5.253124,-0.946720,-0.065762,0.363095
07458,11.848270,-1.584597,5.462834,-0.853570,0.357154,0.341772
07459,11.583012,-1.869470,5.061284,-0.559433,0.694889,0.313401
07460,10.967950,-1.827559,4.552029,-0.246535,0.839401,0.308200
07461,10.744053,-1.565609,3.789987,0.024203,0.801800,0.306978
07462,10.711088,-1.368184,2.938329,0.217382,0.801224,0.295349
07463,10.339001,-1.337802,2.250705,0.279114,0.875785,0.277183
07464,9.269029,-1.523457,1.106527,0.234018,0.984048,0.258561
07465,7.814477,-1.985216,-0.326686,0.347901,0.916555,0.248400
07466,6.915397,-2.333456,-1.437960,0.499651,0.598745,0.286772
07467,6.748174,-2.352707,-1.583677,0.381191,0.139988,0.374057
07468,7.649855,-2.088872,-1.124110,-0.052340,-0.235788,0.513253
07469,8.579421,-2.020977,-0.626761,-0.481257,-0.323815,0.636572
07470,8.805504,-2.485230,-0.160745,-0.666734,-0.330348,0.746694
07471,8.907317,-3.382089,0.654207,-0.772544,-0.388706,0.899630
07472,9.121517,-4.092682,1.721529,-0.954269,-0.492285,1.086964
07473,9.517266,-4.264204,3.505849,-1.086791,-0.545416,1.225267
07474,10.700841,-3.693382,6.067944,-1.118091,-0.451393,1.286311
07475,11.860040,-2.957314,8.172966,-1.133527,-0.050632,1.255174
07476,12.038441,-2.769151,8.303602,-1.032947,0.519468,1.141483
07477,11.355205,-3.411758,7.064487,-0.663386,0.977374,1.037401
07478,10.644955,-4.296488,5.489093,-0.239522,1.187752,1.008098
07479,9.724666,-4.960839,3.966504,0.111745,1.276555,1.044265
07480,8.908645,-5.499247,2.615628,0.484057,1.262951,1.101402
07481,8.458034,-5.746828,1.347043,0.855528,1.170141,1.192569
07482,8.097095,-5.461009,0.549496,1.060899,1.040662,1.290229
07483,7.939551,-4.904816,-0.082023,1.055844,0.848671,1.365035
07484,7.718914,-4.130083,-0.665940,0.948188,0.637459,1.390567
07485,7.436777,-3.257181,-1.067673,0.766815,0.353161,1.375784
07486,7.890302,-2.496068,-0.593239,0.471194,0.053243,1.374252
07487,8.618819,-1.997594,0.442487,-0.048142,-0.074177,1.406190
07488,9.042690,-1.824541,1.496882,-0.565203,-0.085195,1.472196
07489,9.029208,-1.727195,2.680657,-1.023064,-0.055781,1.506783
07490,8.958523,-1.679833,4.842776,-1.389243,-0.060049,1.478796
07491,10.058562,-1.135406,7.435911,-1.806163,0.022033,1.397070
07492,11.106800,-0.910618,8.703352,-2.283010,0.427438,1.238885
07493,11.125287,-1.853108,7.917840,-2.461641,0.956616,1.047419
07494,10.421589,-3.562324,6.383322,-2.257806,1.363499,0.953361
07495,9.356983,-5.215605,4.747824,-1.898920,1.506376,0.983032
07496,8.492574,-6.824770,3.230592,-1.496142,1.456769,1.044982
07497,7.662935,-8.296893,1.336453,-0.977830,1.309838,1.111805
07498,6.803340,-9.038068,-0.207326,-0.294557,1.085067,1.170524
07499,6.066236,-9.263796,-1.186748,0.432929,0.766344,1.178789
07500,5.871749,-8.885576,-1.533967,1.030284,0.413505,1.175558
07501,5.958993,-7.836802,-1.513876,1.452321,0.079453,1.174083
07502,6.316371,-6.336763,-1.182954,1.660681,-0.214146,1.178741
07503,6.767933,-4.941470,-0.343624,1.564027,-0.449241,1.178391
07504,7.468806,-3.668262,0.906593,1.207446,-0.585404,1.188363
07505,8.010873,-2.634226,2.557760,0.620182,-0.590157,1.203715
07506,8.277772,-1.866020,4.320438,-0.022262,-0.481155,1.173041
07507,8.742515,-1.586049,5.960510,-0.691070,-0.293749,1.108059
07508,9.069269,-1.937873,7.146289,-1.345122,0.035045,1.016156
07509,9.161523,-2.841813,7.504375,-1.783920,0.392425,0.925306
07510,8.949588,-4.509043,6.761838,-1.956962,0.735694,0.879046
07511,8.114825,-6.429739,5.200830,-1.725026,0.924149,0.873048
07512,7.405209,-8.009486,3.876400,-1.239686,0.918867,0.904596
07513,6.890097,-9.424307,2.523093,-0.732937,0.799239,0.953148
07514,6.323266,-10.344274,1.072794,-0.101158,0.643464,0.981052
07515,5.631702,-10.663060,0.010181,0.682961,0.451209,0.967176
07516,5.162347,-10.229315,-0.703187,1.464881,0.224512,0.969253
07517,4.758251,-9.182128,-1.014331,2.022808,-0.026769,0.986702
07518,4.700047,-7.906396,-1.138793,2.300100,-0.334225,1.001056
07519,5.010925,-6.538055,-0.849115,2.264304,-0.637663,1.021939
07520,5.599662,-5.236625,0.014661,1.875077,-0.887801,1.056121
07521,6.466060,-4.037634,1.107608,1.168084,-1.011837,1.106841
07522,6.993799,-3.139421,2.087207,0.332907,-0.956856,1.145098
07523,7.069052,-2.818619,3.276211,-0.447155,-0.860509,1.141504
07524,7.332025,-2.978997,5.491398,-1.200858,-0.753930,1.107044
07525,8.245140,-3.390312,7.882722,-2.067051,-0.501864,1.083254
07526,8.692223,-4.252272,8.967385,-2.767220,-0.048463,1.044015
07527,8.417359,-6.106638,8.327646,-2.955515,0.433070,0.976110
07528,7.537501,-8.750446,6.661928,-2.485571,0.744631,0.956428
07529,6.743066,-10.643462,5.464441,-1.680206,0.805392,1.014604
07530,6.255965,-12.081716,4.216679,-0.949680,0.751997,1.104658
07531,5.787339,-13.038599,2.706701,-0.137232,0.663825,1.188987
07532,5.294447,-13.447321,1.164105,0.772047,0.562220,1.245290
07533,4.697299,-13.210374,-0.108771,1.801218,0.463870,1.291366
07534,3.992260,-12.258855,-0.688368,2.727610,0.291888,1.309494
07535,3.800623,-10.744445,-0.819787,3.278606,0.014269,1.337110
07536,4.088651,-8.973844,-0.828219,3.377485,-0.268313,1.375502
07537,4.428255,-7.182255,-0.785159,3.128786,-0.509089,1.428611
07538,4.699760,-5.563736,-0.264325,2.526599,-0.701645,1.483672
07539,5.013832,-4.382801,0.587795,1.660789,-0.826856,1.547670
07540,5.377297,-3.507580,2.188428,0.539006,-0.822419,1.595269
07541,5.661919,-3.070523,3.851192,-0.660855,-0.680895,1.608400
07542,5.517766,-3.305718,5.435965,-1.689581,-0.465468,1.555228
07543,5.528720,-3.962862,7.142349,-2.542164,-0.240305,1.479654
07544,5.675340,-5.106642,7.932288,-3.205158,0.072020,1.419941
07545,5.455086,-6.942129,7.533233,-3.443970,0.376595,1.353602
07546,5.188547,-9.509465,6.314573,-3.190825,0.603162,1.335189
07547,4.767102,-11.918393,5.260879,-2.340549,0.693859,1.356354
07548,4.684195,-13.755417,4.981113,-1.306885,0.664634,1.439277
07549,4.542600,-15.169179,4.533971,-0.285082,0.600002,1.527214
07550,4.362752,-15.628501,3.777100,0.890848,0.545411,1.576351
07551,4.275758,-14.894372,2.500955,2.173537,0.527339,1.607186
07552,4.028105,-13.540235,0.985711,3.468847,0.560484,1.640161
07553,3.359587,-12.036870,0.011853,4.586031,0.550082,1.609167
07554,2.761696,-10.481809,-0.325637,5.237193,0.457677,1.563003
07555,2.405176,-8.802554,-0.374974,5.306951,0.312258,1.546849
07556,1.982036,-6.880101,-0.312863,4.944349,0.182902,1.543384
07557,1.306548,-4.802997,-0.196538,4.284287,0.043899,1.502239
07558,0.934558,-2.839296,0.267415,3.296781,-0.168940,1.446668
07559,1.151676,-1.364056,1.103283,1.878604,-0.437402,1.432979
07560,1.764515,-1.248584,2.363875,0.252098,-0.601350,1.446158
07561,2.352317,-1.550643,4.212662,-1.304210,-0.569781,1.481830
07562,2.376079,-2.390029,5.809966,-2.762930,-0.425386,1.505572
07563,2.072821,-3.806343,6.327653,-3.908511,-0.264859,1.476507
07564,1.763896,-5.900658,5.919264,-4.632554,-0.189396,1.414734
07565,1.905087,-8.252409,5.591218,-4.820591,-0.175216,1.348294
07566,2.310693,-10.467781,5.737250,-4.605676,-0.150143,1.279050
07567,2.845010,-12.732635,6.088330,-4.068336,-0.110516,1.223384
07568,3.238384,-15.246020,6.088513,-3.170566,-0.020364,1.223706
07569,3.131710,-17.195326,5.388976,-1.665337,0.111000,1.278264
07570,2.509474,-17.661423,4.476516,0.381934,0.184077,1.353111
07571,1.939593,-16.339956,3.534105,2.437249,0.175937,1.431590
07572,1.531016,-13.761004,2.425840,4.069787,0.140154,1.431976
07573,1.436653,-10.586113,1.600817,5.095528,0.101570,1.343469
07574,1.156598,-7.752616,1.020597,5.502591,0.083066,1.209686
07575,0.689696,-5.682163,0.839113,5.402360,0.031159,1.078712
07576,0.199665,-3.874920,1.106079,4.815415,-0.040620,0.978439
07577,-0.467320,-1.972192,1.722108,3.798771,-0.123326,0.882363
07578,-0.964833,-0.172610,2.509648,2.364237,-0.234508,0.799811
07579,-0.981275,0.752985,3.451237,0.522348,-0.336008,0.729784
07580,-0.438129,0.556369,4.307204,-1.345681,-0.326427,0.667650
07581,0.166065,-0.021874,5.490111,-2.987569,-0.169676,0.608957
07582,0.270284,-2.415475,5.776005,-4.205301,-0.000916,0.521122
07583,0.462256,-6.280387,5.574644,-4.727927,0.047295,0.419369
07584,0.897548,-10.037677,5.876109,-4.450495,0.067220,0.340260
07585,1.260541,-12.850890,6.490605,-3.643397,0.148790,0.293305
07586,1.271335,-15.005799,6.382754,-2.501211,0.270090,0.291712
07587,1.015612,-16.387942,5.483872,-0.915564,0.351617,0.307823
07588,0.847140,-16.004572,4.852667,1.003656,0.379889,0.358196
07589,0.406682,-13.559154,4.248411,2.607376,0.375203,0.358601
07590,0.091322,-10.382795,3.500457,3.593098,0.324589,0.295670
07591,-0.165773,-7.481314,3.086952,4.006084,0.290587,0.198087
07592,-0.573292,-5.244509,2.890827,3.869397,0.289144,0.065669
07593,-0.913608,-3.909899,2.714255,3.264987,0.230026,-0.055474
07594,-0.912648,-2.979327,2.689055,2.303248,0.102901,-0.104044
07595,-1.048608,-1.972569,2.900277,1.076975,-0.013310,-0.165266
07596,-1.360739,-1.412677,3.173208,-0.304977,-0.127131,-0.276388
07597,-0.925232,-2.126013,3.355956,-1.615721,-0.266163,-0.368043
07598,0.165446,-2.772080,4.110590,-2.739050,-0.264539,-0.402259
07599,0.771571,-3.718983,5.222068,-3.647844,-0.091330,-0.504749
07600,1.115047,-5.951979,5.657798,-4.035748,0.061778,-0.624374
07601,1.359632,-8.927885,5.810162,-3.785437,0.181138,-0.705841
07602,1.605670,-11.412882,6.353102,-3.084421,0.280746,-0.718964
07603,1.761978,-13.364748,6.725737,-2.229627,0.425544,-0.678323
07604,1.496790,-14.461713,5.906782,-1.112508,0.555841,-0.634088
07605,1.015436,-14.017476,4.696200,0.245678,0.591743,-0.619047
07606,0.526814,-12.473524,3.797486,1.426750,0.558179,-0.664544
07607,0.024466,-10.599089,3.206084,2.173081,0.477272,-0.746185
07608,-0.452956,-8.739788,2.836486,2.451334,0.349616,-0.836497
07609,-0.635149,-7.217333,2.603250,2.355183,0.219358,-0.928570
07610,-0.419600,-6.185715,2.543009,1.955163,0.085689,-0.989977
07611,0.068115,-5.624389,2.491545,1.305897,-0.018076,-1.014958
07612,0.344944,-5.399074,2.057230,0.580050,-0.104076,-1.045279
07613,0.451158,-5.291918,1.406616,-0.093910,-0.255055,-1.114844
07614,0.554293,-5.066233,0.989242,-0.792741,-0.480354,-1.227686
07615,0.755548,-4.683939,0.835019,-1.545317,-0.782271,-1.360109
07616,1.558453,-4.310191,1.649477,-2.303786,-1.061173,-1.438295
07617,2.981845,-4.317064,3.996027,-3.152024,-1.012671,-1.461871
07618,4.016334,-5.211119,6.404006,-4.004911,-0.533641,-1.451205
07619,3.747820,-7.392953,7.076163,-4.367090,0.102003,-1.468666
07620,2.922031,-10.580147,6.708806,-3.868452,0.539411,-1.453870
07621,2.630963,-12.926949,6.347365,-2.914570,0.750667,-1.381278
07622,2.835735,-14.435516,5.456197,-2.121744,0.804666,-1.237595
07623,3.097208,-15.323563,3.841995,-1.182347,0.800647,-1.093822
07624,2.994972,-15.102114,2.306656,0.008950,0.769019,-1.038690
07625,2.451630,-14.487418,1.198677,1.108381,0.679886,-1.061798
07626,1.585508,-13.601941,0.750587,1.965153,0.495673,-1.095434
07627,1.027807,-12.266285,0.507112,2.468394,0.240973,-1.119671
07628,1.091464,-10.772762,0.325817,2.639329,-0.006297,-1.113542
07629,1.498594,-9.072775,0.022999,2.572182,-0.206426,-1.066484
07630,1.599756,-7.505270,-0.161204,2.321283,-0.385379,-1.018224
07631,1.370286,-5.924651,-0.174677,1.857301,-0.629548,-1.019465
07632,1.491363,-4.540219,0.310929,1.082566,-0.914154,-1.048053
07633,2.264697,-3.357952,1.823243,0.076111,-1.074018,-1.115783
07634,3.790548,-2.465658,4.564956,-1.149711,-0.960639,-1.178755
07635,5.241685,-2.080662,7.212088,-2.510922,-0.511200,-1.217528
07636,5.817067,-3.433289,7.823956,-3.529608,0.079887,-1.265353
07637,5.382334,-6.454356,6.690270,-3.840018,0.576461,-1.250876
07638,4.472274,-9.842586,5.397478,-3.456418,0.846630,-1.170465
07639,4.192501,-12.114273,4.538401,-2.810221,0.951488,-1.069077
07640,4.180702,-13.691349,3.300548,-2.085078,0.945905,-1.000831
07641,4.230887,-14.241273,1.913180,-1.030172,0.875662,-1.003277
07642,4.074321,-13.624440,0.961585,0.148243,0.768967,-1.066137
07643,3.704653,-12.450951,0.465297,1.137645,0.598294,-1.142938
07644,3.330047,-11.244383,0.202712,1.809462,0.342037,-1.195763
07645,3.408270,-10.265600,-0.126529,2.153528,0.091737,-1.199653
07646,3.479450,-9.295334,-0.113628,2.238058,-0.099012,-1.167449
07647,3.382604,-8.406124,0.017236,2.183915,-0.280335,-1.132150
07648,3.206990,-7.197520,0.165953,1.961428,-0.452905,-1.128418
07649,3.237895,-6.011281,0.584588,1.541276,-0.591016,-1.173373
07650,3.868395,-4.452397,1.878322,0.970348,-0.695389,-1.224750
07651,5.042988,-3.218930,3.995582,0.086824,-0.627079,-1.272613
07652,6.258090,-2.827856,6.020321,-0.903985,-0.350965,-1.310828
07653,7.146474,-3.743407,6.725226,-1.760729,0.046086,-1.326802
07654,7.197818,-5.647711,5.969857,-2.179615,0.427432,-1.310883
07655,6.785069,-7.621644,5.035991,-2.058948,0.612524,-1.290246
07656,6.820668,-9.000950,4.791728,-1.785555,0.635743,-1.256270
07657,7.127330,-9.987501,4.102853,-1.572069,0.624178,-1.204592
07658,6.985831,-10.438859,3.039780,-1.116833,0.743617,-1.210203
07659,5.999385,-11.015003,1.887442,-0.376084,0.923486,-1.279132
07660,4.528921,-11.855350,0.689228,0.573289,0.977298,-1.338356
07661,3.115538,-11.975084,0.189144,1.501419,0.805080,-1.336518
07662,2.582896,-11.134139,-0.078754,2.151406,0.407295,-1.261968
07663,3.297875,-9.679701,-0.039454,2.383981,-0.036279,-1.154475
07664,4.691388,-8.218572,-0.050345,2.374247,-0.312608,-1.088199
07665,5.786698,-6.587321,0.360887,2.285907,-0.484119,-1.067810
07666,6.383614,-4.925291,1.085306,1.972294,-0.607162,-1.110661
07667,6.500956,-3.646006,1.553056,1.426221,-0.680455,-1.181010
07668,6.222098,-2.771089,2.129686,0.710052,-0.758055,-1.253918
07669,6.353089,-2.367334,3.543797,-0.129007,-0.842104,-1.306608
07670,7.512827,-2.269838,5.855767,-1.152617,-0.773494,-1.309400
07671,9.019686,-2.610145,7.597270,-2.265157,-0.397559,-1.279586
07672,9.777819,-3.873522,7.425013,-2.942939,0.153596,-1.278950
07673,9.516949,-5.987719,5.998921,-2.905816,0.646078,-1.281002
07674,8.390199,-7.999886,4.516158,-2.366554,0.890295,-1.253254
07675,7.756385,-9.327729,3.901006,-1.701563,0.837427,-1.228221
07676,7.910336,-10.048988,3.762806,-1.098528,0.676561,-1.193531
07677,8.177574,-9.868964,3.681024,-0.498437,0.603018,-1.152771
07678,8.186774,-9.115517,3.622096,0.084476,0.636078,-1.143568
07679,7.692811,-8.477124,2.796358,0.707123,0.748252,-1.158195
07680,6.553948,-8.166733,1.562374,1.363721,0.784599,-1.196575
07681,5.462865,-8.073794,0.324694,1.974167,0.594092,-1.204868
07682,5.203800,-7.682940,-0.270673,2.338768,0.211013,-1.177538
07683,5.805283,-6.686228,-0.201773,2.372953,-0.176247,-1.111037
07684,6.594325,-5.031170,0.365957,2.179577,-0.407911,-1.063030
07685,7.159315,-3.294159,1.235276,1.901660,-0.495129,-1.080297
07686,7.605368,-1.976659,2.543525,1.498198,-0.510053,-1.133115
07687,8.261808,-1.162528,3.921334,0.832218,-0.451814,-1.152961
07688,8.795374,-1.209637,4.829331,-0.010042,-0.243849,-1.170360
07689,9.013124,-2.126362,5.192227,-0.697451,0.026716,-1.196768
07690,8.885605,-3.758924,5.680578,-1.141074,0.284292,-1.278541
07691,8.955092,-5.581995,6.211572,-1.311163,0.394112,-1.358159
07692,9.311471,-6.880619,6.547681,-1.234001,0.501400,-1.377105
07693,9.604036,-7.470006,6.325070,-0.865704,0.684375,-1.323988
07694,9.390988,-7.492023,5.600712,-0.236686,0.867736,-1.231846
07695,8.791936,-7.594341,4.428065,0.417006,0.935632,-1.138466
07696,7.788667,-7.732010,2.794252,1.065989,0.895006,-1.053523
07697,6.498159,-7.335902,1.155709,1.732645,0.719157,-0.998174
07698,5.405206,-6.576475,-0.046967,2.293045,0.335960,-0.978579
07699,5.278713,-5.869713,-0.296811,2.606204,-0.146080,-0.951679
07700,6.324191,-5.072706,0.457000,2.555887,-0.530847,-0.880614
07701,7.653927,-3.713052,1.701858,2.324670,-0.677107,-0.812007
07702,8.164972,-1.829450,2.406687,2.019374,-0.663113,-0.810952
07703,7.888977,-0.244023,2.033183,1.688481,-0.679669,-0.904198
07704,7.382496,0.533230,1.302869,1.254974,-0.834153,-1.025546
07705,7.586712,0.440762,1.241172,0.635888,-1.066618,-1.079827
07706,8.664604,0.078272,2.575297,-0.121480,-1.221479,-1.033715
07707,10.360192,-0.373620,4.917282,-0.990110,-1.117217,-0.935294
07708,11.554017,-0.990953,6.637190,-1.733500,-0.733748,-0.842270
07709,11.356974,-2.212135,6.851757,-2.061251,-0.247648,-0.834453
07710,10.279163,-4.215264,5.910684,-1.725779,0.071079,-0.836655
07711,9.377894,-5.854672,4.902001,-0.979679,0.101476,-0.771954
07712,8.732243,-6.378238,4.021140,-0.269541,-0.021775,-0.705238
07713,8.389864,-5.961830,3.439469,0.257223,-0.170392,-0.648381
07714,8.291706,-5.014743,2.889928,0.654186,-0.286176,-0.612814
07715,8.192495,-4.057063,2.465749,0.985935,-0.357974,-0.592273
07716,8.038698,-3.418916,2.011818,1.188308,-0.454867,-0.558835
07717,7.996053,-2.838126,1.618039,1.222724,-0.597523,-0.494241
07718,8.176288,-2.377063,1.537938,1.088393,-0.763794,-0.404758
07719,8.716111,-2.018068,1.675284,0.822719,-0.897515,-0.315785
07720,9.283396,-1.716825,1.853158,0.479583,-0.978250,-0.236484
07721,9.287364,-1.497531,1.650384,0.217832,-1.007144,-0.219024
07722,8.672208,-1.215469,1.220433,0.155766,-1.036313,-0.289766
07723,8.096352,-0.970936,1.121603,0.154506,-1.152280,-0.382941
07724,8.274271,-0.724579,1.965798,0.057049,-1.307387,-0.444151
07725,9.217510,-0.485489,3.551615,-0.213215,-1.311980,-0.445114
07726,10.213353,-0.574821,5.022979,-0.561272,-1.075682,-0.415003
07727,10.393735,-0.901631,5.424343,-0.698594,-0.704888,-0.404617
07728,9.977421,-1.640423,4.689055,-0.530388,-0.466217,-0.421562
07729,9.761985,-2.345666,3.581953,-0.188505,-0.460547,-0.441391
07730,9.935344,-2.535054,3.120733,0.117372,-0.534807,-0.484563
07731,10.175867,-2.054964,3.223036,0.314465,-0.560307,-0.556956
07732,10.471527,-1.271289,3.463084,0.369228,-0.522701,-0.634828
07733,10.558284,-0.744287,3.711979,0.334044,-0.415113,-0.705137
07734,10.362140,-0.547968,3.742594,0.223898,-0.318320,-0.749785
07735,10.199712,-0.978546,3.288769,0.097015,-0.287057,-0.758578
07736,10.008368,-1.621776,2.467061,0.026870,-0.309449,-0.750926
07737,9.691398,-2.146407,1.550176,0.029772,-0.388566,-0.738798
07738,9.413614,-2.369646,0.655574,0.097513,-0.508081,-0.734718
07739,9.097879,-2.142280,-0.034806,0.235152,-0.648081,-0.744438
07740,8.831258,-1.660857,-0.227639,0.353570,-0.796898,-0.770347
07741,8.659096,-0.886376,0.059630,0.407739,-0.958058,-0.791892
07742,8.987940,-0.088105,0.852954,0.317200,-1.082772,-0.801808
07743,9.521667,0.665064,1.691549,0.120081,-1.104395,-0.793396
07744,9.977096,1.151303,2.100316,-0.145536,-1.055254,-0.775107
07745,10.196695,1.378475,1.781230,-0.411143,-1.027754,-0.766394
07746,10.290637,1.439794,1.397382,-0.664784,-1.040610,-0.777319
07747,10.293166,1.270392,0.862205,-1.004721,-1.121950,-0.815419
07748,10.469515,0.887533,0.530868,-1.300836,-1.179821,-0.848338
07749,10.623529,0.475745,0.865999,-1.587311,-1.117413,-0.851518
07750,10.501943,-0.043985,1.145797,-1.848648,-0.989530,-0.813411
07751,10.153187,-0.551495,1.027159,-1.986340,-0.919246,-0.763004
07752,10.052010,-0.951755,0.997532,-1.979058,-0.882468,-0.735996
07753,10.055206,-1.478924,1.099427,-1.909446,-0.836842,-0.699676
07754,10.425849,-2.300951,1.657680,-1.678134,-0.749972,-0.643308
07755,10.723172,-2.906640,2.620172,-1.339256,-0.563906,-0.558203
07756,10.864533,-3.296368,3.096415,-0.974185,-0.367223,-0.459585
07757,10.987816,-2.905856,3.089971,-0.607978,-0.164975,-0.376397
07758,10.793203,-2.226784,2.561825,-0.370295,0.043622,-0.319859
07759,10.365995,-1.728398,1.771244,-0.278709,0.200538,-0.269581
07760,10.019742,-1.246484,1.262043,-0.223904,0.288901,-0.223614
07761,9.965929,-0.971576,1.157969,-0.183243,0.368764,-0.179161
07762,9.828906,-0.791881,1.285607,-0.114498,0.441316,-0.148380
07763,9.786408,-0.523390,1.121465,-0.038002,0.508699,-0.136500
07764,9.790886,-0.357090,0.824920,0.080838,0.546003,-0.126511
07765,9.756744,-0.055714,0.463294,0.180109,0.545183,-0.130084
07766,9.773089,0.130322,0.088734,0.210655,0.525509,-0.136556
07767,9.604338,0.170143,-0.348836,0.206941,0.474537,-0.140767
07768,9.275190,0.033533,-0.952560,0.233335,0.350433,-0.141290
07769,9.116765,0.167636,-1.285022,0.293286,0.150232,-0.143302
07770,9.522457,0.816082,-0.701079,0.289270,-0.020982,-0.155629
07771,10.050486,1.109488,0.370548,0.113415,-0.062600,-0.157853
07772,10.559914,0.978464,1.345671,-0.088794,-0.011491,-0.147946
07773,10.551205,0.730144,1.447937,-0.276225,0.112148,-0.126839
07774,9.856487,0.696593,0.679986,-0.405737,0.133229,-0.127880
07775,9.241755,0.983797,-0.449510,-0.502318,0.006102,-0.188583
07776,9.368983,1.016659,-0.638634,-0.479786,-0.197263,-0.262991
07777,9.968725,0.640004,0.203593,-0.527023,-0.235110,-0.244825
07778,10.069971,-0.349546,0.924794,-0.630984,-0.140698,-0.133830
07779,9.601407,-1.356944,0.870968,-0.651171,-0.075545,0.003422
07780,9.047127,-1.491754,0.544939,-0.441400,-0.150843,0.072359
07781,8.889426,-0.477711,0.373853,-0.168807,-0.260789,0.035578
07782,9.074603,1.263303,0.693496,0.028617,-0.316371,-0.082336
07783,9.562596,2.670518,1.278399,-0.049451,-0.264613,-0.235921
07784,10.256951,2.688952,1.746017,-0.388859,-0.129703,-0.350822
07785,10.817185,1.158846,1.653739,-0.832905,0.043188,-0.329658
07786,10.525795,-1.389483,0.813087,-1.059505,0.140121,-0.164820
07787,9.798537,-3.445785,-0.017304,-0.868555,0.026594,0.058945
07788,9.471215,-3.480505,-0.088814,-0.418505,-0.160039,0.233700
07789,9.371712,-2.042649,0.241069,-0.101099,-0.268549,0.320609
07790,9.783497,-0.580085,0.770694,0.083745,-0.272134,0.342028
07791,10.228637,-0.203305,1.011694,0.162442,-0.160582,0.345185
07792,10.098658,-0.569649,0.923170,0.219880,-0.067564,0.336913
07793,9.868740,-0.654236,0.847587,0.321947,-0.073316,0.304185
07794,9.778543,-0.391822,0.919969,0.476472,-0.087696,0.249640
07795,9.710410,0.094525,0.865997,0.600517,-0.068249,0.189807
07796,9.776237,0.662792,0.662824,0.635135,-0.032342,0.139078
07797,9.864890,0.881198,0.644554,0.580703,-0.011477,0.102436
07798,10.085495,0.935789,0.831395,0.471480,-0.000272,0.082102
07799,10.224470,0.893996,0.918849,0.320409,0.032082,0.062424
07800,10.249553,0.680100,0.848454,0.195002,0.073212,0.062776
07801,10.099298,0.356312,0.740688,0.140533,0.081984,0.068024
07802,9.997925,0.280026,0.768140,0.129176,0.075738,0.077942
07803,10.027136,0.292292,0.843874,0.129482,0.074094,0.086837
07804,9.962505,0.259110,0.886661,0.127019,0.092900,0.095819
07805,9.826265,0.068178,0.737293,0.143113,0.105366,0.100639
07806,9.790618,-0.118467,0.726480,0.174187,0.098288,0.096809
07807,9.801470,-0.369154,0.671128,0.180141,0.101809,0.098373
07808,9.791242,-0.640605,0.770895,0.209272,0.107434,0.110485
07809,9.781701,-0.972817,0.558379,0.246884,0.103951,0.143622
07810,9.691419,-1.010483,0.459554,0.341306,0.105338,0.175036
07811,9.672801,-0.781880,0.337058,0.430477,0.084194,0.200466
07812,9.709965,-0.472547,0.266418,0.496158,0.049975,0.218287
07813,9.768296,-0.122003,0.255521,0.512505,0.022725,0.225501
07814,9.844736,0.122205,0.404266,0.479590,0.004212,0.229765
07815,9.842463,0.136727,0.472746,0.425270,-0.001924,0.219104
07816,9.879175,0.112482,0.519273,0.396010,-0.000503,0.212945
07817,9.825179,0.138130,0.615037,0.380947,-0.015115,0.206059
07818,9.848055,0.169686,0.701356,0.348557,-0.020512,0.190783
07819,9.884298,0.234397,0.780309,0.332311,-0.014273,0.171311
07820,9.912158,0.279496,0.914579,0.317466,-0.004583,0.150364
07821,10.005220,0.222557,0.888537,0.251437,0.005044,0.127361
07822,9.935286,-0.070691,0.627630,0.205551,0.035482,0.121109
07823,9.833734,-0.268346,0.552761,0.233667,0.021061,0.122630
07824,9.830958,-0.283635,0.530994,0.260365,0.006966,0.118694
07825,9.781215,-0.278647,0.583645,0.266863,-0.007630,0.115077
07826,9.869222,-0.217142,0.635340,0.271399,-0.007250,0.110233
07827,9.855201,-0.214043,0.584131,0.267179,-0.002262,0.113292
07828,9.839006,-0.259801,0.568482,0.262694,-0.004669,0.120381
07829,9.823188,-0.220672,0.584179,0.256990,-0.015051,0.127219
07830,9.836654,-0.200891,0.574830,0.234580,-0.022871,0.123945
07831,9.863876,-0.150478,0.556910,0.209792,-0.020921,0.123222
07832,9.773345,-0.151735,0.511725,0.201313,-0.028449,0.118989
07833,9.778183,-0.066780,0.436565,0.193280,-0.041474,0.114183
07834,9.756720,0.000758,0.466867,0.162074,-0.058529,0.111459
07835,9.839824,0.089677,0.530372,0.122887,-0.066451,0.103996
07836,9.870412,0.062665,0.650684,0.069432,-0.061951,0.091911
07837,9.800383,-0.017417,0.694204,0.017764,-0.049125,0.082189
07838,9.784263,-0.102651,0.734460,-0.008663,-0.041136,0.066720
07839,9.747933,-0.147379,0.743634,-0.013647,-0.030750,0.058283
07840,9.748071,-0.152557,0.740777,-0.029165,-0.027208,0.044695
07841,9.785758,-0.198629,0.718622,-0.030793,-0.022267,0.031051
07842,9.811053,-0.187721,0.736418,-0.023511,-0.009240,0.015929
07843,9.796203,-0.138540,0.751003,-0.023049,-0.007328,0.001339
07844,9.826640,-0.072087,0.757501,-0.036306,0.000229,-0.009499
07845,9.716973,-0.018110,0.556575,-0.076008,0.010493,-0.012037
07846,9.519308,0.051258,0.336627,-0.122317,-0.000822,-0.008602
07847,9.422601,0.173923,0.192307,-0.181862,-0.038694,-0.003760
07848,9.580303,0.225768,0.284181,-0.259721,-0.077758,0.000275
07849,9.832623,0.105487,0.552116,-0.340617,-0.074614,0.001415
07850,10.025392,-0.230658,0.797288,-0.415978,-0.045220,0.012833
07851,10.095762,-0.502065,0.942182,-0.443182,0.000387,0.022512
07852,10.089679,-0.771030,0.971000,-0.411762,0.035189,0.027885
07853,10.125666,-0.941552,0.851123,-0.342001,0.054924,0.034160
07854,10.162238,-0.945760,0.775214,-0.249092,0.073485,0.042301
07855,10.183890,-0.899843,0.718997,-0.166896,0.092001,0.046909
