// Start Time: Unknown
// Update Rate: 100.0Hz
// Filter Profile: human (46.1)
// Firmware Version: 4.3.5
PacketCounter,Acc_X,Acc_Y,Acc_Z,Gyr_X,Gyr_Y,Gyr_Z
58895,9.669066,-2.171870,0.858173,-0.009551,0.012343,-0.043059
58896,9.622827,-2.229276,0.834827,-0.013621,0.012946,-0.038964
58897,9.628994,-2.245018,0.849565,-0.005051,0.009876,-0.037985
58898,9.599318,-2.304612,0.774116,0.015247,0.005825,-0.033560
58899,9.599992,-2.301462,0.775121,0.039266,0.002048,-0.027661
58900,9.605290,-2.258253,0.787646,0.053886,-0.004274,-0.023291
58901,9.615173,-2.174949,0.811828,0.065453,-0.000674,-0.018618
58902,9.668922,-2.134300,0.759846,0.055596,-0.001884,-0.016869
58903,9.636289,-2.100490,0.818076,0.048107,0.001703,-0.016279
58904,9.636541,-2.098895,0.819201,0.031966,0.004198,-0.010028
58905,9.642235,-2.089147,0.787419,0.017673,0.009145,-0.007505
58906,9.594664,-2.090021,0.762092,0.001205,0.013012,-0.008149
58907,9.621388,-2.070127,0.736771,-0.002971,0.014089,-0.006340
58908,9.638651,-2.159145,0.735369,-0.010977,0.015345,-0.008304
58909,9.643351,-2.117984,0.748349,0.006312,0.017076,-0.007132
58910,9.611310,-2.117003,0.762562,0.008013,0.011662,-0.010074
58911,9.638114,-2.096798,0.737205,0.007035,0.010666,-0.009358
58912,9.638375,-2.067852,0.691658,0.007445,0.013464,-0.009096
58913,9.670458,-2.094977,0.727046,0.009257,0.007598,-0.009735
58914,9.638459,-2.094028,0.740557,0.008388,0.006150,-0.006717
58915,9.606657,-2.065048,0.706808,0.003742,0.000731,-0.011017
58916,9.564490,-2.113219,0.741209,0.013919,0.000559,-0.005881
58917,9.539094,-2.135607,0.676185,0.005064,-0.012088,-0.005272
58918,9.551114,-2.205573,0.658519,0.011113,-0.015333,-0.001873
58919,9.541064,-2.254458,0.678633,0.012358,-0.019396,-0.001532
58920,9.552962,-2.325061,0.660553,0.021777,-0.021467,0.008920
58921,9.515282,-2.306574,0.657880,0.041502,-0.023716,0.014307
58922,9.583020,-2.235728,0.686899,0.045894,-0.025713,0.017087
58923,9.613132,-2.145952,0.714626,0.032798,-0.020670,0.023496
58924,9.654866,-2.155050,0.772442,0.008405,-0.024290,0.026309
58925,9.634799,-2.288018,0.769056,-0.010250,-0.021944,0.034999
58926,9.672219,-2.399062,0.817409,-0.013009,-0.021683,0.045289
58927,9.634442,-2.444191,0.815930,-0.010200,-0.031189,0.052858
58928,9.612063,-2.488195,0.853236,-0.007132,-0.033296,0.061922
58929,9.558386,-2.508586,0.765006,0.011194,-0.039401,0.067714
58930,9.572666,-2.485477,0.753729,0.014711,-0.042881,0.073482
58931,9.539532,-2.524778,0.718545,0.020590,-0.042056,0.090534
58932,9.564310,-2.486750,0.640293,0.005921,-0.061174,0.097712
58933,9.562137,-2.469177,0.587280,-0.008321,-0.065508,0.118046
58934,9.560578,-2.489311,0.397567,-0.034043,-0.073903,0.136011
58935,9.547552,-2.588303,0.275664,-0.053827,-0.068531,0.159007
58936,9.484520,-2.623388,0.307253,-0.068561,-0.067515,0.186026
58937,9.490170,-2.653474,0.279602,-0.104235,-0.064786,0.216231
58938,9.490131,-3.036419,-0.021887,-0.116373,-0.064265,0.242955
58939,9.583447,-4.175330,0.093685,0.009608,-0.051329,0.308844
58940,9.446733,-5.089676,-0.064636,0.298753,-0.052128,0.337700
58941,9.285889,-5.100918,-0.262874,0.677541,-0.084520,0.350277
58942,9.283252,-4.420954,-0.484974,1.038848,-0.160148,0.351045
58943,9.249151,-3.412952,0.073141,1.314877,-0.268688,0.313187
58944,9.670242,-2.201909,1.424412,1.327873,-0.438752,0.298997
58945,10.436366,-1.685541,2.219540,1.103777,-0.513821,0.301143
58946,10.525023,-2.182793,2.545287,0.869574,-0.519164,0.328190
58947,10.233022,-3.049231,2.275860,0.776284,-0.483579,0.375849
58948,9.718413,-3.401376,1.788613,0.832624,-0.406620,0.405572
58949,9.529608,-3.009986,1.366597,0.884010,-0.329773,0.412457
58950,9.385162,-2.274086,0.885002,0.766922,-0.211278,0.440553
58951,9.077198,-2.084195,-0.020659,0.526852,-0.126960,0.457782
58952,8.902318,-2.659785,-0.470103,0.324620,-0.045849,0.489300
58953,8.877399,-2.888709,-0.138363,0.222148,0.041724,0.520660
58954,8.968459,-2.790344,0.805658,0.101095,0.135979,0.535467
58955,9.202833,-2.592932,1.753035,-0.120624,0.241939,0.553450
58956,9.001655,-2.371013,1.572466,-0.343990,0.289556,0.536708
58957,8.934526,-2.808399,1.418679,-0.539012,0.260195,0.494546
58958,9.100935,-3.749009,1.740997,-0.602109,0.170262,0.474559
58959,9.327508,-4.709654,1.507034,-0.406957,0.047025,0.467185
58960,9.274372,-5.680264,0.821230,0.066298,-0.078418,0.474151
58961,9.207073,-5.770017,0.358859,0.732180,-0.191715,0.449980
58962,9.321972,-4.822321,-0.047613,1.282435,-0.287246,0.422463
58963,9.883698,-4.160888,0.128344,1.539448,-0.326901,0.449427
58964,10.226658,-3.952754,0.838480,1.529274,-0.267586,0.520169
58965,9.964271,-3.310259,0.795190,1.295323,-0.175177,0.585486
58966,9.599540,-2.395248,-0.167608,0.929405,-0.094396,0.628537
58967,9.367883,-2.179603,-0.567403,0.518834,-0.004972,0.658741
58968,9.149851,-2.619707,0.055500,0.195476,0.107027,0.676159
58969,8.853158,-2.865075,1.035112,-0.019867,0.235377,0.659980
58970,8.536306,-2.959878,1.640508,-0.226835,0.336958,0.629159
58971,8.311348,-3.392077,1.588204,-0.387912,0.367018,0.571653
58972,8.381197,-4.335215,1.396630,-0.417476,0.309777,0.495161
58973,8.325709,-5.445135,0.743453,-0.195538,0.194486,0.419064
58974,8.231825,-6.181133,0.377563,0.264467,0.039004,0.349661
58975,8.474373,-6.196748,0.520068,0.799492,-0.110085,0.300576
58976,8.896080,-5.278755,0.094429,1.224680,-0.226135,0.265748
58977,9.419908,-4.413163,-0.087762,1.426371,-0.290754,0.293550
58978,9.726501,-4.243730,0.613395,1.388933,-0.281482,0.383894
58979,9.479747,-3.980032,0.209523,1.215830,-0.279718,0.432477
58980,9.180977,-3.631775,-0.945863,1.074713,-0.277970,0.484276
58981,9.060657,-3.673588,-0.441347,0.934959,-0.237843,0.535235
58982,9.062927,-3.524952,1.037451,0.773948,-0.141575,0.562370
58983,8.925638,-3.068043,1.808459,0.520806,-0.012040,0.576832
58984,8.702176,-3.079918,2.333990,0.183257,0.099150,0.571350
58985,8.481709,-3.826096,1.850966,-0.120212,0.149492,0.565759
58986,8.353794,-4.802112,1.276896,-0.258866,0.158547,0.544816
58987,8.367832,-5.477924,1.073903,-0.247387,0.127045,0.530198
58988,8.331876,-5.691602,1.250854,-0.119040,0.082338,0.505559
58989,8.455326,-5.720749,1.415807,0.089164,0.019551,0.485016
58990,8.708974,-5.926913,1.351837,0.335226,-0.026467,0.475458
58991,8.699168,-5.785614,0.550286,0.573153,-0.072924,0.491345
58992,8.701007,-5.742048,0.196913,0.763545,-0.131285,0.530794
58993,8.878988,-5.755428,0.695519,0.870961,-0.171957,0.586763
58994,8.901125,-5.354013,0.465845,0.876812,-0.177045,0.627143
58995,8.707553,-5.042099,-0.112161,0.835942,-0.198300,0.676820
58996,8.729630,-4.925150,0.150469,0.754011,-0.164684,0.749070
58997,8.688341,-4.262072,0.823919,0.585778,-0.099498,0.805362
58998,8.716469,-3.896770,2.152454,0.236956,0.018419,0.853428
58999,8.590451,-4.206802,3.133315,-0.176907,0.145558,0.867032
59000,8.216925,-4.757307,2.643036,-0.498399,0.198007,0.853212
59001,7.902886,-5.137600,1.954939,-0.759253,0.212464,0.865732
59002,7.832615,-5.233754,1.504792,-0.974232,0.200052,0.873667
59003,8.113018,-5.485677,1.224414,-1.131505,0.183004,0.898248
59004,8.403603,-5.863381,1.344042,-1.229558,0.190192,0.917098
59005,8.824355,-6.583683,2.240821,-1.243544,0.211971,0.928271
59006,8.800721,-7.301559,2.056097,-1.049734,0.207433,0.919899
59007,8.379405,-8.192460,1.427772,-0.587093,0.125585,0.904022
59008,7.594911,-8.053797,-0.391113,0.020193,0.004492,0.851987
59009,7.475468,-7.627083,-0.520625,0.554734,-0.171429,0.838722
59010,7.746219,-7.097213,0.114361,0.868502,-0.274577,0.861780
59011,7.960660,-5.937543,-0.796552,0.994521,-0.357884,0.866973
59012,8.320152,-5.385306,-0.314275,0.942870,-0.299622,0.925112
59013,8.293342,-5.139790,0.932585,0.824410,-0.164095,0.952914
59014,8.316933,-4.421774,2.023239,0.579841,-0.003867,0.971251
59015,7.930499,-3.748840,2.741022,0.128194,0.186550,0.971654
59016,7.373484,-3.976747,2.580506,-0.382682,0.324348,0.919666
59017,6.807468,-4.921241,1.659896,-0.702949,0.330516,0.825908
59018,6.424899,-6.001828,0.628501,-0.712446,0.224886,0.705652
59019,6.640692,-7.188688,0.615271,-0.469850,0.086516,0.600537
59020,6.843315,-8.520227,0.674420,0.095193,-0.079476,0.494914
59021,7.310171,-9.286099,0.620572,0.897699,-0.227691,0.407497
59022,7.685813,-8.471553,0.609220,1.614338,-0.297321,0.360902
59023,8.024171,-6.900595,0.208200,1.972393,-0.356174,0.377510
59024,8.348972,-5.379616,0.509242,1.926509,-0.355696,0.447616
59025,8.429011,-4.116644,0.609541,1.569301,-0.295082,0.507246
59026,8.351514,-3.185378,1.008003,1.027291,-0.199223,0.568090
59027,8.164567,-3.245465,1.833273,0.412937,-0.029595,0.622863
59028,7.760435,-3.984093,3.079116,-0.180583,0.144645,0.642054
59029,6.941437,-4.643875,3.142034,-0.597954,0.257932,0.611092
59030,6.257259,-5.244341,2.240347,-0.826593,0.261453,0.523411
59031,5.901477,-5.957143,1.237319,-0.850074,0.224150,0.426552
59032,6.298426,-6.794202,0.877981,-0.708498,0.171002,0.336732
59033,6.924850,-6.699408,1.416000,-0.528265,0.140619,0.259497
59034,7.409454,-5.769185,1.903482,-0.488433,0.154839,0.222669
59035,7.765734,-5.331823,2.061750,-0.658121,0.194796,0.238705
59036,7.957483,-5.106022,1.872387,-0.936579,0.236449,0.275706
59037,8.187064,-4.533297,1.748060,-1.262731,0.297247,0.288074
59038,7.986474,-4.279636,0.830886,-1.634497,0.276442,0.343348
59039,7.523048,-4.539525,-0.419863,-1.927410,0.218782,0.374741
59040,7.343171,-5.718783,-1.441077,-1.983197,0.160171,0.402634
59041,7.312902,-7.822223,-1.029194,-1.682420,0.140902,0.426730
59042,7.151296,-9.182314,-0.215705,-1.080032,0.174779,0.437728
59043,6.500653,-9.178789,0.239279,-0.369254,0.204952,0.404155
59044,6.169302,-8.613772,0.505502,0.228910,0.199711,0.322734
59045,5.931402,-7.487757,1.153581,0.569411,0.158393,0.236809
59046,5.689540,-6.161852,1.356361,0.607104,0.088634,0.143480
59047,5.561606,-5.438467,1.224078,0.423358,0.005582,0.060583
59048,5.489909,-5.931590,0.518739,0.248148,-0.040107,-0.048484
59049,5.474677,-7.280998,0.380848,0.352275,-0.067569,-0.175308
59050,5.451233,-8.390943,0.414067,0.749451,-0.084401,-0.292751
59051,5.678870,-8.828302,0.360054,1.344759,-0.091400,-0.403317
59052,6.024230,-8.427412,0.495593,1.903858,-0.095170,-0.472075
59053,6.416297,-7.270270,1.097044,2.224338,-0.076687,-0.505638
59054,6.560600,-5.648049,1.645552,2.145894,-0.049942,-0.483074
59055,6.559727,-4.719448,1.665323,1.729235,-0.045122,-0.459838
59056,6.586168,-5.186777,1.494705,1.302551,-0.066589,-0.449538
59057,6.664777,-6.362161,1.245488,1.096400,-0.080701,-0.456592
59058,6.669622,-7.229058,0.863581,1.184201,-0.128759,-0.476241
59059,6.838497,-7.242337,0.871085,1.453648,-0.185826,-0.491835
59060,7.308701,-6.578973,1.191853,1.688120,-0.212793,-0.502093
59061,7.775380,-5.866838,1.492815,1.781197,-0.196489,-0.485648
59062,8.103970,-5.456091,1.612707,1.771042,-0.182137,-0.463260
59063,8.258243,-5.204368,1.680205,1.684107,-0.169673,-0.429231
59064,8.406450,-5.130733,1.746115,1.573711,-0.177789,-0.395808
59065,8.790087,-5.232404,2.051252,1.486769,-0.160636,-0.371828
59066,9.322773,-5.265388,2.522918,1.418063,-0.127885,-0.332618
59067,9.917145,-5.253571,2.883918,1.358712,-0.071706,-0.267119
59068,10.066138,-5.245344,3.408740,1.279319,0.013303,-0.205306
59069,9.986997,-4.823662,3.888435,1.126700,0.019905,-0.142819
59070,10.136381,-4.029931,4.562759,0.815657,0.043237,-0.043577
59071,9.863981,-4.179317,4.963483,0.294425,0.025796,0.131351
59072,9.511573,-5.506534,2.641438,0.209175,-0.102013,0.161547
59073,9.525231,-6.580764,2.615865,0.390386,-0.090203,0.297758
59074,9.122805,-6.569396,2.931166,0.748933,-0.156522,0.367234
59075,9.642195,-6.214413,3.856234,0.925638,-0.117113,0.515290
59076,9.801055,-6.241186,4.142581,1.008612,-0.065807,0.632941
59077,9.652170,-6.219780,4.262148,1.016657,-0.016180,0.780377
59078,9.339374,-6.183115,4.427233,0.938468,0.016648,0.933912
59079,9.269664,-6.233292,4.535922,0.771935,0.019057,1.062167
59080,9.111958,-6.769393,4.228174,0.663172,0.012267,1.133947
59081,8.871566,-7.501652,4.211281,0.712389,-0.012519,1.161288
59082,8.721818,-8.074290,4.573081,0.882165,-0.024695,1.174120
59083,8.705534,-8.236956,4.940237,1.061436,0.013259,1.195691
59084,8.601590,-8.070341,5.162363,1.179970,0.073153,1.210214
59085,8.535829,-7.639989,5.610194,1.133989,0.139997,1.259938
59086,8.687340,-7.254720,6.068096,0.925160,0.247001,1.312271
59087,9.000900,-7.191956,6.704026,0.568124,0.365618,1.385790
59088,9.276131,-7.283128,7.209198,0.133613,0.518142,1.482042
59089,9.484052,-7.146067,7.723957,-0.344252,0.709087,1.572263
59090,9.132767,-6.231831,6.755455,-0.886401,0.898888,1.617830
59091,8.089126,-5.006566,3.601228,-1.313761,0.936759,1.628121
59092,7.063390,-5.637634,1.136538,-1.558316,0.916759,1.635722
59093,6.562211,-8.403064,0.710612,-1.423906,0.924477,1.702074
59094,6.574844,-11.134030,1.733511,-0.947860,0.985127,1.825381
59095,6.482674,-11.881698,3.609966,-0.402391,1.025241,1.878904
59096,6.360015,-10.062985,5.822045,-0.147898,1.076113,1.941189
59097,5.589262,-8.554126,6.110513,-0.209841,1.074327,1.994720
59098,4.726676,-8.761333,5.576621,-0.263263,1.015175,1.994234
59099,4.147475,-10.482780,4.680321,-0.163473,0.850288,2.036539
59100,4.193497,-12.144320,3.699673,0.200211,0.646353,2.115962
59101,4.348193,-12.509417,3.225673,0.721713,0.443591,2.194285
59102,4.543787,-11.193022,3.066591,1.148023,0.288204,2.229593
59103,4.274899,-8.750849,2.353951,1.324587,0.139728,2.175223
59104,4.709752,-7.256859,1.905615,1.222662,0.042934,2.147920
59105,5.218532,-8.058728,2.153428,0.952922,0.113175,2.246355
59106,5.220511,-9.987117,3.188866,0.772720,0.245240,2.371387
59107,4.901100,-11.466103,4.578433,0.837331,0.428879,2.429064
59108,4.116023,-11.488193,5.592901,1.076017,0.624678,2.484092
59109,3.466867,-10.360885,6.168356,1.245740,0.808223,2.491606
59110,2.937036,-9.585040,6.191107,1.210794,0.935708,2.515738
59111,2.448979,-9.477784,5.816493,1.113021,1.022782,2.559376
59112,1.999745,-9.702273,5.329776,1.020672,1.023688,2.607914
59113,1.717380,-9.602355,5.051265,0.951933,0.972864,2.647183
59114,1.575829,-9.225852,5.005694,0.870392,0.899385,2.697912
59115,1.384125,-9.227192,4.762471,0.821313,0.814636,2.724630
59116,1.254774,-9.924847,4.469100,0.890343,0.714018,2.750233
59117,1.213905,-10.871703,4.220656,1.093738,0.641849,2.791877
59118,1.055015,-11.112210,4.391718,1.409253,0.587798,2.828545
59119,0.843722,-10.356174,5.000480,1.699168,0.578917,2.832756
59120,0.520838,-8.940948,5.639664,1.797336,0.614688,2.833123
59121,0.416110,-7.831182,6.138301,1.651060,0.660117,2.847497
59122,0.245557,-7.421864,6.452662,1.381909,0.730499,2.869756
59123,0.074392,-7.283726,6.528663,1.139357,0.794051,2.858078
59124,-0.137210,-7.634704,6.451232,0.998710,0.849893,2.858033
59125,-0.472425,-7.754791,6.218353,0.980487,0.905708,2.847776
59126,-0.925161,-7.352052,6.140673,1.008038,0.940598,2.841967
59127,-1.511545,-7.072260,6.179687,0.966192,0.958059,2.832767
59128,-2.106187,-7.024463,6.100533,0.863992,0.956653,2.841477
59129,-2.521343,-7.059845,6.096277,0.761155,0.949638,2.841998
59130,-2.717156,-7.361576,6.220091,0.709968,0.940092,2.847634
59131,-2.787003,-7.850246,5.913847,0.819594,0.932423,2.845659
59132,-2.859986,-7.852524,5.406081,1.040263,0.899982,2.847690
59133,-3.176678,-7.373471,5.044278,1.284085,0.863121,2.857952
59134,-3.587045,-6.477149,4.888276,1.444447,0.805624,2.862944
59135,-4.112678,-5.391056,4.956291,1.529459,0.750543,2.825681
59136,-4.244343,-4.713992,5.218178,1.446501,0.677490,2.796910
59137,-4.141021,-4.567873,5.387193,1.315685,0.634588,2.792278
59138,-4.326688,-4.598999,5.288728,1.224964,0.567019,2.782685
59139,-4.576862,-4.418185,4.887684,1.206419,0.510675,2.758848
59140,-4.946150,-4.140748,4.325020,1.220346,0.452050,2.714967
59141,-5.216873,-3.725408,3.970030,1.224936,0.371923,2.657422
59142,-5.097589,-3.658860,4.200429,1.194131,0.309240,2.607718
59143,-5.123810,-3.769525,4.796953,1.229174,0.294851,2.556206
59144,-5.258091,-3.563945,5.711996,1.295197,0.315296,2.495742
59145,-5.465733,-3.271617,6.339964,1.360654,0.367274,2.450901
59146,-5.622967,-3.144993,6.472159,1.442210,0.419102,2.422633
59147,-5.804187,-3.281554,6.244271,1.595260,0.473200,2.396123
59148,-5.900798,-3.152389,5.935994,1.795446,0.499673,2.343901
59149,-5.759377,-2.682818,5.657281,1.973268,0.492462,2.263729
59150,-5.488530,-1.782486,5.721719,2.056274,0.485334,2.188812
59151,-5.588959,-0.548177,6.109459,1.908424,0.500721,2.118222
59152,-6.032753,0.883644,5.685036,1.553865,0.429192,2.058165
59153,-6.155829,1.457823,4.377255,1.135782,0.291911,1.966631
59154,-5.838320,0.771522,3.394461,0.839666,0.215861,1.895971
59155,-5.740156,-0.394798,3.624577,0.841940,0.179974,1.817676
59156,-5.678453,-0.999309,4.627272,1.020004,0.151640,1.732126
59157,-5.689747,-0.990154,6.237218,1.268504,0.201710,1.658884
59158,-5.824706,-0.669072,7.073340,1.433732,0.272600,1.603760
59159,-5.746096,-0.206156,7.080820,1.465505,0.350135,1.529991
59160,-5.772909,0.131758,6.481820,1.396830,0.386694,1.474694
59161,-5.780281,0.071685,5.689873,1.338839,0.393642,1.451939
59162,-5.898670,-0.031892,5.663430,1.369929,0.412114,1.435180
59163,-6.262377,0.661190,5.854537,1.398709,0.382821,1.401385
59164,-6.641910,2.236245,5.731143,1.311423,0.283685,1.304182
59165,-6.598877,3.652691,5.056877,0.988748,0.153421,1.200074
59166,-6.379081,3.689673,4.225230,0.488644,0.027070,1.178533
59167,-6.181751,2.236852,3.669176,0.211628,-0.058939,1.117550
59168,-5.836568,0.316374,4.008775,0.345489,-0.117996,1.082152
59169,-5.528727,-0.984947,5.345074,0.776200,-0.096717,1.046116
59170,-5.688701,-1.408722,6.294863,1.333351,-0.020217,1.036709
59171,-5.860310,-0.539239,6.755976,1.869836,0.061657,1.004923
59172,-5.858470,1.229492,6.670773,2.109589,0.135888,0.970296
59173,-5.819081,2.936653,6.466388,2.045892,0.184022,0.938157
59174,-5.880815,4.149680,6.754307,1.752440,0.220710,0.895401
59175,-6.175377,4.571831,7.113401,1.319844,0.250767,0.897986
59176,-6.474195,4.503895,7.197341,0.893045,0.274665,0.885921
59177,-6.516179,4.230118,7.227570,0.512888,0.278072,0.854034
59178,-6.593089,3.569422,6.435816,0.252367,0.260103,0.832618
59179,-6.940154,2.810454,5.083828,0.169226,0.206069,0.807568
59180,-7.351924,2.652274,3.594794,0.228931,0.033186,0.761920
59181,-6.910748,2.508127,2.771531,0.420605,-0.150343,0.747198
59182,-6.189905,1.836043,3.677162,0.725334,-0.229028,0.744172
59183,-5.814404,1.622631,5.350135,1.126198,-0.234702,0.728745
59184,-5.773965,2.243405,6.793130,1.476769,-0.155999,0.696607
59185,-5.812051,3.605888,7.563363,1.557920,-0.036084,0.664764
59186,-5.930163,4.864140,7.629100,1.357956,0.079618,0.616125
59187,-6.081527,5.069559,7.017273,1.021479,0.154714,0.599561
59188,-6.444177,4.943373,6.128299,0.776610,0.196443,0.580464
59189,-6.769211,5.158280,5.535831,0.570912,0.173156,0.563282
59190,-7.020432,5.101138,5.093986,0.395334,0.119577,0.559449
59191,-7.167264,4.596785,5.081145,0.252724,0.036015,0.538079
59192,-6.958221,3.964507,5.273386,0.171284,-0.048127,0.505371
59193,-6.749724,4.170519,4.815537,0.101884,-0.157964,0.455476
59194,-6.546702,4.958875,4.005648,-0.012305,-0.300036,0.408269
59195,-6.055160,4.641607,3.963812,-0.122780,-0.391190,0.384489
59196,-5.531947,3.283673,4.361369,-0.034935,-0.434899,0.372104
59197,-5.158334,2.064304,5.343861,0.309734,-0.406063,0.349199
59198,-4.989672,2.168946,6.320327,0.746537,-0.326360,0.310397
59199,-4.954795,3.344990,7.000118,1.009799,-0.199882,0.264460
59200,-4.987898,5.023228,7.161618,0.957016,-0.075502,0.207586
59201,-5.074430,6.278889,6.410549,0.602948,0.015258,0.130455
59202,-5.318970,7.116358,5.682279,0.113719,0.060430,0.066773
59203,-5.698598,7.033838,5.216489,-0.451753,0.031438,0.057754
59204,-5.933370,6.228663,4.658704,-0.929230,-0.006806,0.008009
59205,-5.920650,5.141881,4.479895,-1.237233,-0.096741,-0.065018
59206,-5.600988,4.220410,4.342965,-1.391841,-0.218764,-0.126903
59207,-5.688927,4.207865,3.666415,-1.435061,-0.359622,-0.196306
59208,-5.480768,4.305886,3.195156,-1.448036,-0.550502,-0.256095
59209,-5.021237,3.910707,3.379315,-1.449501,-0.683449,-0.304932
59210,-4.509997,3.315096,4.256724,-1.361784,-0.764799,-0.357135
59211,-3.874563,2.788343,5.629295,-1.199100,-0.758085,-0.414563
59212,-3.575548,2.835351,6.815821,-1.097133,-0.646203,-0.480856
59213,-3.399149,3.250272,7.266095,-1.131644,-0.480963,-0.558219
59214,-3.491029,3.876827,6.842758,-1.266027,-0.312296,-0.648907
59215,-3.953816,4.422124,5.794947,-1.484209,-0.166897,-0.743228
59216,-4.805476,4.053547,3.985520,-1.715877,-0.102943,-0.841362
59217,-5.523319,2.982304,2.333008,-1.881616,-0.144589,-0.937907
59218,-5.905777,1.733065,2.214006,-1.954047,-0.249872,-1.037224
59219,-5.547522,0.918075,3.294959,-1.995434,-0.392112,-1.152941
59220,-4.612375,0.693763,4.978459,-2.064719,-0.504069,-1.219401
59221,-3.875493,0.776660,6.143553,-2.233952,-0.569069,-1.239501
59222,-3.785822,1.371173,6.569718,-2.483687,-0.606196,-1.214275
59223,-4.986877,2.533094,6.127975,-2.846070,-0.685021,-1.206321
59224,-5.862528,2.999173,5.250094,-3.208715,-0.831743,-1.230736
59225,-5.535877,1.365650,5.348736,-3.392412,-0.876607,-1.256229
59226,-4.938997,-1.088892,6.744410,-3.249527,-0.839686,-1.245056
59227,-4.327322,-2.854648,8.237870,-2.795032,-0.684846,-1.220116
59228,-4.473750,-3.227847,8.963198,-2.204566,-0.418938,-1.237273
59229,-4.964769,-2.317402,9.202388,-1.691362,-0.138362,-1.268486
59230,-5.621808,-1.255399,8.670022,-1.344806,0.073998,-1.332547
59231,-5.857790,-0.622555,7.960599,-1.130723,0.198800,-1.407458
59232,-6.205692,0.285175,7.483284,-1.046055,0.228274,-1.492387
59233,-6.504655,1.358848,7.681248,-1.178316,0.151734,-1.575823
59234,-6.428770,1.709541,8.137609,-1.553239,0.033770,-1.647019
59235,-6.070703,0.489924,8.446826,-1.977791,-0.064388,-1.657949
59236,-5.599341,-2.002821,8.659069,-2.194103,-0.083590,-1.630994
59237,-5.277573,-3.868091,8.460403,-2.106285,-0.051754,-1.604902
59238,-5.372208,-3.492651,7.070264,-1.900570,-0.081081,-1.628921
59239,-5.343514,-2.586869,6.198182,-1.792496,-0.154981,-1.657598
59240,-5.171500,-2.752004,6.626814,-1.769900,-0.228621,-1.671609
59241,-4.878844,-3.676066,7.903071,-1.719899,-0.284610,-1.649330
59242,-4.644165,-4.590139,9.267336,-1.598929,-0.235751,-1.596573
59243,-4.775273,-4.875893,9.907105,-1.378900,-0.102262,-1.557731
59244,-5.066691,-4.629144,9.780074,-1.146068,0.057305,-1.530588
59245,-5.326583,-3.807038,9.345504,-0.991326,0.214591,-1.552976
59246,-5.444286,-3.060204,8.776139,-1.023578,0.321713,-1.622144
59247,-5.172577,-2.688946,8.542475,-1.280642,0.409712,-1.692556
59248,-5.072529,-2.942320,8.254857,-1.599680,0.460743,-1.762715
59249,-5.181922,-4.771354,8.174536,-1.765392,0.451675,-1.803572
59250,-5.589456,-6.982039,8.274706,-1.649878,0.461387,-1.722809
59251,-5.944290,-7.944502,7.407531,-1.329689,0.386090,-1.670531
59252,-6.237552,-6.707101,7.100936,-0.986889,0.308964,-1.608623
59253,-6.474358,-5.338251,6.294390,-0.849357,0.104040,-1.603242
59254,-5.984252,-4.294315,5.549046,-0.770673,-0.032792,-1.654553
59255,-5.306006,-4.089135,5.207349,-0.752373,-0.170634,-1.676873
59256,-4.307591,-4.830494,6.190119,-0.780081,-0.174365,-1.673183
59257,-3.918979,-5.638442,7.057456,-0.783499,-0.101519,-1.676203
59258,-3.463459,-5.732728,7.863885,-0.775485,0.025807,-1.696740
59259,-3.547401,-5.740674,7.688499,-0.816242,0.159189,-1.728148
59260,-3.517087,-6.474938,6.556001,-0.874562,0.203906,-1.717239
59261,-3.741416,-6.979099,5.309637,-0.876048,0.177364,-1.690856
59262,-3.983829,-6.798292,4.822072,-0.815751,0.040533,-1.695238
59263,-4.143890,-6.747687,4.985409,-0.759635,-0.131747,-1.690212
59264,-4.081322,-7.026886,5.594551,-0.664926,-0.279912,-1.671797
59265,-3.847668,-7.140663,6.151994,-0.532352,-0.370345,-1.653391
59266,-3.583880,-6.434587,6.422308,-0.497851,-0.418754,-1.623663
59267,-3.152405,-5.276260,6.684438,-0.634751,-0.418619,-1.608926
59268,-2.915002,-4.782223,6.568577,-0.913295,-0.388795,-1.620086
59269,-2.462555,-5.341808,6.194014,-1.163247,-0.345218,-1.622992
59270,-2.074640,-6.701067,6.119729,-1.249206,-0.211916,-1.591449
59271,-2.234171,-8.276020,6.086176,-1.141793,-0.074346,-1.536994
59272,-2.639308,-9.182485,6.018916,-0.833730,0.071520,-1.505704
59273,-2.953879,-9.063256,5.955728,-0.416833,0.206782,-1.524910
59274,-3.122427,-8.108263,5.790564,-0.093568,0.293538,-1.549465
59275,-3.117709,-6.699887,5.776311,-0.044501,0.314162,-1.586062
59276,-2.849379,-5.402776,6.006226,-0.346189,0.262419,-1.612524
59277,-2.396368,-5.252014,6.001252,-0.876750,0.195689,-1.651829
59278,-1.937247,-7.214317,5.604765,-1.303000,0.095368,-1.645796
59279,-1.821151,-10.039601,4.944938,-1.320903,0.005590,-1.586471
59280,-2.211168,-12.017043,4.190105,-0.911979,-0.098656,-1.513904
59281,-2.434212,-11.022572,3.607543,-0.269699,-0.246190,-1.556049
59282,-2.079242,-8.567756,3.952096,-0.004505,-0.428213,-1.531926
59283,-1.686019,-6.881758,3.799173,-0.148681,-0.601937,-1.548807
59284,-0.893659,-6.897394,4.660272,-0.447353,-0.645890,-1.535586
59285,-0.897669,-7.897926,5.908679,-0.633155,-0.581828,-1.525594
59286,-0.859524,-8.619300,6.510876,-0.640086,-0.493103,-1.509287
59287,-0.704458,-8.656706,7.427424,-0.569318,-0.294795,-1.486940
59288,-0.906439,-8.907686,7.331445,-0.432008,-0.083047,-1.470463
59289,-1.281794,-9.054508,6.735073,-0.255511,0.077930,-1.457297
59290,-1.217893,-8.293053,6.331043,-0.184414,0.129367,-1.462247
59291,-0.752352,-7.488768,5.956615,-0.283125,0.102996,-1.481613
59292,-0.410129,-7.867264,5.999322,-0.503475,0.054926,-1.467610
59293,-0.256072,-9.677495,5.781608,-0.663856,0.004764,-1.401914
59294,-0.191230,-11.192594,5.067866,-0.533781,-0.110008,-1.315611
59295,-0.070743,-10.297800,4.585045,-0.288350,-0.250035,-1.272615
59296,0.023900,-8.414219,4.430601,-0.231268,-0.366184,-1.256018
59297,0.051857,-7.748338,4.093020,-0.343713,-0.485807,-1.245732
59298,0.085617,-7.788794,3.226747,-0.402113,-0.580323,-1.258227
59299,0.385225,-8.206128,3.773274,-0.385944,-0.599826,-1.250296
59300,0.968228,-8.689276,4.855509,-0.283112,-0.501487,-1.250657
59301,1.002781,-8.913800,5.344092,-0.095313,-0.350107,-1.258394
59302,0.750070,-8.308911,6.155510,0.051329,-0.135564,-1.265806
59303,0.530661,-7.380499,6.322311,-0.016153,0.049502,-1.272929
59304,0.730686,-6.777059,6.095299,-0.318824,0.180448,-1.266897
59305,1.077514,-6.740013,5.887389,-0.727745,0.244963,-1.281644
59306,1.207622,-7.659757,5.473612,-1.010711,0.253811,-1.305231
59307,1.137181,-9.842067,4.588935,-0.960190,0.195681,-1.285771
59308,0.789285,-12.099055,3.541839,-0.462416,0.102909,-1.233514
59309,0.835582,-12.411402,3.426502,0.255532,-0.040546,-1.221219
59310,1.260770,-10.381512,3.812975,0.752507,-0.169503,-1.237005
59311,1.649500,-7.885321,4.432138,0.769330,-0.281790,-1.255454
59312,1.962788,-6.205387,4.721350,0.376867,-0.354468,-1.265825
59313,2.337309,-5.833695,4.896807,-0.152187,-0.351058,-1.261854
59314,2.698268,-7.071843,4.938909,-0.572449,-0.262608,-1.243068
59315,2.855680,-8.560548,4.829679,-0.697502,-0.127722,-1.229677
59316,2.800759,-9.205681,5.096570,-0.573321,0.043563,-1.241083
59317,2.468811,-9.224127,5.010526,-0.392408,0.216922,-1.269388
59318,2.110355,-8.879509,5.304903,-0.294505,0.300121,-1.292643
59319,2.144514,-8.665510,5.106264,-0.295740,0.281747,-1.304210
59320,2.349432,-8.456775,4.707871,-0.319134,0.190254,-1.297140
59321,2.608681,-8.403043,4.697124,-0.405294,0.081238,-1.252609
59322,2.824359,-8.905738,4.740541,-0.476920,-0.014473,-1.212212
59323,3.058942,-9.194846,4.630776,-0.488346,-0.123525,-1.173983
59324,3.336435,-8.901405,4.089758,-0.459168,-0.224949,-1.156577
59325,3.666033,-8.468254,3.358973,-0.447789,-0.333073,-1.159189
59326,4.219947,-8.135583,3.090263,-0.456256,-0.407752,-1.141471
59327,4.844962,-8.257957,3.805744,-0.459375,-0.365516,-1.099520
59328,5.066987,-8.226716,4.330051,-0.426683,-0.251377,-1.072915
59329,4.769073,-7.784433,4.782642,-0.378662,-0.099269,-1.068473
59330,4.181369,-7.075669,5.169479,-0.382022,0.073606,-1.090669
59331,3.581067,-6.754259,5.173587,-0.458162,0.208043,-1.148093
59332,3.393822,-7.032824,4.758910,-0.590820,0.241762,-1.205738
59333,3.639821,-7.644403,3.982307,-0.688112,0.194162,-1.244223
59334,3.959154,-7.790734,4.071118,-0.704215,0.048921,-1.311715
59335,4.487396,-7.775806,4.323705,-0.705204,-0.050582,-1.356321
59336,4.710584,-7.704625,4.507803,-0.663592,-0.105790,-1.403058
59337,5.097089,-7.583962,4.625683,-0.706220,-0.119589,-1.414411
59338,5.491295,-7.543632,4.359530,-0.802312,-0.101127,-1.413831
59339,6.260772,-8.202955,3.819106,-0.816447,-0.058321,-1.372630
59340,6.760253,-9.573734,3.288994,-0.641896,0.041538,-1.292665
59341,6.718247,-10.749401,3.317890,-0.257229,0.115245,-1.169991
59342,6.385273,-10.482276,3.582126,0.129764,0.165310,-1.057770
59343,5.807092,-8.933554,3.956117,0.296910,0.191065,-0.963069
59344,5.378171,-7.399211,3.834708,0.147200,0.178259,-0.891462
59345,5.182667,-6.490787,3.530763,-0.202071,0.156659,-0.863747
59346,5.154062,-6.298299,3.223134,-0.606154,0.096792,-0.840912
59347,5.359952,-6.814696,3.141931,-0.891059,0.052866,-0.844619
59348,5.668256,-8.139851,2.607707,-0.935269,0.004343,-0.853334
59349,5.956419,-9.994467,2.136399,-0.624626,-0.040788,-0.842354
59350,6.309195,-10.998812,2.210086,-0.038135,-0.078658,-0.815190
59351,6.509273,-9.886241,2.211991,0.551068,-0.104076,-0.793591
59352,6.314944,-7.620010,2.032880,0.834127,-0.142061,-0.768147
59353,6.288031,-6.213099,2.147277,0.763005,-0.181044,-0.724876
59354,6.515099,-5.804197,2.512173,0.514195,-0.197000,-0.705146
59355,6.701012,-5.892877,2.716167,0.235954,-0.206672,-0.719550
59356,6.687988,-6.272812,2.973746,0.016864,-0.195573,-0.745469
59357,6.640136,-6.686743,3.169557,-0.134142,-0.182555,-0.764831
59358,6.604136,-6.281939,3.304575,-0.232880,-0.164264,-0.784542
59359,6.625361,-5.643891,3.253590,-0.405353,-0.162381,-0.777060
59360,6.729473,-5.619981,3.059392,-0.612298,-0.140570,-0.765594
59361,7.017399,-6.295025,2.861835,-0.681337,-0.077358,-0.789481
59362,6.849169,-7.497680,2.767071,-0.518853,-0.052520,-0.817235
59363,6.802285,-8.229750,2.621208,-0.107449,-0.051286,-0.877905
59364,7.002284,-8.259389,2.722112,0.380536,-0.087549,-0.922605
59365,7.178511,-7.213272,3.176012,0.657277,-0.124279,-0.928138
59366,6.922101,-5.794288,3.671071,0.590042,-0.177166,-0.905599
59367,6.947003,-5.176031,4.086241,0.276691,-0.230077,-0.879110
59368,7.221167,-5.820041,4.371174,-0.050245,-0.226733,-0.823444
59369,7.533503,-7.048460,4.547479,-0.232176,-0.191092,-0.742641
59370,7.757577,-7.994580,4.474690,-0.233437,-0.134094,-0.650540
59371,7.866226,-8.128455,4.545037,-0.150385,-0.076572,-0.569085
59372,7.986339,-7.712426,4.531630,-0.147331,-0.023964,-0.472916
59373,7.997757,-7.242862,4.367288,-0.225969,0.015492,-0.378316
59374,8.090138,-7.174196,4.250846,-0.282430,0.022440,-0.312096
59375,8.241145,-7.744079,3.429978,-0.144222,0.021502,-0.295069
59376,8.015833,-8.257322,2.797935,0.233131,-0.027393,-0.304503
59377,7.745122,-7.659076,2.658292,0.638712,-0.107311,-0.312903
59378,7.545237,-5.890348,2.705595,0.838367,-0.180912,-0.334393
59379,7.600276,-4.636411,3.106001,0.720273,-0.203327,-0.342164
59380,7.657212,-4.238964,3.419272,0.419599,-0.186345,-0.336254
59381,7.652455,-4.414682,3.589854,0.129589,-0.151947,-0.327551
59382,7.638592,-4.871916,3.574858,-0.096171,-0.106392,-0.309584
59383,7.712245,-5.263349,3.465311,-0.238811,-0.082314,-0.271188
59384,7.659464,-5.584121,3.201518,-0.312827,-0.081212,-0.222924
59385,7.323673,-5.731107,2.943366,-0.315129,-0.093738,-0.178190
59386,7.181133,-5.915104,2.998692,-0.247975,-0.109057,-0.153798
59387,7.243407,-6.033330,3.147452,-0.144900,-0.102942,-0.144018
59388,7.299180,-6.466991,2.989474,-0.019001,-0.116054,-0.132192
59389,7.506707,-6.588278,3.035028,0.148686,-0.096627,-0.132152
59390,7.487902,-6.511943,3.202340,0.285849,-0.066332,-0.131214
59391,7.204570,-6.747304,3.411203,0.383291,-0.055275,-0.110019
59392,6.962594,-6.646360,3.436602,0.530680,-0.042055,-0.121062
59393,7.015614,-6.057399,3.484859,0.576516,-0.052315,-0.139629
59394,7.151150,-5.380695,3.602308,0.529612,-0.056590,-0.192932
59395,7.615421,-5.176063,3.547570,0.450392,-0.051421,-0.290950
59396,7.763805,-5.037123,3.491353,0.348978,-0.059120,-0.351199
59397,7.787827,-4.754400,3.686063,0.202873,-0.054559,-0.412251
59398,8.124577,-4.536854,3.806975,-0.000211,-0.041294,-0.441465
59399,8.320394,-4.929443,3.533437,-0.183341,-0.025358,-0.429851
59400,8.615774,-5.656542,3.122344,-0.225708,-0.033407,-0.407043
59401,8.894988,-5.867097,2.877815,-0.098083,-0.046684,-0.360615
59402,9.213543,-5.528147,4.196981,-0.183014,-0.037543,-0.205724
59403,8.902986,-5.497424,3.990486,-0.389029,-0.014612,-0.069992
59404,8.747798,-6.162139,3.307793,-0.335392,-0.015277,-0.017584
59405,8.788522,-6.490544,3.047197,-0.089875,-0.044851,0.100311
59406,8.784540,-5.776863,3.100222,0.076064,-0.040907,0.205054
59407,9.038832,-5.554639,3.324526,0.118291,-0.034054,0.272623
59408,9.056057,-5.610176,3.293259,0.167565,-0.010794,0.336353
59409,9.189616,-5.216408,2.944584,0.281382,0.012860,0.303044
59410,9.413409,-4.063926,2.806017,0.328576,0.025000,0.206101
59411,9.622457,-2.561757,3.102774,0.159851,0.049673,0.151204
59412,9.639225,-1.407400,3.377795,-0.278351,0.074568,0.139437
59413,9.570721,-1.133735,2.885679,-0.843408,0.086129,0.141738
59414,8.814583,-1.848126,2.147630,-1.281117,0.031268,0.140240
59415,8.284390,-2.973030,1.671674,-1.465684,-0.099025,0.103213
59416,7.987471,-3.742770,1.431822,-1.330330,-0.245364,0.005981
59417,7.813936,-4.387348,1.323986,-0.973628,-0.381149,-0.137754
59418,8.034053,-4.947232,1.575034,-0.487925,-0.471605,-0.283809
59419,8.049785,-4.748894,1.832810,-0.028635,-0.499076,-0.409301
59420,8.066588,-3.966876,2.560773,0.209419,-0.557674,-0.505203
59421,8.385694,-3.570205,2.953572,0.176571,-0.535599,-0.542277
59422,8.658339,-4.084883,3.283605,-0.063643,-0.461755,-0.527324
59423,8.653064,-4.663638,3.910194,-0.324420,-0.380400,-0.492109
59424,8.450651,-4.923789,3.969397,-0.603358,-0.243444,-0.472739
59425,7.555675,-4.827059,2.612940,-0.880956,-0.096935,-0.482449
59426,6.398559,-4.973183,1.126947,-1.039952,-0.073088,-0.504345
59427,6.503257,-5.477713,1.229081,-1.209647,-0.052881,-0.503082
59428,6.723700,-6.184512,1.547847,-1.331372,0.021798,-0.454817
59429,7.011669,-6.991151,2.368152,-1.332687,0.064931,-0.450733
59430,7.266905,-7.847140,3.127664,-1.108810,0.133530,-0.488048
59431,7.387937,-7.764678,3.117606,-0.677264,0.116902,-0.550050
59432,7.908292,-6.652494,2.846642,-0.345400,0.040756,-0.577943
59433,8.325499,-5.451579,2.489341,-0.252354,-0.037328,-0.570810
59434,8.639563,-4.964437,2.363550,-0.324786,-0.115209,-0.564520
59435,8.932510,-5.218577,2.334992,-0.361554,-0.134314,-0.555199
59436,9.131055,-5.406284,2.398699,-0.334962,-0.122524,-0.532547
59437,9.133442,-4.890478,2.448542,-0.355704,-0.061128,-0.508833
59438,8.875775,-4.257924,2.047359,-0.447627,0.021292,-0.506989
59439,8.511752,-4.004595,1.691134,-0.563613,0.068586,-0.486049
59440,8.083303,-3.992396,1.851870,-0.687019,0.143631,-0.494347
59441,7.877966,-4.020927,1.879351,-0.829564,0.230867,-0.522413
59442,7.681577,-3.726297,1.834768,-0.965030,0.285396,-0.601210
59443,8.060612,-3.964469,2.209048,-1.120519,0.299240,-0.693001
59444,8.410990,-4.834288,1.897179,-1.178386,0.286047,-0.756015
59445,8.142608,-5.809424,0.842726,-1.013139,0.204830,-0.825756
59446,8.085672,-6.255858,0.350530,-0.712358,0.101259,-0.890635
59447,8.080280,-6.450656,0.389608,-0.409850,-0.026744,-0.899885
59448,8.582653,-6.329473,0.655450,-0.194408,-0.136052,-0.867405
59449,9.188160,-5.883628,0.930026,-0.121046,-0.134518,-0.770603
59450,9.317126,-5.371771,1.324552,-0.194536,-0.064072,-0.677441
59451,9.017744,-4.974922,1.176021,-0.338549,0.012018,-0.597844
59452,8.844336,-4.739493,1.032001,-0.534497,0.074538,-0.508809
59453,8.745986,-4.334480,0.904284,-0.809501,0.170910,-0.431938
59454,8.300938,-4.143769,0.391391,-1.107867,0.252526,-0.389154
59455,7.721950,-4.578870,0.591042,-1.345990,0.303332,-0.389920
59456,7.551832,-5.248239,1.603447,-1.440669,0.334215,-0.418423
59457,7.531392,-5.939885,1.975909,-1.320581,0.349348,-0.500601
59458,7.504936,-6.314799,1.538368,-1.019790,0.288627,-0.607008
59459,7.924757,-6.615434,1.182751,-0.660109,0.224836,-0.666688
59460,8.115818,-6.281227,0.490460,-0.279809,0.124019,-0.722175
59461,8.321924,-5.204445,0.398128,-0.044046,0.014034,-0.753994
59462,8.461441,-4.651240,0.382694,0.006378,-0.067413,-0.749067
59463,8.689169,-5.136268,0.555428,0.001803,-0.105456,-0.709582
59464,8.865374,-5.399061,1.175945,0.036078,-0.087065,-0.652630
59465,8.828915,-4.588219,1.550161,-0.008325,-0.029135,-0.603516
59466,8.707353,-3.638756,1.328920,-0.235155,0.052143,-0.561400
59467,8.640915,-3.142013,1.186929,-0.596076,0.126485,-0.520795
59468,8.452994,-3.011747,1.012760,-0.945566,0.209075,-0.517941
59469,8.164778,-2.958484,1.145581,-1.256806,0.221605,-0.533282
59470,8.410272,-3.218965,1.087578,-1.501386,0.207729,-0.565987
59471,8.916058,-4.480053,0.861142,-1.563458,0.153586,-0.609339
59472,9.027161,-6.054862,0.142018,-1.289439,0.084719,-0.630795
59473,9.027524,-6.958927,0.126240,-0.757934,-0.004798,-0.640737
59474,9.168521,-6.180250,0.325832,-0.180282,-0.082843,-0.663624
59475,9.456109,-4.558895,0.581462,0.156473,-0.159516,-0.656051
59476,9.627021,-3.645090,0.726206,0.177519,-0.182387,-0.605490
59477,9.609217,-3.317680,1.016904,0.029901,-0.157004,-0.530671
59478,9.347350,-2.826167,1.271775,-0.163782,-0.123689,-0.522736
59479,9.167402,-2.019844,1.135657,-0.405482,-0.083414,-0.545988
59480,9.312920,-1.805909,1.398246,-0.721481,-0.015019,-0.537368
59481,9.495230,-2.472793,1.637392,-1.042388,0.115349,-0.512577
59482,9.140743,-3.141699,1.256948,-1.232480,0.226526,-0.507599
59483,8.585797,-3.176659,1.340384,-1.327619,0.259823,-0.527344
59484,8.675175,-3.282484,1.527429,-1.370425,0.241844,-0.582325
59485,9.100604,-4.258520,1.066846,-1.292410,0.205846,-0.648742
59486,9.056890,-5.545183,0.380346,-0.952935,0.136135,-0.713977
59487,9.251590,-6.040770,0.035205,-0.422663,0.039589,-0.763952
