// Start Time: Unknown
// Update Rate: 100.0Hz
// Filter Profile: human (46.1)
// Firmware Version: 4.3.5
PacketCounter,Acc_X,Acc_Y,Acc_Z,Gyr_X,Gyr_Y,Gyr_Z
02238,9.381891,-0.785233,2.393285,0.107677,0.018524,0.032215
02239,9.300655,-0.798678,2.362398,0.063456,0.020030,0.034503
02240,9.309676,-0.775054,2.384834,0.010821,0.022627,0.040936
02241,9.306206,-0.853913,2.367130,-0.053683,0.030596,0.041260
02242,9.313253,-0.957152,2.403139,-0.098761,0.024076,0.043990
02243,9.374542,-1.102294,2.465323,-0.121462,0.025416,0.038087
02244,9.398561,-1.228894,2.520361,-0.137919,0.024237,0.041530
02245,9.412634,-1.381654,2.554749,-0.132962,0.025962,0.031973
02246,9.503677,-1.497098,2.622339,-0.111848,0.019276,0.020877
02247,9.547965,-1.618137,2.662577,-0.093884,0.015588,0.010679
02248,9.541018,-1.670863,2.553745,-0.066284,0.004713,0.004095
02249,9.565062,-1.741712,2.484976,-0.003630,-0.006840,-0.008352
02250,9.524813,-1.696342,2.478103,0.078013,-0.015259,-0.015452
02251,9.523651,-1.494557,2.519294,0.144227,-0.023327,-0.025866
02252,9.506449,-1.367738,2.519676,0.152597,-0.019490,-0.023710
02253,9.462202,-1.245119,2.479213,0.147013,-0.023103,-0.021935
02254,9.434234,-1.095617,2.424858,0.156720,-0.017576,-0.020234
02255,9.424263,-1.017153,2.513164,0.162836,-0.009134,-0.019113
02256,9.376525,-0.920241,2.507083,0.134265,-0.003241,-0.016939
02257,9.388573,-0.815675,2.460314,0.096478,0.008453,-0.012095
02258,9.364701,-0.791411,2.475590,0.062531,0.015539,-0.011509
02259,9.418716,-0.830491,2.504372,0.019108,0.012413,-0.007763
02260,9.442427,-0.850551,2.580344,-0.035657,0.019563,-0.007225
02261,9.436868,-1.000621,2.542415,-0.085612,0.027063,-0.006571
02262,9.458243,-1.146769,2.544742,-0.090610,0.024912,-0.012993
02263,9.448771,-1.222616,2.560034,-0.070422,0.023012,-0.020704
02264,9.456562,-1.319339,2.595685,-0.053265,0.022518,-0.027522
02265,9.460002,-1.341931,2.597401,-0.047105,0.026045,-0.032687
02266,9.434578,-1.220259,2.544655,-0.045833,0.024368,-0.039433
02267,9.451558,-1.017982,2.396094,-0.073830,0.012511,-0.045021
02268,9.407170,-0.949240,2.211402,-0.147099,-0.028357,-0.048940
02269,9.455564,-1.388379,2.038226,-0.348414,-0.137744,-0.028322
02270,9.698359,-1.848807,1.519392,-0.490253,-0.184060,-0.022540
02271,9.827435,-2.021927,0.904098,-0.223138,-0.033255,-0.073574
02272,9.439942,-1.928588,1.188007,0.310895,0.082080,-0.082198
02273,9.176678,-1.917511,1.989103,0.293441,-0.050637,-0.000639
02274,9.546807,-2.582175,2.892371,0.051464,-0.155348,0.107614
02275,10.222570,-3.135205,4.494468,0.254123,0.001456,0.197323
02276,10.063902,-2.763873,5.434364,0.609834,0.237178,0.241231
02277,9.190724,-1.646349,5.075179,0.745181,0.336969,0.221102
02278,8.745630,-0.375243,3.989784,0.637229,0.253591,0.124985
02279,9.011178,0.508929,2.520480,0.321227,0.124520,0.044123
02280,9.312173,0.579647,1.499444,0.006249,0.100638,0.033115
02281,9.256782,-0.180406,1.192989,-0.200080,0.086571,0.039962
02282,9.440692,-0.850049,1.300834,-0.306285,0.062132,0.058369
02283,9.798501,-1.173354,1.518216,-0.177472,0.133368,0.062107
02284,9.629495,-1.046961,2.068250,0.083933,0.252119,0.066309
02285,9.021114,-0.784958,2.569690,0.052872,0.231309,0.085779
02286,8.981981,-0.919050,2.997281,-0.309878,0.078514,0.129751
02287,9.436233,-1.546656,3.259836,-0.619858,0.022718,0.212203
02288,9.580775,-2.207817,3.538203,-0.608006,0.094621,0.273731
02289,9.334343,-2.528113,3.570090,-0.329888,0.146044,0.260334
02290,9.389166,-2.128000,3.588682,0.016591,0.159793,0.205581
02291,9.561699,-1.624267,3.766126,0.201567,0.186640,0.152181
02292,9.709314,-1.262663,3.830685,0.216801,0.197294,0.086909
02293,9.829008,-1.172247,3.705145,0.175298,0.188898,0.046628
02294,9.975188,-1.204381,3.139636,0.111189,0.187315,0.017549
02295,9.747459,-1.262625,2.437634,0.025863,0.216499,-0.001344
02296,9.382798,-1.290697,1.704049,-0.030528,0.211104,-0.010389
02297,9.204976,-1.218739,1.276337,-0.052645,0.182736,-0.004966
02298,9.093143,-0.914103,1.131858,-0.033401,0.180584,-0.010453
02299,9.192472,-0.529121,1.341728,-0.038181,0.238845,-0.019968
02300,9.131136,-0.408967,1.993901,-0.174253,0.306997,0.002904
02301,8.947596,-0.808643,2.445131,-0.532509,0.255068,0.056122
02302,9.145268,-1.399008,2.578048,-0.857004,0.171607,0.131428
02303,9.449278,-1.992028,2.830557,-0.928064,0.195708,0.217405
02304,9.400092,-2.343241,3.131381,-0.725205,0.255611,0.258377
02305,9.239718,-2.344340,3.768441,-0.422973,0.288501,0.263053
02306,9.272587,-2.276509,4.661077,-0.295596,0.294516,0.254793
02307,9.233619,-2.185621,5.253953,-0.330412,0.279307,0.234170
02308,9.274967,-2.096186,5.259939,-0.415471,0.284807,0.225562
02309,9.313734,-2.158486,4.594173,-0.493063,0.295443,0.233811
02310,9.235016,-2.344480,3.689531,-0.513973,0.285603,0.259839
02311,9.114802,-2.571068,2.636987,-0.549985,0.214750,0.275108
02312,9.066875,-2.726368,1.509136,-0.425375,0.129860,0.278916
02313,9.175203,-2.808923,0.912804,-0.030883,0.098835,0.275121
02314,9.265669,-2.612474,1.152084,0.440715,0.116051,0.262867
02315,9.379170,-1.928726,1.694421,0.673403,0.168218,0.227274
02316,9.346947,-1.299687,2.264243,0.646088,0.251362,0.230312
02317,9.154376,-1.007852,2.980573,0.385573,0.276817,0.271729
02318,9.016718,-1.182224,3.553277,-0.095464,0.224338,0.324131
02319,9.161131,-1.805775,3.739872,-0.503755,0.183795,0.379197
02320,9.288724,-2.516971,3.783122,-0.659357,0.221129,0.443189
02321,9.030441,-3.089919,3.721862,-0.644194,0.274004,0.487071
02322,8.765864,-3.366432,3.660607,-0.539342,0.274176,0.509048
02323,8.728401,-3.432063,3.701167,-0.418444,0.270135,0.531785
02324,8.759928,-3.565459,3.761383,-0.307072,0.284475,0.551196
02325,8.766178,-3.673885,3.839667,-0.167757,0.293506,0.562127
02326,8.845528,-3.551327,3.893236,-0.013250,0.317205,0.560447
02327,8.756000,-3.333312,3.907908,0.042676,0.343084,0.580280
02328,8.656514,-3.153873,3.734076,-0.012610,0.321485,0.602613
02329,8.651394,-3.132526,3.336147,-0.108827,0.284882,0.623373
02330,8.794400,-3.249913,2.825944,-0.160053,0.286187,0.626297
02331,8.919766,-3.440659,2.651865,-0.207056,0.341189,0.625025
02332,8.727692,-3.734613,2.440626,-0.275020,0.368521,0.645141
02333,8.631984,-4.152505,2.248137,-0.344354,0.337273,0.682351
02334,8.846161,-4.635889,2.244629,-0.312132,0.334445,0.746807
02335,8.924125,-5.210145,2.713131,-0.068789,0.408902,0.832716
02336,8.851550,-5.263871,3.802919,0.345692,0.511862,0.893603
02337,8.869441,-4.660725,5.165282,0.614315,0.642851,0.939600
02338,8.643410,-3.717088,6.212575,0.588964,0.760357,0.929327
02339,8.524680,-2.666695,6.777576,0.365876,0.811241,0.880019
02340,8.647067,-1.816620,7.077435,0.063003,0.816735,0.815678
02341,8.915345,-1.694270,7.548399,-0.333194,0.822378,0.794716
02342,8.968079,-2.515937,7.409810,-0.871305,0.817854,0.788523
02343,8.884867,-3.558794,6.323098,-1.243140,0.776085,0.807443
02344,8.620057,-4.389339,4.532716,-1.259686,0.702092,0.808985
02345,8.564022,-4.780040,2.438507,-0.767179,0.631118,0.761152
02346,8.666745,-4.714770,0.851049,0.125665,0.615675,0.671154
02347,8.695926,-4.133700,0.728605,0.940363,0.595598,0.581404
02348,8.660817,-3.557121,1.377923,1.242916,0.526373,0.511305
02349,8.878078,-3.306585,1.984348,1.177045,0.478103,0.505595
02350,9.084078,-3.231369,2.750949,1.109582,0.551999,0.554092
02351,8.972461,-3.187168,3.996262,1.185079,0.731531,0.615687
02352,8.738379,-2.873834,5.647716,1.276234,0.896948,0.644146
02353,8.651165,-2.159350,7.630371,1.216283,1.026910,0.640318
02354,8.406770,-1.299840,9.107024,0.623923,1.134920,0.662423
02355,7.905097,-1.127321,9.183343,-0.603893,1.151667,0.703235
02356,7.603559,-2.202633,7.602099,-1.652865,1.107620,0.735862
02357,7.521772,-3.679048,5.948121,-1.914418,1.053133,0.746649
02358,7.493227,-5.366853,4.865633,-1.384242,0.999610,0.714472
02359,7.618858,-6.233975,3.745602,-0.243224,0.954854,0.629083
02360,7.740223,-5.543836,3.482101,0.993402,0.930958,0.516230
02361,7.794796,-4.433166,4.286463,1.699455,0.911733,0.411130
02362,7.852805,-3.725831,5.077210,1.781008,0.867812,0.356536
02363,7.770405,-3.406199,5.558700,1.539703,0.834660,0.354705
02364,7.808221,-3.411178,6.047029,1.290753,0.837626,0.392028
02365,7.723460,-3.495222,6.299454,1.102348,0.864794,0.456173
02366,7.548884,-3.550698,6.617137,0.916077,0.931574,0.504251
02367,7.324269,-3.686964,6.933712,0.618093,0.999370,0.558252
02368,7.160200,-3.783531,6.709216,0.203510,1.029419,0.607758
02369,7.264958,-4.190496,6.318892,-0.146191,1.077103,0.657673
02370,7.427705,-4.959818,6.147891,-0.298983,1.147538,0.715851
02371,7.378893,-5.623563,6.357734,-0.240190,1.224349,0.754049
02372,7.076755,-5.676502,6.611132,-0.097473,1.341106,0.757445
02373,6.592721,-5.557683,6.820306,-0.172591,1.454629,0.800922
02374,5.902332,-5.811230,6.494772,-0.444956,1.507585,0.925472
02375,5.185085,-6.324785,5.731123,-0.585977,1.468916,1.063717
02376,4.459740,-6.653221,4.759425,-0.359065,1.348252,1.145205
02377,4.192199,-6.439112,4.343833,0.207852,1.159248,1.138394
02378,4.504849,-5.745623,4.692281,0.598589,0.961453,1.131033
02379,5.037528,-5.161780,4.567902,0.605579,0.793775,1.121578
02380,5.477676,-4.784336,4.381835,0.563123,0.732908,1.095897
02381,5.804945,-4.684707,4.798093,0.669207,0.763988,1.026247
02382,6.000280,-4.750330,6.152454,0.889420,0.911937,0.946880
02383,5.946924,-5.171642,8.708512,0.849675,1.107921,0.926455
02384,5.420099,-5.536652,9.641326,0.306324,1.158335,0.990741
02385,4.696960,-5.820520,8.584262,0.012358,1.082760,1.077804
02386,4.243827,-5.539160,7.457637,0.230552,0.934668,1.134440
02387,4.708353,-4.783522,7.145899,0.489532,0.830712,1.166000
02388,5.498007,-4.209713,7.295523,0.329183,0.857609,1.185812
02389,5.706318,-4.252966,6.935523,-0.023618,0.982105,1.212312
02390,4.950401,-4.768234,6.416131,-0.175750,1.056805,1.188275
02391,4.131126,-5.214102,5.972529,-0.091889,0.990356,1.118490
02392,3.758525,-5.325598,5.589587,0.116391,0.829073,1.021714
02393,3.635671,-4.879281,5.235306,0.274955,0.688821,0.916727
02394,3.535157,-4.468281,5.174297,0.360786,0.607806,0.841815
02395,3.538554,-4.337207,5.440294,0.342066,0.551527,0.827093
02396,3.459811,-4.402924,5.570210,0.284669,0.545338,0.815210
02397,3.354456,-4.398165,6.116540,0.328250,0.650131,0.803444
02398,3.197593,-4.304000,7.030676,0.378140,0.758147,0.787666
02399,3.171074,-3.993552,7.739863,0.260365,0.830896,0.792310
02400,3.145702,-3.826567,8.595549,-0.043339,0.920209,0.805556
02401,3.012595,-4.057921,8.958679,-0.545137,0.901151,0.823702
02402,3.040894,-4.748381,8.466982,-0.911970,0.837524,0.837441
02403,2.958200,-5.545944,8.082518,-1.056765,0.885289,0.858560
02404,2.440316,-6.181064,7.525715,-0.935627,0.900320,0.878698
02405,1.989753,-6.562771,7.178597,-0.609453,0.834547,0.852759
02406,2.104878,-6.563019,7.064394,-0.262736,0.739311,0.859884
02407,2.194171,-6.234624,6.966458,-0.035925,0.688189,0.869426
02408,2.354965,-5.911367,7.095145,0.068682,0.683783,0.864889
02409,2.509574,-5.538769,7.153619,0.109435,0.700804,0.873611
02410,2.337032,-5.255593,7.083545,0.039672,0.758000,0.834210
02411,2.166674,-5.048926,6.932150,-0.045098,0.796659,0.780701
02412,2.026033,-4.925530,6.808621,-0.089952,0.871903,0.720400
02413,1.661271,-4.824859,7.001221,-0.128690,0.938202,0.644264
02414,1.507538,-4.773555,7.296195,-0.229699,0.968546,0.600098
02415,1.209983,-4.926451,7.667893,-0.468653,0.961732,0.588100
02416,0.642323,-5.412319,7.249327,-0.776009,0.861927,0.565800
02417,0.346594,-6.167242,7.675481,-0.812703,0.758698,0.557495
02418,0.518688,-6.709800,7.832728,-0.685534,0.597303,0.572691
02419,0.867572,-6.955328,7.669601,-0.624179,0.511810,0.576882
02420,1.206641,-7.253559,7.403855,-0.545301,0.462904,0.621757
02421,1.047888,-7.345652,7.689859,-0.177182,0.454655,0.654020
02422,1.007648,-7.040093,8.699184,0.221676,0.474046,0.680745
02423,0.709254,-6.434768,9.075937,0.242883,0.570524,0.728528
02424,0.162064,-6.208348,9.090626,0.021737,0.592351,0.808454
02425,0.040478,-6.366027,8.352925,-0.144292,0.545111,0.897489
02426,-0.073210,-6.636876,7.219174,-0.138657,0.533852,0.924523
02427,-0.039751,-6.743525,6.483531,0.084651,0.513891,0.908247
02428,0.144715,-6.366766,6.396830,0.430785,0.465854,0.852961
02429,0.450095,-5.708493,6.728164,0.485489,0.429509,0.802743
02430,0.329857,-5.215068,6.335166,0.267727,0.404557,0.757162
02431,0.059386,-5.180254,6.212593,0.134329,0.375871,0.679618
02432,-0.146020,-5.265901,6.185718,0.047602,0.302529,0.597326
02433,-0.233550,-5.229911,6.195100,-0.013442,0.236109,0.508233
02434,-0.151397,-5.381876,6.321932,-0.090083,0.173560,0.429307
02435,-0.076321,-5.575947,6.387812,-0.159880,0.088010,0.378383
02436,-0.171043,-5.859440,7.172074,-0.162947,0.012078,0.331045
02437,0.115377,-6.164598,7.894979,-0.220497,-0.030264,0.313717
02438,-0.150857,-6.584572,7.813366,-0.310358,-0.061540,0.354682
02439,-0.438380,-7.043492,7.304891,-0.189212,-0.056266,0.433159
02440,-0.672904,-6.909737,6.981251,0.134834,-0.013467,0.449818
02441,-0.346688,-6.015554,6.906896,0.343087,-0.014823,0.432358
02442,0.116361,-4.987365,7.302179,0.345970,0.027149,0.421206
02443,0.044245,-4.280650,7.269295,0.101744,0.039418,0.368780
02444,0.467209,-4.149465,6.781649,-0.125081,0.004665,0.280964
02445,1.073262,-3.975334,6.542194,-0.178131,0.046332,0.170183
02446,1.205570,-3.790875,6.374295,-0.253751,0.123517,0.053814
02447,0.347626,-4.250709,6.641185,-0.431274,0.238024,-0.064948
02448,-0.595880,-5.405002,7.350969,-0.544246,0.189188,-0.146138
02449,-0.566123,-6.514158,7.381359,-0.470615,0.055046,-0.218333
02450,-0.550112,-7.004366,7.473513,-0.161305,-0.028910,-0.270904
02451,-0.766000,-7.177625,7.689745,0.033220,-0.104786,-0.315627
02452,-0.826043,-7.374976,7.927196,0.209581,-0.172974,-0.354877
02453,-0.849544,-7.212906,8.028685,0.427009,-0.255497,-0.359840
02454,-0.628488,-6.744592,8.050808,0.598260,-0.268068,-0.332936
02455,-0.491961,-6.316551,8.044638,0.681464,-0.279095,-0.301050
02456,0.058451,-5.680500,7.906850,0.721481,-0.228143,-0.270057
02457,0.434034,-5.111979,7.800963,0.668804,-0.144680,-0.255494
02458,0.723994,-4.746365,7.555523,0.526643,-0.069493,-0.281381
02459,1.157439,-4.512718,7.259295,0.426937,-0.008166,-0.347145
02460,1.168465,-4.129377,7.023382,0.359192,0.074673,-0.437443
02461,0.568957,-4.110469,7.085054,0.204561,0.130397,-0.533021
02462,-0.028543,-4.958629,7.414839,0.026849,0.169774,-0.628992
02463,-0.465651,-6.006065,8.044320,0.057389,0.202197,-0.702068
02464,-1.249099,-6.958595,8.499245,0.070627,0.122504,-0.732701
02465,-1.247849,-8.014791,8.554839,0.106912,-0.013996,-0.736837
02466,-1.284507,-8.670858,8.722641,0.462741,-0.152710,-0.702116
02467,-1.053003,-8.521695,9.127503,0.837714,-0.313518,-0.630757
02468,-0.301599,-8.337299,8.939807,0.948788,-0.397437,-0.514247
02469,-0.313348,-8.295004,8.337317,1.046405,-0.430509,-0.359746
02470,-0.623467,-8.033256,7.750531,1.165518,-0.484817,-0.252808
02471,-0.386578,-7.465801,7.617458,1.215233,-0.550354,-0.157712
02472,-0.281814,-6.632674,7.585058,1.268082,-0.620615,-0.077992
02473,0.291390,-5.683795,7.461533,1.318305,-0.619571,-0.013382
02474,0.291142,-4.451753,7.517264,1.376491,-0.574023,-0.009306
02475,1.015310,-2.659326,7.072545,1.271160,-0.541065,-0.093481
02476,2.199200,-0.899051,7.133897,0.954287,-0.275119,-0.163527
02477,2.107997,-0.307883,8.379817,0.267271,0.058641,-0.187253
02478,1.431823,-1.540365,8.926502,-0.486038,0.205436,-0.224731
02479,1.073238,-3.392556,8.628343,-0.750703,0.240246,-0.296916
02480,0.883437,-4.655250,8.516189,-0.621637,0.234915,-0.387347
02481,0.822079,-5.326518,8.523773,-0.363117,0.186674,-0.485701
02482,0.966136,-5.485219,8.629926,-0.068617,0.138209,-0.575616
02483,1.008631,-5.426030,8.819129,0.175634,0.150584,-0.671575
02484,0.973263,-5.445143,9.237339,0.318933,0.211153,-0.755352
02485,0.818661,-5.577650,9.421794,0.335571,0.250709,-0.814488
02486,0.540917,-5.748957,9.040391,0.365688,0.228724,-0.862677
02487,0.618539,-5.811399,9.206153,0.606652,0.238467,-0.909026
02488,0.784464,-5.669198,9.343960,0.775165,0.282491,-0.915201
02489,0.550979,-5.344843,8.811984,0.827969,0.311544,-0.937838
02490,0.432538,-5.197630,8.584320,0.916351,0.318675,-0.968933
02491,0.329745,-4.828924,8.120569,1.006362,0.269011,-1.011647
02492,0.408080,-4.361234,7.816019,1.070529,0.190385,-1.047422
02493,0.808876,-4.061564,7.470878,0.955179,0.088018,-1.046402
02494,1.093169,-3.808909,7.049288,0.867872,0.088569,-1.052858
02495,1.331978,-3.635864,8.010053,0.948794,0.150781,-1.063053
02496,1.333518,-3.628816,8.957529,0.748345,0.231486,-1.029155
02497,0.884378,-3.439962,8.708021,0.314226,0.249808,-1.020792
02498,0.559220,-3.333567,8.450384,0.024667,0.277739,-1.041213
02499,0.710451,-3.468894,8.156154,-0.144860,0.296403,-1.075062
02500,0.952499,-3.455045,7.736269,-0.251399,0.269398,-1.066353
02501,1.357484,-3.404754,7.217925,-0.352043,0.263358,-1.039317
02502,1.720715,-3.446755,6.801061,-0.467758,0.289232,-1.011627
02503,1.623720,-3.530385,6.587199,-0.507032,0.378062,-1.037919
02504,1.382055,-3.683516,6.990514,-0.491054,0.452717,-1.082967
02505,1.268463,-3.859669,8.047745,-0.574392,0.497039,-1.075037
02506,1.010078,-4.263810,8.998588,-0.794849,0.538640,-1.031609
02507,0.676713,-4.834390,9.884908,-0.977819,0.617739,-0.958374
02508,0.230053,-5.524476,10.649233,-1.131410,0.638320,-0.852915
02509,-0.216481,-5.792537,10.319544,-1.343215,0.473721,-0.783919
02510,0.246981,-6.313958,9.302576,-1.518635,0.272117,-0.710120
02511,1.132542,-7.129270,8.237213,-1.347518,0.201678,-0.637114
02512,1.685077,-7.771403,7.721775,-0.786718,0.305455,-0.604281
02513,1.740123,-7.896504,7.877002,-0.109989,0.470988,-0.598293
02514,1.443944,-7.254850,8.789577,0.370803,0.603177,-0.570930
02515,0.567777,-6.621613,10.011501,0.685581,0.581041,-0.529273
02516,-0.277517,-5.837271,10.921006,0.869481,0.376758,-0.554491
02517,-0.449710,-5.001706,10.836894,0.608436,0.152432,-0.563219
02518,-0.248507,-4.839243,10.065293,0.135056,-0.027582,-0.492776
02519,0.009678,-5.402152,8.942606,-0.162483,-0.185528,-0.385394
02520,0.744719,-5.944866,7.503453,-0.244415,-0.302611,-0.330806
02521,1.640469,-6.321293,6.427098,0.085191,-0.332581,-0.317104
02522,2.148262,-6.364781,6.500466,0.747299,-0.277669,-0.313824
02523,2.381107,-6.093553,7.601067,1.340086,-0.087790,-0.341367
02524,2.137113,-5.513348,8.672450,1.580108,0.157236,-0.339229
02525,1.560217,-4.843901,9.155866,1.404797,0.311625,-0.303533
02526,1.001591,-3.911399,8.813612,1.037061,0.424261,-0.302914
02527,0.402693,-2.594072,8.648583,0.831718,0.522726,-0.400265
02528,0.247194,-1.167515,9.802380,0.770156,0.455448,-0.535440
02529,0.692166,-0.261001,10.962405,0.167945,0.214269,-0.537258
02530,1.339426,-1.114091,10.275821,-1.228878,-0.072645,-0.317192
02531,1.909529,-3.583149,8.571794,-2.650086,-0.084879,-0.143084
02532,1.916236,-6.861014,6.698340,-2.979086,-0.016729,-0.023938
02533,1.488989,-9.296988,4.199780,-1.584584,-0.140584,-0.036146
02534,1.862478,-8.694869,4.443140,0.558415,-0.165128,-0.153933
02535,2.074789,-6.167985,6.674777,1.679303,-0.112743,-0.236750
02536,1.628355,-4.102484,7.961844,1.735527,-0.139626,-0.313692
02537,1.618861,-3.075102,8.627447,1.346052,-0.150534,-0.347185
02538,1.821307,-2.753758,9.194717,0.828498,-0.076396,-0.321161
02539,1.687834,-2.858101,9.694135,0.428249,0.046666,-0.260578
02540,1.381346,-2.869572,10.125618,0.164891,0.180288,-0.208614
02541,1.179234,-3.005076,10.700365,-0.115184,0.267701,-0.135187
02542,1.106507,-3.285665,10.952873,-0.580409,0.300932,-0.075461
02543,1.125612,-3.859265,10.463902,-0.982416,0.266057,-0.026604
02544,1.256351,-4.569043,9.648181,-1.189173,0.179155,-0.005291
02545,1.612389,-5.158719,8.541191,-1.201970,0.124979,-0.034950
02546,1.938396,-5.738389,7.691635,-0.822051,0.157983,-0.078027
02547,1.762615,-5.825086,7.464191,-0.071145,0.242706,-0.110745
02548,1.396532,-5.055040,7.939480,0.486167,0.269995,-0.206732
02549,1.185341,-4.065381,8.461408,0.696939,0.257979,-0.288828
02550,0.885223,-3.258809,8.863805,0.560054,0.181494,-0.322835
02551,1.039041,-2.733511,8.517102,0.042816,0.055913,-0.351097
02552,1.631010,-3.167261,8.222284,-0.430884,0.020344,-0.329487
02553,1.979978,-4.054328,8.162456,-0.493060,0.074707,-0.284514
02554,2.027052,-4.762470,8.413250,-0.259898,0.197291,-0.239578
02555,1.793971,-4.771620,8.904094,-0.021694,0.327946,-0.210104
02556,1.344942,-4.499631,9.544839,-0.052103,0.404696,-0.196943
02557,1.016975,-4.338017,9.798317,-0.285889,0.416142,-0.211209
02558,1.115601,-4.443461,9.575695,-0.499624,0.410462,-0.219650
02559,1.343539,-4.447552,9.287087,-0.519695,0.437678,-0.221768
02560,1.487167,-4.186917,9.080091,-0.409425,0.491014,-0.239279
02561,1.339529,-3.890319,8.935955,-0.304155,0.518564,-0.267343
02562,1.027744,-3.661005,8.688857,-0.268957,0.499031,-0.322375
02563,0.723880,-3.675792,8.509785,-0.378868,0.428957,-0.383075
02564,0.566321,-4.033880,8.032570,-0.717760,0.286798,-0.433775
02565,0.900523,-4.915381,7.474176,-0.979203,0.133770,-0.435138
02566,1.582771,-6.067579,7.230251,-0.748126,0.125666,-0.396686
02567,1.985881,-6.803680,7.657723,0.186992,0.342080,-0.341860
02568,1.700999,-6.056886,8.971006,1.030195,0.602427,-0.330483
02569,0.934359,-4.674393,9.713276,1.221614,0.720945,-0.345067
02570,0.559478,-3.549917,10.255310,0.923997,0.695008,-0.369344
02571,0.679305,-3.004821,10.491919,0.183970,0.610579,-0.370579
02572,0.823348,-3.344606,9.881568,-0.657114,0.496474,-0.382604
02573,0.998294,-4.192814,8.855836,-1.104161,0.424974,-0.384705
02574,1.060690,-5.021499,7.923460,-1.147138,0.364766,-0.371177
02575,1.161184,-5.817883,7.174810,-0.908470,0.319787,-0.347785
02576,1.171886,-6.203889,6.744010,-0.443869,0.340159,-0.329758
02577,1.027190,-6.024767,6.665093,0.114294,0.424836,-0.342375
02578,0.775356,-5.161274,6.901252,0.494618,0.481304,-0.387645
02579,0.552988,-4.374828,7.093884,0.616841,0.441560,-0.420263
02580,0.631671,-4.070601,7.490479,0.501625,0.295330,-0.404958
02581,0.984587,-4.167090,8.174217,0.309151,0.198628,-0.369621
02582,1.193667,-4.396294,8.793184,0.109805,0.257617,-0.345764
02583,1.020049,-4.522634,9.026169,-0.080720,0.342229,-0.333228
02584,0.711215,-4.595778,8.982551,-0.210952,0.371787,-0.322426
02585,0.479764,-4.673602,8.867725,-0.287056,0.342464,-0.299519
02586,0.546863,-4.754651,8.722064,-0.359108,0.275002,-0.288638
02587,0.796433,-4.913314,8.386531,-0.396035,0.221745,-0.287812
02588,1.132202,-5.036500,8.119311,-0.282228,0.227911,-0.288647
02589,1.238969,-5.012218,8.268022,0.014442,0.288511,-0.311288
02590,1.122682,-4.751220,8.888948,0.236213,0.337185,-0.330282
02591,0.895646,-4.548469,9.297260,0.231423,0.317275,-0.349919
02592,0.840842,-4.438064,9.352140,0.073974,0.290451,-0.354750
02593,0.612048,-4.290384,8.523063,-0.150331,0.266043,-0.357652
02594,0.580843,-3.812058,7.115211,-0.216895,0.233785,-0.407460
02595,0.947070,-2.830725,6.203171,-0.039615,0.311839,-0.534154
02596,0.835764,-2.079435,5.696569,0.006659,0.324307,-0.659745
02597,0.611684,-2.487210,6.379674,-0.512096,0.072609,-0.647987
02598,0.785717,-4.616341,8.215862,-1.178879,-0.192709,-0.555652
02599,1.055546,-7.263280,9.390768,-1.604796,-0.200140,-0.419179
02600,0.641991,-8.956213,8.673940,-1.151769,-0.041686,-0.304948
02601,0.104729,-8.650558,8.019865,-0.027090,0.196278,-0.272688
02602,-0.015329,-6.996455,8.780052,0.710646,0.365305,-0.260253
02603,0.284867,-5.551695,9.711808,0.768293,0.392096,-0.254973
02604,0.701675,-4.667123,10.007501,0.265169,0.277175,-0.269995
02605,0.769979,-4.558440,9.073152,-0.393287,0.101935,-0.313753
02606,0.916780,-5.194616,8.050149,-0.543027,-0.001001,-0.351940
02607,1.136505,-5.899257,7.823831,-0.203217,0.074887,-0.365600
02608,0.757997,-6.006945,7.864522,0.211320,0.135112,-0.357228
02609,0.584330,-5.483220,7.803166,0.340360,0.107784,-0.324641
02610,0.710445,-4.586405,6.898441,0.266707,0.085108,-0.312160
02611,0.973054,-3.671450,6.299522,0.339806,0.126212,-0.359776
02612,0.873443,-3.437606,6.665544,0.275057,0.058070,-0.377705
02613,0.862219,-4.273838,7.696518,-0.231248,-0.185378,-0.334000
02614,1.215979,-5.860428,8.655617,-0.617272,-0.288811,-0.261729
02615,1.138420,-6.967341,8.809015,-0.477626,-0.129858,-0.189774
02616,0.500156,-6.825387,8.799437,0.052306,0.056722,-0.143613
02617,0.321262,-5.817992,9.237802,0.247714,0.094583,-0.107747
02618,0.720289,-5.103480,9.281245,-0.112328,-0.001993,-0.080814
02619,1.152747,-5.478538,8.699816,-0.590257,-0.125413,-0.068416
02620,1.332763,-6.302100,7.892066,-0.629460,-0.202522,-0.061405
02621,1.371970,-6.734271,7.409888,-0.089609,-0.156771,-0.067092
02622,1.331712,-6.162001,7.999163,0.645343,0.016223,-0.085195
02623,0.863543,-5.089632,8.866037,0.962172,0.126823,-0.076475
02624,0.575979,-4.244719,9.413406,0.724063,0.061352,-0.037400
02625,0.619403,-3.910777,8.940414,-0.033344,-0.083258,0.010360
02626,0.967550,-4.187166,7.467530,-0.671996,-0.185524,0.008303
02627,1.244615,-4.659080,6.279366,-0.767399,-0.201571,-0.014579
02628,1.277284,-5.444542,6.007767,-0.538036,-0.266604,0.001735
02629,1.460685,-6.203496,6.754630,-0.117235,-0.285784,0.037693
02630,1.443248,-6.323003,8.028126,0.247892,-0.177579,0.077197
02631,0.855279,-5.952977,8.862642,0.414456,-0.075655,0.136999
02632,0.472134,-5.361696,9.416061,0.394454,-0.077314,0.191796
02633,0.621430,-4.679186,9.542895,0.192344,-0.110230,0.220885
02634,1.056077,-4.165729,9.357400,-0.136456,-0.126273,0.228182
02635,1.480410,-4.056545,9.044299,-0.424078,-0.135145,0.224293
02636,1.750963,-4.377271,8.834545,-0.541138,-0.135003,0.210033
02637,1.806027,-4.737578,8.823256,-0.567799,-0.118575,0.208432
02638,1.661597,-5.068817,8.793837,-0.510824,-0.077260,0.202210
02639,1.583887,-5.149836,8.988548,-0.390541,-0.007190,0.190119
02640,1.434765,-4.968982,9.182132,-0.347105,0.062373,0.180358
02641,1.260107,-4.741918,9.121339,-0.457118,0.108080,0.170269
02642,1.122413,-4.720278,8.773030,-0.610558,0.129533,0.165066
02643,0.960942,-4.899303,8.308239,-0.675774,0.121567,0.168395
02644,0.845770,-5.187502,7.869768,-0.691737,0.080811,0.179746
02645,0.646618,-5.512677,7.408842,-0.626653,-0.005495,0.194501
02646,0.390264,-6.223876,6.991955,-0.487358,-0.174114,0.207519
02647,0.315960,-7.349486,6.700300,-0.354587,-0.381443,0.227934
02648,0.567463,-8.630346,6.065914,-0.135783,-0.528888,0.248529
02649,0.758656,-9.436782,5.345325,0.414569,-0.541796,0.268802
02650,0.784992,-9.422728,5.807834,1.165149,-0.447888,0.309903
02651,0.868780,-8.626043,7.062157,1.565059,-0.349230,0.376697
02652,1.009340,-7.779600,7.792933,1.629013,-0.278455,0.452046
02653,1.121311,-6.703877,8.037698,1.673876,-0.191320,0.529254
02654,1.194455,-5.539524,8.244594,1.759361,-0.053793,0.579701
02655,1.231067,-4.237335,8.726347,1.804783,0.115394,0.579402
02656,1.270835,-2.904968,9.294225,1.634354,0.299046,0.516167
02657,1.167739,-1.640209,10.040133,1.343122,0.437276,0.395980
02658,0.783835,-0.606747,11.209637,1.046620,0.373518,0.257046
02659,0.601564,0.180996,12.033223,0.508964,0.170817,0.107280
02660,0.694982,-0.018092,11.589293,-0.545668,-0.047633,0.031105
02661,1.043871,-1.675778,10.401388,-1.658665,-0.252990,0.053249
02662,1.319635,-3.714273,8.600699,-2.295725,-0.261506,0.058369
02663,0.913150,-5.638297,5.998831,-2.216993,-0.326691,0.062807
02664,0.612306,-7.906254,3.717844,-1.152104,-0.531897,0.093726
02665,1.139267,-9.131879,3.069911,0.494266,-0.636283,0.151424
02666,1.585201,-8.611720,4.495989,1.605252,-0.632416,0.265785
02667,1.586459,-7.662070,6.189906,2.016184,-0.665112,0.374963
02668,1.398135,-6.595756,7.392147,2.071806,-0.685804,0.457943
02669,1.050250,-5.578790,8.210239,1.976268,-0.638855,0.506508
02670,0.779774,-4.569685,8.970297,1.771841,-0.557521,0.512587
02671,0.523358,-3.654767,9.653328,1.376164,-0.467545,0.494138
02672,0.478299,-2.931126,10.071177,0.769367,-0.370628,0.469654
02673,0.581885,-2.689792,10.149783,0.006741,-0.285041,0.463567
02674,0.747218,-3.037850,9.575515,-0.691811,-0.202929,0.462894
02675,0.909324,-3.719183,9.053561,-1.110781,-0.136457,0.464086
02676,1.049433,-4.256246,8.717156,-1.386015,-0.089056,0.470952
02677,1.255378,-4.559033,8.196144,-1.499506,-0.090779,0.505553
02678,1.110587,-4.818901,7.765676,-1.321442,-0.138825,0.502721
02679,0.743534,-4.953656,7.557654,-0.879417,-0.252105,0.430527
02680,0.575614,-5.239632,7.792818,-0.448197,-0.382859,0.339485
02681,0.854650,-5.616848,7.813045,-0.201552,-0.536535,0.311969
02682,1.419222,-5.923380,7.265784,0.019641,-0.703121,0.333053
02683,1.875545,-6.049138,6.884474,0.462842,-0.708954,0.329006
02684,1.987787,-5.514584,7.304512,1.034440,-0.666878,0.293278
02685,2.101294,-4.536643,8.139470,1.315103,-0.658939,0.265697
02686,2.224225,-3.711785,8.680913,1.175715,-0.646282,0.270862
02687,2.167521,-3.305176,8.776566,0.704577,-0.567312,0.306057
02688,1.818415,-3.594052,8.540596,0.191892,-0.433364,0.366843
02689,1.303569,-4.062113,8.288508,-0.054167,-0.369981,0.468562
02690,0.931655,-4.438406,8.323822,-0.138090,-0.430343,0.567430
02691,0.881131,-4.773772,8.317464,-0.203212,-0.521598,0.617458
02692,1.338336,-5.289099,8.442736,-0.265748,-0.584881,0.620605
02693,1.875997,-5.910261,8.403193,-0.337362,-0.550214,0.599717
02694,2.115914,-6.212489,8.326847,-0.174679,-0.454760,0.555975
02695,1.938826,-5.747012,8.936326,0.258143,-0.392021,0.489181
02696,1.631282,-4.934576,9.525992,0.391512,-0.366658,0.438405
02697,1.597197,-4.547850,9.352749,0.141161,-0.346143,0.415492
02698,1.658908,-4.619280,9.043233,-0.086151,-0.272772,0.424795
02699,1.539088,-4.635187,9.217210,-0.149469,-0.238919,0.436357
02700,1.547120,-4.547450,9.487501,-0.145337,-0.252892,0.424220
02701,1.849198,-4.684238,9.545100,-0.229160,-0.235034,0.439759
02702,1.909136,-4.898411,9.117085,-0.301821,-0.151588,0.448476
02703,1.755666,-4.864230,9.086581,-0.196019,-0.064058,0.457697
02704,1.383735,-4.656401,9.036014,-0.133069,-0.107513,0.478924
02705,1.323162,-4.552232,8.537442,-0.084718,-0.218694,0.464816
02706,1.623890,-4.261634,8.721147,0.090017,-0.241873,0.389801
02707,1.971752,-4.105124,9.063351,0.081770,-0.182320,0.336729
02708,1.997365,-4.335977,8.959479,-0.123674,-0.115104,0.310123
02709,1.905270,-4.716056,8.626921,-0.201734,-0.091493,0.313451
02710,1.857707,-4.934029,8.486814,-0.100030,-0.038010,0.316238
02711,1.896977,-4.832797,8.979696,0.066469,0.023121,0.333080
02712,1.769585,-4.617747,9.422922,0.011364,0.046714,0.367311
02713,1.777274,-4.661354,9.049976,-0.245865,0.028117,0.432862
02714,1.688269,-4.963421,8.259964,-0.442924,0.032059,0.494766
02715,1.486580,-5.300750,7.709636,-0.411235,0.045726,0.504900
02716,1.527114,-5.433981,7.700949,-0.206128,0.057451,0.481210
02717,1.526263,-5.231656,7.877624,-0.024599,0.061562,0.457861
02718,1.614730,-5.060785,7.967580,-0.011178,0.094383,0.459679
02719,1.373512,-4.971437,7.943538,-0.093476,0.129639,0.477041
02720,0.956206,-4.977693,7.605189,-0.156795,0.095221,0.481170
02721,0.888200,-4.907393,7.056376,-0.199933,0.055988,0.443556
02722,1.048263,-4.763498,6.538618,-0.219043,0.046310,0.395539
02723,1.100652,-4.644926,6.101768,-0.166402,0.049141,0.331787
02724,1.116087,-4.475067,6.196785,-0.068245,0.033567,0.263605
02725,1.052077,-4.100014,6.638171,-0.053126,0.088102,0.172484
02726,0.792097,-3.633762,7.775809,-0.144564,0.149316,0.143930
02727,0.269825,-3.660205,8.929435,-0.644097,0.079842,0.192266
02728,0.186758,-4.218856,8.597481,-1.377888,-0.071723,0.290662
02729,0.529524,-5.327892,8.129050,-1.762913,-0.124861,0.423264
02730,1.039680,-6.791718,8.216976,-1.717333,-0.076355,0.545222
02731,0.884612,-7.616246,7.921579,-1.481197,-0.008160,0.635357
02732,0.265279,-7.908222,7.734636,-1.143176,0.015902,0.706771
02733,-0.106963,-7.992122,7.931855,-0.861444,-0.076912,0.773074
02734,-0.330002,-7.855843,7.630911,-0.723565,-0.227547,0.839749
02735,0.024554,-7.657616,7.477750,-0.563739,-0.343200,0.914366
02736,0.322618,-7.543053,7.352792,-0.423393,-0.419837,1.007312
02737,0.350169,-7.207418,7.310871,-0.225124,-0.448827,1.053383
02738,0.730655,-6.798064,7.546313,-0.032088,-0.378627,1.062171
02739,0.958093,-6.096503,7.650909,0.077736,-0.245177,1.062508
02740,0.541100,-5.416192,7.867044,0.014096,-0.175003,1.007469
02741,0.199634,-5.091171,7.920877,-0.220136,-0.247554,0.957265
02742,0.408065,-5.165567,7.113851,-0.525300,-0.330620,0.874165
02743,0.795677,-5.394851,6.454330,-0.551372,-0.401509,0.783566
02744,1.234867,-5.216480,6.603284,-0.372676,-0.445690,0.690069
02745,1.605527,-4.815731,7.081644,-0.473578,-0.397196,0.580768
02746,1.372696,-5.082212,7.380837,-0.760480,-0.365108,0.501606
02747,1.425569,-5.725363,7.126113,-0.876707,-0.385034,0.435437
02748,1.262235,-5.959373,7.173202,-0.684968,-0.384808,0.376208
02749,0.808882,-6.401445,7.474436,-0.747709,-0.327984,0.272172
02750,0.567073,-7.174813,7.756977,-0.702422,-0.390972,0.234962
02751,0.540840,-7.724480,7.588347,-0.563539,-0.454730,0.209752
02752,0.504684,-7.908612,7.485246,-0.295888,-0.514664,0.200221
02753,0.623727,-7.730673,7.528177,-0.052361,-0.614244,0.183782
02754,0.828730,-7.568671,7.134007,0.118701,-0.717736,0.153911
02755,0.798098,-7.207739,6.747858,0.401005,-0.791263,0.084835
02756,0.738978,-6.664249,6.564359,0.647613,-0.897809,0.016859
02757,1.266980,-6.057082,6.387643,0.767775,-1.005194,-0.069237
02758,1.893390,-4.969122,5.848844,0.914632,-1.065552,-0.171211
02759,2.664598,-3.447006,5.499388,0.959859,-1.062171,-0.307687
02760,3.272495,-2.061982,5.173165,0.698360,-1.003682,-0.471209
02761,3.623741,-1.246381,4.698640,0.308624,-0.939068,-0.651893
02762,3.752571,-0.991180,4.318459,-0.078729,-0.845589,-0.884820
02763,3.872904,-1.719972,4.756461,-0.473086,-0.718552,-1.128133
02764,2.904546,-3.242993,5.564612,-0.814062,-0.542994,-1.341534
02765,1.541652,-4.939459,6.277381,-0.959907,-0.594837,-1.507475
02766,1.145997,-6.526983,6.753018,-0.937192,-0.761223,-1.608148
02767,1.108100,-8.063859,7.769241,-0.704095,-0.909502,-1.605526
02768,1.634922,-8.893438,8.298866,-0.327342,-1.111261,-1.534256
02769,2.655106,-9.132241,8.555631,0.071441,-1.188309,-1.415073
02770,2.856014,-9.059345,8.845501,0.378715,-1.153848,-1.251598
02771,2.515700,-8.752074,8.545693,0.610564,-1.192350,-1.093053
02772,2.845609,-8.204049,8.335653,0.833424,-1.220536,-0.970868
02773,3.014003,-7.578202,7.977991,0.943445,-1.178589,-0.849020
02774,3.286496,-6.977201,7.565621,1.014525,-1.147236,-0.770579
02775,3.678551,-6.157179,7.066660,1.080114,-1.140609,-0.761086
02776,4.308476,-5.170294,6.782422,1.064582,-1.104408,-0.813259
02777,4.784702,-4.291862,6.682668,0.932612,-1.036478,-0.916768
02778,5.317085,-3.700196,6.472948,0.700970,-0.939649,-1.057274
02779,5.511158,-3.317776,6.629428,0.491577,-0.789200,-1.215005
02780,5.426878,-3.110307,6.904627,0.247721,-0.676855,-1.357522
02781,5.004661,-3.368296,6.956736,-0.013397,-0.612033,-1.454034
02782,4.512089,-4.014061,7.494792,-0.152261,-0.548902,-1.526934
02783,3.893442,-4.760058,8.281445,-0.207709,-0.571530,-1.589104
02784,3.997631,-5.388512,8.339446,-0.249370,-0.744059,-1.615136
02785,4.587692,-6.016598,7.843495,-0.186337,-0.850668,-1.614554
02786,4.919615,-6.551283,7.523189,0.128890,-0.841727,-1.600015
02787,4.827645,-6.472275,7.480250,0.580734,-0.863776,-1.611045
02788,4.912812,-5.893207,7.017994,0.905073,-0.952543,-1.638448
02789,5.375563,-5.322953,6.557484,1.109704,-0.986013,-1.649474
02790,5.490692,-4.559144,6.401123,1.328163,-0.959103,-1.625083
02791,5.504324,-3.719481,6.674753,1.431379,-0.945604,-1.602944
02792,5.951677,-3.093024,6.984761,1.209006,-0.920663,-1.572710
02793,6.343890,-2.900985,6.721623,0.766053,-0.898826,-1.544846
02794,6.572709,-3.074622,6.387472,0.454074,-0.874286,-1.545378
02795,6.495017,-3.187354,5.678432,0.305030,-0.924001,-1.598254
02796,6.398002,-3.260042,4.866107,0.166417,-1.026140,-1.691797
02797,6.437846,-3.206500,4.166798,0.130517,-1.155529,-1.800482
02798,6.638310,-3.084925,3.921502,0.335635,-1.269989,-1.924049
02799,6.911735,-2.863780,4.646907,0.614177,-1.349258,-2.053196
02800,7.309522,-2.434693,5.722794,0.723114,-1.435073,-2.179679
02801,7.909019,-1.928986,6.494183,0.702419,-1.561700,-2.236590
02802,8.338451,-1.699589,6.869112,0.481125,-1.570214,-2.205900
02803,8.294858,-2.144089,7.279239,0.101787,-1.456529,-2.091992
02804,8.059181,-3.185957,7.348071,-0.216454,-1.346708,-1.940826
02805,7.431337,-3.976210,6.336140,-0.220697,-1.256804,-1.858613
02806,6.584465,-4.129650,5.534037,0.312094,-1.192626,-1.807752
02807,6.190052,-3.714113,6.015705,0.942127,-1.269952,-1.767995
02808,6.643863,-2.965548,6.525809,1.123610,-1.440907,-1.763155
02809,7.768853,-2.235249,6.438481,0.889861,-1.475975,-1.714350
02810,8.359013,-1.997356,5.822035,0.488205,-1.389069,-1.585701
02811,8.219490,-2.276141,5.103951,0.161717,-1.307989,-1.413895
02812,7.970666,-2.755902,4.401015,-0.044707,-1.322719,-1.259893
02813,7.859760,-3.175429,3.307194,-0.056395,-1.368190,-1.201213
02814,7.871195,-3.161384,2.777249,0.405598,-1.340515,-1.222986
02815,7.839522,-2.717452,3.572660,1.001012,-1.280756,-1.232637
02816,7.825688,-1.938522,4.793162,1.284325,-1.306661,-1.217990
02817,8.435490,-0.914258,5.920110,1.053572,-1.360220,-1.111883
02818,9.532228,-0.503008,6.450364,0.312541,-1.224337,-0.845555
02819,9.639744,-0.986556,6.058104,-0.460168,-0.989896,-0.530973
02820,8.849829,-1.951362,5.141553,-0.865468,-0.734746,-0.435885
02821,8.084967,-2.658491,4.234732,-0.768112,-0.685542,-0.433455
02822,7.817050,-2.825367,3.328019,-0.354919,-0.795023,-0.461962
02823,7.798455,-2.529541,3.215988,0.167350,-0.900771,-0.520349
02824,8.076148,-1.878792,3.554776,0.513009,-0.979204,-0.559429
02825,8.580892,-1.308048,4.234343,0.628128,-1.069941,-0.507959
02826,8.938634,-0.803742,4.460084,0.409185,-1.144188,-0.420470
02827,9.423337,-0.770180,4.009081,0.078781,-1.182707,-0.322784
02828,9.745158,-0.867658,3.252934,-0.107849,-1.146286,-0.214666
02829,9.850504,-0.848507,2.687378,-0.060347,-1.091041,-0.174701
02830,9.744364,-0.600337,2.384450,0.078710,-1.046995,-0.166129
02831,9.689982,-0.117369,2.238575,0.255513,-0.999944,-0.215538
02832,9.795746,0.247319,2.807950,0.400763,-0.866713,-0.253961
02833,9.933241,0.594456,3.868578,0.316595,-0.726477,-0.243183
02834,9.837121,0.975745,4.878418,-0.221797,-0.669871,-0.173509
02835,9.735795,0.867390,5.117853,-1.094624,-0.613653,-0.046394
02836,9.492592,0.054549,4.644913,-1.789009,-0.534200,0.051280
02837,9.274356,-0.942677,4.108396,-2.058267,-0.510828,0.141215
02838,8.978734,-1.722960,3.484369,-2.091128,-0.598620,0.233511
02839,8.972228,-2.439608,2.862461,-2.008874,-0.802793,0.288015
02840,9.259740,-3.183721,2.137656,-1.733838,-0.943282,0.334693
02841,9.354510,-3.955995,1.620705,-1.169782,-1.002771,0.393745
02842,9.243349,-4.316011,1.404794,-0.423424,-1.029448,0.449066
02843,9.217238,-4.162420,1.552667,0.237165,-1.096246,0.469880
02844,9.367542,-3.698283,1.742161,0.627015,-1.179600,0.523570
02845,9.542976,-3.206927,1.717981,0.772564,-1.238410,0.573147
02846,9.680074,-2.854940,1.631745,0.762668,-1.226057,0.602899
02847,9.571669,-2.415665,1.197468,0.734509,-1.153538,0.604929
02848,9.318445,-1.822366,0.584521,0.735623,-1.022881,0.559149
02849,9.224412,-1.212095,0.282718,0.836225,-0.854917,0.492248
02850,8.925808,-0.335914,0.483990,1.112170,-0.582287,0.409166
02851,8.450635,0.785731,1.144056,1.559162,-0.309271,0.266827
02852,8.482601,2.067887,2.387038,1.766561,-0.086374,0.115800
02853,9.234633,3.239586,4.359965,1.122139,0.026675,0.149608
02854,10.316929,3.338805,6.095894,-0.487522,-0.110658,0.345696
02855,11.237037,1.917919,5.255470,-1.986615,-0.404341,0.460033
02856,12.067486,0.335671,3.386620,-2.262558,-0.626025,0.433188
02857,12.657161,-1.186308,2.088402,-1.392512,-0.563233,0.243889
02858,12.806163,-1.515950,1.359074,0.572080,-0.299635,-0.031118
02859,12.706763,0.467738,2.606997,2.617032,-0.030006,-0.285811
02860,12.491800,3.078127,4.387578,3.379909,0.095166,-0.561705
02861,12.369039,5.585559,6.117594,2.374703,0.002511,-0.667193
02862,11.900369,5.993451,6.028765,0.118507,-0.195377,-0.400642
02863,11.363407,3.380309,4.135332,-1.653461,-0.388429,-0.205714
02864,11.367454,0.995840,2.630857,-2.264772,-0.475033,-0.073283
02865,11.203193,-0.991719,1.670957,-2.365331,-0.394934,-0.037766
02866,10.679235,-2.665400,0.653828,-2.018619,-0.238158,-0.199766
02867,10.155544,-3.503137,-0.123334,-0.836892,-0.145617,-0.268590
02868,9.934675,-2.990466,0.490159,0.241144,-0.021321,-0.274405
02869,9.533387,-2.045874,1.427825,0.455930,0.017413,-0.229068
02870,9.169209,-1.537829,1.708454,0.173557,-0.043727,-0.168392
02871,9.180871,-1.541942,1.367111,-0.114446,-0.102380,-0.103995
02872,9.226531,-1.802505,1.081274,-0.123809,-0.081235,-0.068485
02873,9.229660,-1.813694,0.987105,0.076727,-0.003065,-0.049374
02874,9.060986,-1.532915,1.356517,0.204996,0.057968,-0.035959
02875,9.087739,-1.316944,1.625189,0.141244,0.077580,0.001072
02876,9.171364,-1.371029,1.637860,0.013580,0.068390,0.037806
02877,9.338433,-1.432594,1.380598,0.059151,0.083142,0.069971
02878,9.436066,-1.210615,1.417692,0.226419,0.117319,0.096585
02879,9.523690,-0.843260,1.510035,0.357500,0.134640,0.109008
02880,9.635418,-0.465727,1.554341,0.406164,0.147911,0.135178
02881,9.735285,-0.157537,1.763575,0.364287,0.164349,0.163101
02882,9.836057,0.044255,2.013017,0.247958,0.170312,0.176260
02883,9.981197,0.086723,2.129301,0.056925,0.182179,0.185904
02884,10.081937,-0.049113,2.027587,-0.165061,0.181817,0.189240
02885,10.177508,-0.336654,1.855595,-0.282121,0.183172,0.192670
02886,10.248861,-0.662782,1.762331,-0.327351,0.186357,0.194039
02887,10.288216,-0.947183,1.684659,-0.325627,0.181448,0.182078
02888,10.218453,-1.184515,1.645706,-0.295771,0.173993,0.166074
02889,10.181383,-1.411902,1.611151,-0.271501,0.167429,0.158326
02890,9.987644,-1.518009,1.493893,-0.198467,0.156282,0.149812
02891,9.878495,-1.561430,1.521090,-0.047293,0.139701,0.136263
02892,9.838186,-1.451050,1.755609,0.033155,0.128008,0.125591
02893,9.807204,-1.323253,1.834466,0.042880,0.121245,0.117679
02894,9.731595,-1.297630,1.803532,0.013263,0.117252,0.113957
02895,9.679431,-1.310548,1.700492,0.005492,0.117803,0.109909
02896,9.635071,-1.353339,1.683620,0.042251,0.124261,0.106598
02897,9.612038,-1.368159,1.710159,0.073333,0.129953,0.100228
02898,9.548853,-1.331070,1.613158,0.123216,0.131618,0.100939
02899,9.554010,-1.142046,1.723725,0.198461,0.125291,0.097065
02900,9.558030,-0.944716,1.746220,0.236360,0.126900,0.090223
02901,9.528372,-0.809424,1.825466,0.232718,0.132738,0.091294
02902,9.505535,-0.641872,1.838029,0.211588,0.125099,0.076805
02903,9.540084,-0.539965,1.905556,0.167201,0.130604,0.075837
02904,9.516886,-0.578157,1.964096,0.056919,0.129427,0.077249
02905,9.505895,-0.754507,1.849611,-0.063139,0.122254,0.070338
02906,9.554891,-0.886898,1.662164,-0.072428,0.125845,0.057072
02907,9.542876,-0.972664,1.716393,-0.028761,0.136093,0.035821
02908,9.529743,-1.084549,1.803612,-0.055913,0.145484,0.029535
02909,9.437647,-1.172642,1.647492,-0.076731,0.126778,0.016537
02910,9.423800,-1.304067,1.676373,-0.019000,0.109922,0.004035
02911,9.469323,-1.272919,1.770229,0.069208,0.103315,-0.009536
02912,9.463193,-1.230646,1.926046,0.091862,0.099703,-0.021123
02913,9.475884,-1.203220,2.011978,0.071574,0.084292,-0.031097
02914,9.454089,-1.219789,1.890212,0.077837,0.078627,-0.039374
02915,9.454070,-1.191883,1.954325,0.124997,0.073265,-0.050196
02916,9.500157,-1.153642,2.046095,0.142161,0.067369,-0.048881
02917,9.523308,-1.197912,2.159263,0.108144,0.064703,-0.040388
02918,9.561325,-1.375507,2.012673,0.058578,0.060133,-0.025672
02919,9.498555,-1.471069,1.748467,0.087097,0.058937,-0.016490
02920,9.470045,-1.343318,1.675441,0.214919,0.062142,-0.011097
02921,9.510434,-1.088863,1.895783,0.295545,0.060960,-0.004537
02922,9.503472,-0.869921,2.119008,0.261586,0.050233,0.000735
02923,9.492433,-0.791238,2.094974,0.175697,0.037943,0.008583
02924,9.557501,-0.792461,1.970979,0.094436,0.034236,0.008588
02925,9.587278,-0.856758,1.904332,0.065474,0.038721,0.015488
02926,9.603267,-0.927777,1.905517,0.082730,0.042390,0.010348
02927,9.615834,-0.902132,1.986456,0.089202,0.046339,0.006785
02928,9.568978,-0.910991,1.963548,0.057630,0.045652,0.008087
02929,9.535964,-0.914241,1.873013,0.030235,0.047076,0.008130
02930,9.500798,-0.948741,1.903052,0.053936,0.046838,0.012365
02931,9.514505,-0.897159,1.951066,0.075708,0.041580,0.018836
02932,9.498196,-0.931085,2.055671,0.026554,0.045189,0.022027
02933,9.480665,-1.035267,1.993778,-0.042039,0.038495,0.031055
02934,9.438555,-1.118726,1.857428,-0.053130,0.042100,0.043868
02935,9.454040,-1.194760,1.857922,-0.016161,0.041816,0.044234
02936,9.444168,-1.229184,1.928445,0.010136,0.048287,0.049252
02937,9.411570,-1.191565,1.947977,0.008622,0.043340,0.052957
02938,9.424600,-1.167350,1.939706,0.011171,0.034031,0.052326
02939,9.480072,-1.210761,1.969349,0.015220,0.036302,0.067117
02940,9.488073,-1.291399,2.003239,0.009093,0.029195,0.070594
02941,9.506330,-1.315272,1.937719,0.043874,0.022189,0.071724
02942,9.540094,-1.241021,2.025921,0.099865,0.016132,0.074653
02943,9.570523,-1.092162,2.137596,0.125145,0.014231,0.067288
02944,9.534795,-1.002820,2.123358,0.115579,0.014593,0.062064
02945,9.523042,-0.958931,2.127315,0.100715,0.008026,0.063285
02946,9.556907,-0.929316,2.103475,0.073004,0.003162,0.065037
02947,9.528349,-0.988624,2.040854,0.062449,0.003623,0.072905
