// Start Time: Unknown
// Update Rate: 100.0Hz
// Filter Profile: human (46.1)
// Firmware Version: 4.3.5
PacketCounter,Acc_X,Acc_Y,Acc_Z,Gyr_X,Gyr_Y,Gyr_Z
52207,9.872045,-0.906561,1.468300,-0.149126,-0.046248,-0.059725
52208,9.740190,-1.453235,1.362647,-0.248809,-0.006867,-0.063525
52209,9.708743,-1.815135,1.350934,-0.263161,0.025151,-0.065069
52210,9.643891,-1.922905,1.428097,-0.229350,0.048968,-0.064886
52211,9.612375,-1.949224,1.406900,-0.196381,0.065298,-0.059011
52212,9.540029,-1.908943,1.463665,-0.162820,0.070425,-0.055531
52213,9.564026,-1.956878,1.446044,-0.145332,0.069161,-0.043723
52214,9.566063,-1.979105,1.424836,-0.115075,0.060156,-0.030050
52215,9.605842,-2.013795,1.417945,-0.078476,0.044777,-0.021158
52216,9.649599,-1.951982,1.437913,-0.043391,0.032801,-0.013457
52217,9.684800,-1.939808,1.479723,-0.027050,0.023641,-0.002702
52218,9.652653,-1.969719,1.458367,-0.017944,0.017761,0.011346
52219,9.659098,-2.042724,1.384512,0.000249,0.003066,0.018459
52220,9.625514,-2.080188,1.320260,0.033302,-0.001336,0.022914
52221,9.624883,-2.082448,1.321297,0.072683,-0.000037,0.038588
52222,9.635351,-2.023217,1.384035,0.091256,-0.002691,0.047364
52223,9.640665,-1.954171,1.387877,0.093468,-0.007524,0.059751
52224,9.707661,-1.948583,1.384834,0.085524,-0.009421,0.068377
52225,9.683180,-1.934952,1.339821,0.066348,-0.016074,0.081346
52226,9.720812,-1.948293,1.395604,0.027437,-0.020679,0.098181
52227,9.786363,-1.918399,1.455723,-0.037522,-0.025993,0.128615
52228,9.771849,-1.888276,1.358875,-0.115285,-0.033045,0.152782
52229,9.723676,-1.820989,1.096565,-0.205331,-0.057163,0.196259
52230,9.766914,-1.905505,0.836215,-0.285268,-0.080071,0.236049
52231,9.811680,-2.089109,0.685898,-0.355535,-0.104063,0.295796
52232,9.897696,-2.343609,0.810613,-0.394452,-0.111392,0.351073
52233,9.994557,-2.557890,1.268075,-0.429781,-0.081050,0.418887
52234,9.950008,-2.808288,1.692037,-0.486039,-0.050451,0.484047
52235,9.707862,-2.762700,1.867888,-0.560609,-0.038404,0.544391
52236,9.542803,-2.951462,1.996897,-0.657975,-0.050996,0.584468
52237,9.669384,-3.599525,2.075420,-0.692231,-0.090076,0.632574
52238,9.707730,-4.712792,2.014253,-0.565874,-0.138765,0.711427
52239,9.691212,-5.787885,1.704332,-0.192027,-0.205161,0.794559
52240,9.779971,-6.464693,1.504174,0.381683,-0.274456,0.828122
52241,9.822057,-6.003748,1.253031,0.998716,-0.331933,0.861427
52242,9.887624,-4.950167,0.938088,1.418906,-0.423389,0.920374
52243,10.278694,-3.886996,1.046418,1.579288,-0.472284,0.998533
52244,10.712376,-3.123428,1.633179,1.428510,-0.424964,1.118705
52245,10.800046,-2.729408,2.226125,1.093679,-0.343688,1.234521
52246,10.737709,-2.290903,2.395510,0.684067,-0.256239,1.309440
52247,10.598268,-1.930193,1.988516,0.225531,-0.154765,1.363450
52248,10.348819,-2.317890,1.453188,-0.202979,-0.033459,1.444911
52249,9.955501,-3.501114,1.316636,-0.486984,0.081548,1.519371
52250,9.589258,-4.824619,1.163988,-0.557299,0.187069,1.575230
52251,9.056371,-5.907673,1.039767,-0.417809,0.253339,1.600589
52252,8.723897,-6.521968,1.272431,-0.109339,0.249504,1.589305
52253,8.786111,-6.866806,1.642100,0.234339,0.214420,1.596373
52254,8.783940,-6.696582,1.858919,0.643632,0.160067,1.619700
52255,9.347773,-5.675889,2.223592,0.900312,0.078732,1.600241
52256,9.340443,-4.809517,2.199495,0.898656,0.026323,1.606309
52257,9.014796,-4.724740,1.822532,0.749183,-0.047419,1.639460
52258,8.856209,-4.667205,1.315916,0.610837,-0.126919,1.645573
52259,8.919233,-4.588217,1.041046,0.513974,-0.180711,1.640501
52260,8.996234,-4.627668,1.355331,0.405881,-0.188812,1.630949
52261,9.018635,-4.950193,2.133147,0.310223,-0.133587,1.616103
52262,8.994238,-5.197027,2.877482,0.254183,-0.036620,1.603836
52263,9.047200,-5.026634,3.422593,0.189170,0.114779,1.601741
52264,8.950151,-4.434008,3.379644,0.048658,0.325919,1.602874
52265,8.570859,-3.736919,3.059893,-0.204171,0.521395,1.595237
52266,8.013747,-3.239309,3.052513,-0.579739,0.674555,1.577865
52267,7.454099,-3.016311,2.746258,-1.084908,0.773749,1.537236
52268,6.769087,-3.440747,1.975535,-1.528936,0.794305,1.456649
52269,6.611167,-4.802768,1.750310,-1.839477,0.751629,1.378792
52270,6.738284,-6.911243,1.753509,-1.811487,0.695665,1.358259
52271,6.662671,-9.636060,0.974233,-1.464211,0.566367,1.425907
52272,6.817029,-11.813011,0.389968,-0.482665,0.433158,1.274640
52273,7.381702,-11.039725,0.628612,0.518952,0.303311,1.193410
52274,7.696546,-9.467854,0.764545,1.169203,0.149908,1.210244
52275,7.773696,-7.563585,1.131162,1.418891,0.044074,1.224280
52276,7.856716,-6.371493,1.333997,1.315895,-0.072542,1.247204
52277,8.191617,-5.973219,1.426881,1.098474,-0.149924,1.285305
52278,8.645883,-6.037794,1.472635,0.852000,-0.148359,1.330011
52279,8.739103,-6.546223,1.150231,0.701322,-0.086481,1.348009
52280,8.473507,-7.086779,1.423156,0.719856,0.029158,1.357080
52281,7.850908,-6.893000,2.430578,0.814172,0.210934,1.359543
52282,7.296245,-6.014096,3.791639,0.741519,0.423640,1.327528
52283,6.808009,-5.106805,4.830571,0.423130,0.612679,1.274991
52284,6.045660,-5.263430,3.926758,-0.122071,0.657779,1.282111
52285,5.566796,-6.403992,2.755948,-0.441497,0.611992,1.238452
52286,5.709372,-8.400272,2.730168,-0.442850,0.535580,1.184409
52287,5.733953,-10.908732,2.203947,-0.049829,0.411264,1.192612
52288,5.723490,-13.042327,1.295658,0.826936,0.227123,1.202700
52289,6.036371,-12.930542,1.153486,1.880357,0.070149,1.140565
52290,6.557924,-10.528870,1.797008,2.511452,-0.028147,1.162054
52291,6.862779,-7.775247,2.410797,2.585471,-0.070971,1.150480
52292,6.824452,-5.764153,2.572513,2.204675,-0.084116,1.149818
52293,6.658134,-5.009176,2.541377,1.672570,-0.079994,1.181898
52294,6.616532,-5.927432,2.160182,1.207895,-0.028928,1.240175
52295,6.702759,-7.192199,2.467154,0.945506,0.106361,1.322712
52296,6.355333,-8.016864,3.104964,0.795301,0.287698,1.392503
52297,5.861177,-8.425433,4.219094,0.614565,0.469691,1.434522
52298,5.380073,-8.509215,4.770754,0.450589,0.628701,1.436727
52299,4.775562,-8.563195,4.070887,0.327404,0.646383,1.425410
52300,4.596369,-8.934202,3.604008,0.271167,0.599229,1.438050
52301,4.551588,-9.794062,3.167723,0.331881,0.493436,1.483142
52302,4.618549,-11.338784,2.436902,0.510924,0.280699,1.562987
52303,4.784022,-12.693067,1.621754,0.919004,0.034839,1.650416
52304,5.355602,-13.002190,1.545991,1.401060,-0.186336,1.713763
52305,5.954564,-11.961496,1.921747,1.708480,-0.329929,1.810942
52306,5.963652,-10.253391,2.158864,1.817323,-0.409563,1.863874
52307,5.416283,-8.518306,1.941499,1.746943,-0.476191,1.878243
52308,4.941586,-7.688025,1.826608,1.519161,-0.536259,1.912852
52309,4.471900,-8.117107,1.776026,1.286760,-0.560072,1.974749
52310,4.439684,-8.972538,2.024316,1.224334,-0.559358,2.026510
52311,4.492315,-9.553563,2.872890,1.324551,-0.489789,2.056804
52312,4.518500,-9.347974,3.898059,1.477003,-0.391936,2.059180
52313,4.313274,-8.310517,4.682800,1.558956,-0.301890,2.045935
52314,3.830624,-7.172338,4.844224,1.450204,-0.269023,2.032364
52315,3.222999,-6.480037,4.342542,1.169910,-0.293448,2.036192
52316,2.591259,-6.813402,3.710161,0.875404,-0.367275,2.011785
52317,2.413362,-7.985912,3.350271,0.723973,-0.470748,1.981231
52318,2.488389,-8.990363,3.107482,0.857299,-0.584011,1.927532
52319,2.552110,-9.478558,2.729096,1.215264,-0.709936,1.837892
52320,2.475235,-9.169340,2.608733,1.695655,-0.827466,1.738801
52321,2.162806,-8.336171,2.328109,2.052191,-0.961659,1.684432
52322,2.125760,-7.171483,2.660895,2.218811,-1.088628,1.635171
52323,2.399982,-6.159426,3.016433,2.159597,-1.174794,1.582422
52324,2.661784,-5.892461,3.422957,1.971757,-1.233842,1.562851
52325,2.841881,-6.535674,3.905473,1.795856,-1.192878,1.583041
52326,2.862334,-7.357173,4.527216,1.784107,-1.071013,1.593435
52327,2.818391,-7.637509,5.643742,1.904772,-0.901466,1.598384
52328,2.745751,-7.096000,6.764691,1.931616,-0.725586,1.644615
52329,2.616410,-6.069193,7.444790,1.701266,-0.546687,1.698706
52330,2.360813,-5.167094,7.431636,1.173290,-0.405595,1.757768
52331,1.987880,-5.318104,7.241448,0.516548,-0.304381,1.804584
52332,1.718352,-6.806063,6.689127,0.023434,-0.256467,1.854275
52333,1.411466,-8.900239,5.730586,-0.128522,-0.287895,1.939209
52334,1.248014,-10.428658,5.063376,0.191446,-0.367819,1.976082
52335,1.127395,-10.520576,4.856661,0.661957,-0.464973,2.008865
52336,1.136315,-9.278994,5.346362,0.986709,-0.546195,2.103384
52337,1.099109,-7.173040,5.981101,0.996343,-0.574684,2.166677
52338,1.042376,-5.369575,6.746305,0.682343,-0.575361,2.195807
52339,0.734796,-4.845895,7.475942,0.172113,-0.541006,2.221653
52340,0.257749,-5.653566,6.871683,-0.235344,-0.530000,2.228578
52341,0.128221,-6.819006,6.253592,-0.276902,-0.514042,2.190196
52342,0.543073,-7.711496,6.573759,0.037785,-0.405447,2.154687
52343,0.733395,-7.511486,7.050742,0.483950,-0.264149,2.135402
52344,1.068411,-6.649318,8.753062,0.841361,-0.074903,2.173571
52345,1.084507,-5.218009,10.645034,0.832321,0.229679,2.183227
52346,0.687511,-3.604913,11.669595,0.390370,0.522349,2.158782
52347,0.110251,-2.446361,11.153160,-0.441246,0.707263,2.156645
52348,-0.625651,-2.956784,8.836067,-1.330398,0.782400,2.156176
52349,-1.223315,-4.705858,6.904992,-1.857798,0.754416,2.094018
52350,-1.859894,-7.355145,5.526090,-1.935613,0.664144,2.051510
52351,-2.317523,-9.520358,4.916179,-1.431140,0.502645,1.971094
52352,-2.445644,-10.700666,4.007486,-0.618843,0.282354,1.880427
52353,-2.146085,-10.761086,3.284030,0.262780,0.043222,1.815065
52354,-1.698093,-9.657441,3.090018,0.911523,-0.178792,1.810504
52355,-1.611331,-7.952004,3.132683,1.116641,-0.397527,1.830893
52356,-2.085160,-6.179106,3.029247,0.956081,-0.623635,1.824395
52357,-2.557918,-4.786175,3.077694,0.521872,-0.892809,1.785151
52358,-2.842123,-4.394361,3.462422,0.021062,-1.153273,1.737424
52359,-2.777374,-5.722027,3.742414,-0.368461,-1.337774,1.693408
52360,-2.653834,-7.701634,3.801991,-0.381243,-1.475579,1.703181
52361,-2.315770,-8.818983,4.308173,0.023695,-1.568226,1.649186
52362,-1.814476,-9.159919,5.044252,0.574913,-1.606150,1.648252
52363,-1.332303,-8.997400,5.686827,1.061710,-1.576470,1.725428
52364,-1.009587,-7.710049,6.777122,1.524137,-1.441729,1.761711
52365,-1.098250,-5.622581,7.821336,1.687074,-1.313407,1.782471
52366,-1.397969,-3.668289,8.665700,1.484343,-1.193631,1.816319
52367,-1.672346,-2.157554,9.249246,0.943969,-1.077857,1.801133
52368,-1.942859,-2.004325,8.940346,0.108646,-1.006205,1.792108
52369,-2.000584,-3.276179,7.803976,-0.544133,-0.969144,1.753041
52370,-1.898467,-4.941022,6.683796,-0.914157,-0.975016,1.691535
52371,-1.870392,-6.303375,5.696395,-0.978749,-1.021359,1.684278
52372,-2.039191,-6.225025,5.291079,-0.808051,-1.079969,1.686879
52373,-2.421581,-4.899154,5.374291,-0.799564,-1.151716,1.677603
52374,-2.614072,-3.027910,5.660212,-1.066275,-1.219736,1.638478
52375,-2.540006,-1.196948,5.734872,-1.602825,-1.255892,1.463842
52376,-2.069578,-0.048548,5.676755,-2.341639,-1.275558,1.278738
52377,-1.639774,-1.350989,6.305866,-3.135711,-1.290080,1.178737
52378,-1.236319,-4.371509,6.773474,-3.449466,-1.287963,1.075264
52379,-1.170888,-7.455735,7.065548,-3.081878,-1.217899,0.983956
52380,-1.157106,-8.528361,7.799057,-2.041733,-1.047568,0.807771
52381,-1.204185,-6.411097,9.526247,-1.098278,-0.792878,0.629827
52382,-1.262532,-3.319049,10.801664,-0.701640,-0.496146,0.452867
52383,-0.990678,-1.369384,11.435537,-1.006689,-0.230809,0.293752
52384,-1.166457,-1.978402,9.995443,-1.623194,0.038459,0.123156
52385,-1.585348,-4.377855,7.983119,-1.773643,0.197163,-0.025299
52386,-2.315087,-7.328424,5.755437,-1.490869,0.264473,-0.102472
52387,-3.148637,-8.862036,4.525311,-0.699457,0.252547,-0.246353
52388,-3.212759,-7.930170,4.743188,-0.071191,0.165924,-0.367465
52389,-2.962407,-6.252853,5.768635,0.111550,0.085727,-0.446523
52390,-2.663083,-5.118521,6.817413,-0.115474,0.031948,-0.510202
52391,-2.348226,-5.626291,7.239776,-0.415038,0.047151,-0.559658
52392,-2.382117,-6.673233,7.385852,-0.442727,0.102935,-0.623107
52393,-2.080544,-7.436873,7.619467,-0.265038,0.161214,-0.678524
52394,-1.658089,-7.662115,8.113185,-0.012407,0.318121,-0.706596
52395,-1.360323,-7.577498,8.795714,0.173639,0.510636,-0.719227
52396,-1.166837,-6.997526,8.789081,0.199943,0.717465,-0.735649
52397,-0.961070,-6.472945,8.293475,0.036312,0.890645,-0.715435
52398,-1.257924,-6.768859,7.451354,-0.215865,0.999851,-0.704544
52399,-1.869494,-8.098689,6.106016,-0.388356,1.006399,-0.670092
52400,-2.655102,-9.609055,4.459747,-0.329932,0.920368,-0.616013
52401,-3.396531,-10.320844,3.378057,-0.118253,0.763686,-0.580888
52402,-3.921177,-10.130250,2.798814,0.077302,0.567195,-0.542550
52403,-4.035789,-8.864645,2.622845,0.085738,0.311005,-0.492743
52404,-4.116004,-7.684794,2.230446,-0.118374,0.034170,-0.426221
52405,-4.335839,-7.712719,2.229714,-0.440716,-0.222895,-0.352979
52406,-4.559361,-9.652289,2.860995,-0.599798,-0.439362,-0.245925
52407,-4.287557,-11.805317,4.462632,-0.237367,-0.545086,-0.139627
52408,-3.106946,-12.502423,7.633527,0.641636,-0.489359,-0.129483
52409,-1.268810,-10.215758,10.997159,1.600573,-0.217772,-0.122862
52410,0.051761,-6.599108,13.030585,2.083910,0.162488,-0.188565
52411,0.685099,-3.347287,13.178453,1.967539,0.567791,-0.285183
52412,0.265659,-1.420547,12.316213,1.410254,0.945399,-0.433743
52413,-0.559006,-1.697622,10.323773,0.655618,1.196655,-0.586270
52414,-1.184002,-2.977253,7.826512,0.183616,1.330505,-0.756596
52415,-1.576995,-4.392050,6.136074,-0.038495,1.352181,-0.940660
52416,-1.855140,-5.301651,5.759220,-0.052040,1.309434,-1.124239
52417,-1.602553,-5.749795,7.160764,-0.005840,1.266816,-1.286447
52418,-1.168796,-5.965164,7.932973,0.119140,1.279899,-1.443381
52419,-0.822847,-6.842093,7.330681,0.370893,1.269252,-1.569568
52420,-0.497125,-7.464828,7.212546,0.776196,1.326458,-1.739437
52421,-0.839286,-6.508360,7.237091,1.203580,1.355170,-1.971280
52422,-1.028816,-5.072586,7.094831,1.406359,1.356409,-2.187504
52423,-0.943006,-3.932728,7.120113,1.331463,1.362132,-2.349733
52424,-0.196351,-3.940653,7.725970,0.946097,1.394599,-2.459431
52425,0.477063,-4.915114,8.093872,0.557012,1.503798,-2.516550
52426,0.423092,-5.656405,8.516819,0.420637,1.643250,-2.599002
52427,-0.021404,-6.338222,9.451286,0.526066,1.809965,-2.694493
52428,-0.511425,-7.090491,9.335327,0.865847,1.979957,-2.803040
52429,-0.442872,-8.063933,8.947881,1.353395,2.072633,-2.892635
52430,0.293825,-8.778705,8.341109,1.721179,2.154218,-2.916992
52431,1.378475,-8.100274,8.597743,1.813456,2.238914,-2.824146
52432,2.052262,-6.236477,9.679738,1.371562,2.348059,-2.746514
52433,2.261431,-5.391958,10.773117,0.562278,2.477103,-2.669145
52434,1.985807,-6.598634,10.975637,-0.243592,2.666640,-2.584278
52435,1.482473,-9.163627,10.545970,-0.572232,2.873513,-2.476727
52436,1.076937,-12.156213,9.313424,-0.270814,3.034639,-2.310865
52437,0.757187,-14.425677,7.351424,0.821912,3.206170,-2.265348
52438,0.438215,-14.541705,6.280036,2.190703,3.322905,-2.266718
52439,-0.065360,-12.440837,5.661702,3.267644,3.314115,-2.234475
52440,-0.760435,-8.034059,5.962294,3.764285,3.210302,-2.298552
52441,-1.170168,-3.562026,6.549590,3.346321,3.003037,-2.457495
52442,-0.952850,-1.498699,6.325893,1.931973,2.675803,-2.449262
52443,-0.705366,-2.881626,5.434934,0.614261,2.421797,-2.471496
52444,-1.164147,-5.540765,3.344462,-0.051877,2.147287,-2.557019
52445,-1.535218,-8.632712,2.455610,0.304741,1.822395,-2.663953
52446,-1.460202,-10.218189,2.943851,1.256871,1.640437,-2.736964
52447,-1.771120,-10.721133,3.154477,2.142791,1.410886,-2.684125
52448,-1.448598,-9.148278,4.099593,2.773647,1.215122,-2.627785
52449,-0.749861,-6.241421,5.387036,2.907201,1.128310,-2.643817
52450,-0.142839,-3.993560,6.067374,2.436257,1.059665,-2.625348
52451,0.592667,-2.997330,7.003361,1.784107,1.057148,-2.587910
52452,0.971800,-3.104741,7.944826,1.048860,1.168870,-2.515327
52453,0.704374,-4.333040,8.557875,0.511875,1.294181,-2.443809
52454,0.450502,-6.417060,8.155232,0.252434,1.380931,-2.342340
52455,-0.051030,-8.468526,7.372226,0.500864,1.445151,-2.269893
52456,-0.519145,-9.505464,6.600421,1.061970,1.425164,-2.226810
52457,-0.699458,-8.246126,6.344739,1.594931,1.338983,-2.191850
52458,-0.793275,-5.492426,6.653740,1.764209,1.208089,-2.208747
52459,-0.532254,-3.121971,7.341482,1.372856,1.067178,-2.244796
52460,-0.386093,-2.195142,7.239249,0.718046,0.965440,-2.295789
52461,-0.450437,-2.814470,6.953980,0.288546,0.856845,-2.384421
52462,-0.093751,-4.800196,6.617875,0.096966,0.755233,-2.341428
52463,0.529272,-7.088466,6.868147,0.253969,0.719610,-2.263405
52464,0.894212,-8.206230,7.201048,0.669126,0.771060,-2.222213
52465,0.848739,-7.828215,7.924144,1.151427,0.864393,-2.200976
52466,0.342813,-5.902338,8.849755,1.459025,0.957504,-2.200055
52467,0.080222,-3.348024,9.874011,1.389266,1.043703,-2.249200
52468,-0.048814,-1.661341,10.236140,0.857562,1.107504,-2.293042
52469,0.082531,-1.644249,9.506308,0.105731,1.156291,-2.302626
52470,0.261022,-3.148365,8.830909,-0.387955,1.184835,-2.313077
52471,0.836097,-5.022300,9.132899,-0.664194,1.199457,-2.289063
52472,1.261634,-6.602928,9.180810,-0.653486,1.203339,-2.239601
52473,1.456092,-7.865368,8.628188,-0.409652,1.164861,-2.180835
52474,1.434491,-8.250518,8.556963,0.026396,1.125903,-2.140685
52475,1.054839,-7.931344,8.935790,0.300596,1.052871,-2.066569
52476,0.903172,-6.841604,9.773778,0.389863,1.002061,-2.015048
52477,0.585029,-5.644570,10.469299,0.139636,1.006499,-1.946872
52478,-0.025794,-5.535806,9.717103,-0.234783,0.963209,-1.875255
52479,-1.312662,-5.452045,6.210779,-0.247409,0.743645,-1.972050
52480,-0.564403,-6.613818,4.984617,0.019529,0.446528,-1.987745
52481,0.531578,-8.211306,5.148793,0.505074,0.347497,-1.829709
52482,1.522832,-9.056972,5.714072,1.002578,0.284171,-1.656833
52483,1.979818,-8.439180,6.890851,1.364392,0.366325,-1.511836
52484,1.294822,-6.280965,8.757234,1.502831,0.550512,-1.444885
52485,0.239986,-3.414816,10.423744,1.370050,0.690298,-1.508742
52486,-0.009197,-0.976806,11.575798,0.814082,0.819116,-1.627026
52487,0.165934,0.245010,11.967451,-0.141167,0.958269,-1.682006
52488,0.181506,-0.841557,10.535902,-1.177738,1.046619,-1.688175
52489,0.112547,-2.851669,8.973523,-1.628661,1.104460,-1.708638
52490,0.026054,-4.804508,8.110463,-1.650964,1.117414,-1.729063
52491,0.205160,-6.060471,8.210112,-1.358974,1.091748,-1.767397
52492,0.708537,-6.786152,9.228289,-0.998626,1.093671,-1.810161
52493,0.784778,-7.036461,9.807837,-0.580000,1.116651,-1.868901
52494,0.758683,-7.127611,9.607249,-0.155704,1.093660,-1.895039
52495,0.682508,-6.844775,9.175276,0.309568,1.077436,-1.922245
52496,0.209301,-5.910642,8.503602,0.712520,1.037965,-2.003443
52497,-0.105827,-4.868977,7.851191,0.972196,0.927879,-2.119865
52498,0.235530,-4.253824,7.787437,1.068800,0.834187,-2.197044
52499,0.970375,-4.219944,8.203402,1.064600,0.798392,-2.237422
52500,1.510640,-4.613863,8.537247,0.986642,0.813008,-2.224229
52501,1.709309,-4.918875,8.506246,0.894996,0.827542,-2.198474
52502,1.609858,-4.657154,8.065945,0.816694,0.828527,-2.182931
52503,1.254830,-4.136018,7.386304,0.695282,0.796940,-2.147265
52504,0.946646,-3.504651,6.742060,0.569435,0.729217,-2.147500
52505,1.031598,-3.640011,6.837803,0.381883,0.719739,-2.142731
52506,1.204048,-4.792481,6.996686,0.124255,0.761977,-2.065860
52507,1.544719,-5.408723,8.312457,-0.107796,0.821194,-2.003513
52508,1.741889,-5.263392,9.093449,-0.447295,0.878993,-2.004552
52509,1.796326,-4.576929,9.546503,-0.886728,0.948304,-2.004267
52510,1.487524,-4.184519,9.827632,-1.384509,1.001139,-2.005983
52511,1.336118,-4.889811,9.435012,-1.810367,0.998213,-1.968849
52512,1.239511,-6.289164,9.228708,-1.992471,0.995269,-1.909235
52513,1.102420,-7.801106,9.220096,-1.820939,0.950063,-1.854923
52514,1.055111,-9.120971,8.255583,-1.181398,0.874691,-1.830823
52515,1.460181,-10.168159,7.841274,-0.164142,0.840878,-1.783089
52516,0.888037,-9.947757,6.631342,0.872590,0.752162,-1.746944
52517,0.919349,-9.226618,6.614278,1.636034,0.584793,-1.651111
52518,1.150178,-7.886795,7.197991,1.940810,0.509551,-1.487388
52519,0.882632,-5.697920,6.930078,1.826485,0.425134,-1.369056
52520,0.535579,-2.915982,6.337928,1.487803,0.312518,-1.347949
52521,1.177712,-1.466185,6.882436,0.857542,0.234666,-1.256725
52522,1.959179,-2.565776,7.708842,0.223171,0.358239,-1.086815
52523,1.819020,-4.769512,8.161037,-0.117090,0.502336,-0.944889
52524,1.043708,-6.777401,8.147985,-0.071091,0.556629,-0.840300
52525,0.231911,-6.763356,8.059893,0.260056,0.513317,-0.829347
52526,0.089124,-5.187625,8.237712,0.437522,0.412910,-0.841866
52527,0.390603,-3.649058,8.716411,0.298786,0.314342,-0.851465
52528,0.759843,-3.462132,9.025004,-0.117735,0.241971,-0.831486
52529,0.870071,-4.411328,9.559970,-0.474857,0.210368,-0.771653
52530,0.870614,-5.709952,9.512659,-0.568224,0.176602,-0.699296
52531,1.085437,-6.721496,9.240930,-0.357936,0.124528,-0.600796
52532,1.343771,-7.897447,9.183117,0.061640,0.145446,-0.454053
52533,1.134553,-7.898320,9.213167,0.574372,0.152727,-0.325258
52534,0.848306,-6.398830,9.137447,0.933070,0.091188,-0.245434
52535,0.642003,-3.969153,9.021476,1.000791,0.018762,-0.252249
52536,0.205297,-1.545386,8.317924,0.635054,-0.067100,-0.355012
52537,-0.261205,0.196442,6.469811,0.010369,-0.253492,-0.539584
52538,0.700959,-0.511549,4.778354,-0.735908,-0.446413,-0.531144
52539,2.253040,-3.987064,4.220418,-1.396485,-0.421008,-0.373672
52540,2.626561,-8.665187,3.795811,-1.423094,-0.202434,-0.155212
52541,1.507690,-11.430368,4.842849,-0.450191,0.010275,-0.173014
52542,0.351500,-10.199100,6.751940,0.587043,0.101815,-0.226032
52543,-0.149927,-6.946038,8.592296,1.229182,0.111456,-0.297100
52544,0.210760,-3.363963,10.693756,1.132430,0.065367,-0.391190
52545,0.711845,-1.930282,11.453523,0.270529,-0.039217,-0.352392
52546,0.932727,-3.318579,10.464529,-0.513564,-0.102703,-0.305167
52547,0.942938,-5.718635,9.587036,-0.867121,-0.154709,-0.236041
52548,0.857962,-7.694905,8.721473,-0.615870,-0.202904,-0.188950
52549,0.863876,-7.876743,8.289505,-0.124420,-0.252694,-0.171474
52550,1.291381,-7.305503,8.342137,0.255411,-0.277095,-0.109771
52551,1.543893,-6.617490,8.724535,0.475165,-0.219477,-0.047306
52552,1.162488,-5.727147,8.431680,0.566019,-0.200815,-0.012635
52553,1.114557,-4.600740,8.012327,0.596381,-0.268165,-0.002498
52554,1.587801,-3.762046,8.573188,0.449253,-0.227000,0.011095
52555,1.393125,-3.626124,8.549278,0.141818,-0.172577,0.035434
52556,1.198465,-4.066868,8.661412,-0.145881,-0.138273,0.058309
52557,1.112126,-5.052878,8.957374,-0.327487,-0.089323,0.082329
52558,1.000403,-5.567480,9.258147,-0.320952,-0.033809,0.087365
52559,1.125336,-5.659210,9.384458,-0.254339,-0.048354,0.109069
52560,1.469565,-5.865026,9.663521,-0.246920,-0.025402,0.186663
52561,1.489353,-6.010562,10.268834,-0.292166,0.007450,0.267811
52562,1.178505,-6.359502,10.530777,-0.386759,-0.000470,0.361566
52563,1.018277,-7.173867,9.950971,-0.413174,-0.061437,0.482158
52564,1.202010,-8.063004,9.349830,-0.259736,-0.124659,0.601683
52565,1.345949,-8.837182,8.634852,0.013750,-0.211185,0.754849
52566,1.391011,-8.790127,7.576305,0.316249,-0.365903,0.953083
52567,1.349206,-8.001702,6.839589,0.565860,-0.527648,1.131034
52568,1.741231,-7.905291,6.855809,0.750591,-0.622588,1.360988
52569,2.105547,-8.143362,7.042979,0.941634,-0.620457,1.650757
52570,2.354079,-7.828042,6.804611,1.081561,-0.658068,1.917596
52571,2.755789,-7.044710,6.672362,1.005767,-0.698970,2.178333
52572,2.933384,-5.988217,6.760054,0.743677,-0.679991,2.374686
52573,2.537398,-5.133635,6.990838,0.328169,-0.656192,2.477062
52574,1.937234,-4.833391,7.587842,-0.006695,-0.674960,2.515000
52575,1.624025,-4.839833,8.467926,-0.252556,-0.676929,2.489260
52576,1.504712,-4.947067,9.334897,-0.421847,-0.668587,2.466847
52577,1.491769,-4.834455,9.619812,-0.608483,-0.683596,2.439036
52578,1.738086,-4.989872,9.554830,-0.807261,-0.698726,2.428885
52579,1.761672,-5.471720,9.235206,-0.938095,-0.708062,2.437370
52580,1.640348,-5.953399,8.482856,-0.951522,-0.756347,2.449029
52581,1.669499,-6.226980,7.856703,-0.858068,-0.845373,2.469202
52582,2.066919,-6.372857,7.764830,-0.745022,-0.893341,2.526270
52583,2.451656,-6.430725,8.082119,-0.695753,-0.918399,2.610994
52584,2.650193,-6.489744,8.290385,-0.692539,-0.940181,2.707264
52585,2.674309,-6.495413,8.510539,-0.743172,-0.966302,2.803776
52586,2.598056,-6.412675,8.694926,-0.788998,-1.003152,2.888761
52587,2.412787,-6.461930,8.671957,-0.851120,-1.057857,2.952237
52588,2.379808,-6.720200,8.587585,-0.902020,-1.105553,3.015513
52589,2.345165,-7.036193,8.569705,-0.926068,-1.133058,3.084026
52590,2.138964,-7.211601,8.168861,-0.915753,-1.192233,3.133863
52591,1.869168,-7.390238,7.333593,-0.870768,-1.289906,3.173702
52592,1.773082,-7.600697,6.530313,-0.773375,-1.411817,3.218718
52593,1.567060,-7.991505,5.675505,-0.604431,-1.551286,3.254761
52594,1.717799,-8.583584,5.549535,-0.254067,-1.657878,3.279674
52595,1.856305,-8.615560,6.475924,0.271154,-1.669410,3.282216
52596,1.954674,-7.619916,7.617160,0.754784,-1.668122,3.278919
52597,2.026319,-5.514053,8.482682,1.045089,-1.643797,3.263797
52598,1.889660,-3.491905,8.952847,0.897812,-1.613388,3.255828
52599,1.759276,-2.529392,9.309069,0.374638,-1.571058,3.262726
52600,1.593716,-3.314704,9.302626,-0.195761,-1.500168,3.249205
52601,1.376733,-4.821713,9.130901,-0.476203,-1.436575,3.214335
52602,1.211958,-5.992477,8.906441,-0.414683,-1.375446,3.174360
52603,1.101596,-6.109235,8.981359,-0.170755,-1.291629,3.134046
52604,1.114982,-5.123576,8.931873,0.020132,-1.229754,3.094734
52605,1.251121,-3.864655,9.479021,0.008398,-1.141642,3.053743
52606,0.981775,-2.978031,9.812544,-0.213637,-1.069993,3.010733
52607,0.677398,-2.492574,9.646287,-0.513902,-1.025132,2.937666
52608,0.303773,-2.472615,9.588207,-0.840843,-0.996649,2.849581
52609,0.138269,-2.861950,9.411449,-1.079335,-0.967953,2.761870
52610,-0.023720,-3.388837,8.865518,-1.208780,-0.940315,2.659990
52611,-0.288185,-4.251998,8.386321,-1.126622,-0.942865,2.546702
52612,-0.511717,-5.373063,8.078081,-0.927022,-0.992034,2.443043
52613,-0.348170,-6.031111,8.093422,-0.626411,-1.023688,2.366287
52614,0.009155,-6.009599,8.703539,-0.449926,-1.069977,2.319490
52615,0.640128,-6.068355,9.411308,-0.440619,-1.104206,2.332452
52616,0.781577,-6.772713,9.162428,-0.465766,-1.124003,2.355804
52617,0.359125,-7.371890,7.928577,-0.363314,-1.193293,2.385666
52618,0.023868,-7.151604,6.961958,-0.180786,-1.271729,2.398830
52619,-0.252003,-6.528563,6.178018,-0.020505,-1.321158,2.368533
52620,-0.672751,-6.400833,5.193841,0.120320,-1.428745,2.320748
52621,-0.168217,-6.745091,5.769592,0.343163,-1.506469,2.319640
52622,0.343969,-6.813753,7.548464,0.611775,-1.354871,2.376360
52623,0.036987,-6.123073,9.373828,0.906494,-1.173112,2.393136
52624,-0.000073,-5.024829,10.410576,1.089262,-1.010305,2.393067
52625,0.142745,-3.559430,11.159068,1.072738,-0.822108,2.386113
52626,0.122961,-2.968450,10.604499,0.713964,-0.717760,2.429408
52627,-0.103930,-3.568267,9.072888,0.336919,-0.697996,2.461586
52628,-0.813220,-4.258020,8.178221,0.114981,-0.733401,2.462971
52629,-1.787396,-4.096668,7.937754,-0.018487,-0.836521,2.428182
52630,-2.126820,-3.458903,7.941776,-0.247346,-0.977079,2.403624
52631,-1.850959,-3.544205,8.162170,-0.527477,-1.079029,2.367065
52632,-1.522192,-4.647077,8.170062,-0.685024,-1.148877,2.344682
52633,-1.309196,-5.798562,8.114109,-0.534137,-1.184569,2.347379
52634,-1.142975,-6.297872,8.214554,-0.154526,-1.201994,2.345051
52635,-0.724412,-5.661348,8.748130,0.298915,-1.137479,2.333983
52636,-0.554347,-4.374733,9.261352,0.640979,-1.040234,2.303639
52637,-0.460939,-3.033837,9.855206,0.815859,-0.888900,2.248321
52638,-0.609001,-1.710155,10.610958,0.830688,-0.707869,2.145844
52639,-0.783356,-0.493009,10.861765,0.675472,-0.540589,2.038963
52640,-0.916881,0.191406,11.131069,0.358403,-0.371767,1.938187
52641,-1.071381,-0.060810,10.963005,-0.023970,-0.215750,1.842694
52642,-1.287136,-1.309158,10.234300,-0.231045,-0.114610,1.760441
52643,-1.548339,-2.761973,9.071579,-0.222522,-0.050208,1.660733
52644,-1.904147,-3.866376,8.076719,-0.049560,-0.062195,1.597880
52645,-2.121909,-3.928509,7.858639,0.072581,-0.109914,1.571512
52646,-2.351890,-3.201886,8.045614,0.001862,-0.170987,1.560589
52647,-2.508720,-2.659235,7.966431,-0.355889,-0.259831,1.555800
52648,-2.592383,-2.815992,7.595053,-0.850406,-0.376743,1.587061
52649,-2.489379,-3.371118,7.073606,-1.277198,-0.512476,1.612845
52650,-2.452554,-4.364278,6.699737,-1.522883,-0.668502,1.641028
52651,-2.573630,-5.125213,6.552090,-1.492348,-0.828001,1.642932
52652,-2.600035,-5.844838,6.309112,-1.328641,-0.991065,1.664739
52653,-2.497600,-6.680200,6.284259,-0.998295,-1.129501,1.694020
52654,-2.166049,-6.692567,7.174109,-0.530558,-1.201568,1.688865
52655,-1.656117,-5.664519,8.403825,-0.089389,-1.191740,1.683202
52656,-1.206594,-3.994134,9.850434,0.188650,-1.104521,1.660417
52657,-0.862842,-2.442690,11.051865,0.120351,-0.955092,1.643826
52658,-0.991371,-1.387728,11.319672,-0.173915,-0.792783,1.618115
52659,-1.304061,-1.033047,10.919887,-0.565348,-0.653769,1.570362
52660,-1.914629,-1.928950,9.633807,-0.848451,-0.583651,1.534393
52661,-2.477162,-3.144922,8.496747,-0.900684,-0.593612,1.474070
52662,-2.812868,-4.130829,7.816442,-0.745725,-0.650067,1.405732
52663,-2.695723,-4.186283,8.011725,-0.627024,-0.737373,1.363970
52664,-2.207029,-3.514783,8.973090,-0.706358,-0.772028,1.344142
52665,-2.149618,-2.589923,9.807974,-0.953832,-0.775972,1.290039
52666,-2.263882,-1.652537,9.519221,-1.369998,-0.825178,1.244801
52667,-2.268743,-1.671770,8.616198,-1.755654,-0.886526,1.171561
52668,-2.400835,-2.578586,7.635466,-1.919238,-0.996308,1.053475
52669,-2.468746,-4.271773,7.266650,-1.776147,-1.136129,0.965622
52670,-2.275046,-5.603948,7.966899,-1.330818,-1.189157,0.876110
52671,-1.558478,-5.286663,9.878768,-0.731500,-1.072903,0.747591
52672,-1.035576,-5.479095,11.017792,-0.427941,-0.889950,0.692551
52673,-0.233476,-5.785551,11.936829,0.017498,-0.600909,0.683771
52674,-0.334336,-3.444624,12.830910,0.444824,-0.223076,0.514136
52675,-0.597637,-1.149558,12.567420,0.549431,0.086615,0.309614
52676,-0.884208,-0.450074,11.393754,0.307047,0.307358,0.180018
52677,-1.866803,-1.676863,8.790076,0.133885,0.405543,0.079268
52678,-2.724491,-2.887774,6.720464,0.122272,0.373041,-0.065863
52679,-3.256369,-3.227330,5.756803,-0.025728,0.197510,-0.199781
52680,-3.219226,-3.175427,5.315047,-0.359671,-0.051312,-0.251408
52681,-2.993182,-3.115965,5.755003,-0.870058,-0.270573,-0.236070
52682,-2.756135,-3.543326,6.257724,-1.397482,-0.448425,-0.206801
52683,-2.370788,-4.665956,6.619958,-1.756944,-0.567339,-0.191472
52684,-1.966595,-6.309294,6.873938,-1.793107,-0.640146,-0.154667
52685,-1.409863,-7.854224,7.881438,-1.392851,-0.613931,-0.148060
52686,-0.859659,-8.398024,9.361493,-0.736036,-0.481711,-0.154338
52687,-0.297342,-7.433830,10.536356,-0.034376,-0.247269,-0.174386
52688,0.221722,-5.621769,11.603126,0.486775,0.095747,-0.247027
52689,0.562841,-3.744264,11.991615,0.785374,0.488118,-0.381588
52690,0.804041,-2.351497,11.804679,0.892340,0.867996,-0.541751
52691,0.632133,-1.066278,10.834639,0.892659,1.216409,-0.738366
52692,-0.022994,-0.114535,9.683445,0.717968,1.445176,-0.946498
52693,-0.711282,0.150582,8.453813,0.366421,1.528687,-1.158551
52694,-1.092473,-0.897482,7.398782,-0.137072,1.508833,-1.310647
52695,-1.740749,-2.534692,6.182702,-0.390961,1.434030,-1.445204
52696,-2.479895,-3.676716,5.176308,-0.376507,1.287761,-1.597260
52697,-2.834401,-3.873763,4.844102,-0.238089,1.101222,-1.728919
52698,-2.622559,-3.296321,5.265908,-0.174897,0.941359,-1.836192
52699,-2.280653,-2.528267,5.899060,-0.225971,0.830756,-1.970718
52700,-1.962624,-2.068116,6.398041,-0.321408,0.730237,-2.140230
52701,-1.294387,-2.666751,6.674663,-0.388073,0.667585,-2.300096
52702,-0.977418,-3.585180,6.725362,-0.335105,0.661800,-2.419164
52703,-0.474509,-4.503206,7.438827,-0.267217,0.691406,-2.494616
52704,0.313884,-5.276693,8.217237,-0.268878,0.782547,-2.496117
52705,0.660573,-4.944151,9.167794,-0.391770,0.935103,-2.483793
52706,0.617691,-4.890323,9.574749,-0.828238,1.078520,-2.414186
52707,0.257247,-5.909022,8.709788,-1.403979,1.212847,-2.275396
52708,-0.428445,-7.982627,6.954345,-1.856180,1.284822,-2.093261
52709,-1.116494,-10.639992,5.110505,-1.852779,1.249544,-1.901423
52710,-1.783439,-12.789722,3.751967,-1.510119,1.156387,-1.693522
52711,-2.155530,-12.762558,3.597112,-0.846860,1.031137,-1.583678
52712,-2.295868,-10.662318,3.941265,-0.443902,0.836631,-1.462494
52713,-2.276917,-8.273553,4.343361,-0.370220,0.639271,-1.364903
52714,-2.123584,-6.637122,5.166252,-0.667107,0.469627,-1.310665
52715,-1.840433,-6.289791,5.685032,-1.013411,0.323594,-1.296300
52716,-1.419511,-6.951174,6.213774,-1.069531,0.254805,-1.316417
52717,-0.957378,-7.822143,7.115202,-0.770526,0.292124,-1.349154
52718,-0.800269,-7.940554,7.528969,-0.269118,0.416897,-1.387284
52719,-0.623790,-7.069148,8.031341,0.260870,0.573261,-1.461881
52720,-0.287101,-5.438842,8.810721,0.603567,0.790928,-1.586329
52721,0.153825,-3.487345,9.579472,0.566011,1.011170,-1.702444
52722,1.006577,-1.853543,9.737822,-0.078833,1.249605,-1.761284
52723,1.741914,-1.495219,8.635216,-1.102773,1.499182,-1.749305
52724,1.847332,-2.877510,7.418979,-2.080973,1.688677,-1.751844
52725,1.266328,-5.496844,5.645801,-2.730216,1.779765,-1.734445
52726,0.328517,-8.599154,3.362196,-2.742950,1.738275,-1.694667
52727,-0.510948,-10.742229,1.951959,-2.165788,1.605204,-1.740060
52728,-0.990236,-11.370654,1.183448,-1.414204,1.386559,-1.813332
52729,-0.886813,-10.872166,0.836735,-0.879630,1.095914,-1.790639
52730,-0.602399,-9.070826,1.571859,-0.573427,0.813857,-1.827666
52731,-0.539779,-7.066375,2.347806,-0.639671,0.503946,-1.906417
52732,-0.671652,-5.723396,2.278750,-0.994368,0.154685,-1.970031
52733,0.030206,-6.166436,2.395651,-1.456330,-0.105706,-1.979321
52734,0.640579,-8.107394,2.672961,-1.683272,-0.223958,-1.972039
52735,1.127703,-10.316986,3.298091,-1.548560,-0.233077,-1.940687
52736,1.424064,-11.744966,4.296338,-1.057503,-0.120812,-1.906759
52737,1.466421,-11.862264,5.363067,-0.442953,0.083048,-1.864360
52738,1.375967,-10.521559,6.226529,0.005668,0.297394,-1.814214
52739,1.489318,-8.192477,6.636249,0.039380,0.491674,-1.776635
52740,1.997010,-6.077087,6.640526,-0.456186,0.673595,-1.741914
52741,2.479736,-5.259552,6.406245,-1.283839,0.814229,-1.698141
52742,2.508933,-6.644580,5.279996,-2.100252,0.917556,-1.653221
52743,2.012274,-9.680266,3.550394,-2.556412,0.889454,-1.568430
52744,1.840950,-12.399432,2.399493,-2.397600,0.802231,-1.537370
52745,1.806470,-13.981144,1.531961,-1.868294,0.656523,-1.552015
52746,1.995126,-14.876310,0.541295,-1.256094,0.457848,-1.500351
52747,2.067266,-14.002502,0.664237,-0.625161,0.377356,-1.511060
52748,0.942204,-11.014213,1.055040,-0.307534,0.160809,-1.548849
52749,-0.089846,-7.997483,0.524429,-0.341743,-0.208739,-1.657034
52750,-0.011708,-7.203065,0.272987,-0.582268,-0.678370,-1.704426
52751,1.042919,-8.351869,0.263264,-0.632886,-0.940929,-1.677167
52752,1.826574,-9.542416,1.184706,-0.468270,-1.119413,-1.639467
52753,2.634274,-9.978029,2.919137,-0.247571,-1.112499,-1.572745
52754,2.758414,-9.429982,4.653760,-0.131679,-0.985031,-1.523369
52755,2.536696,-8.309121,5.319863,-0.267433,-0.838866,-1.501388
52756,2.494721,-6.642154,5.715006,-0.473395,-0.643294,-1.588715
52757,2.881358,-5.125461,6.301251,-0.887452,-0.474847,-1.670572
52758,3.135795,-5.654577,5.356413,-1.431123,-0.354326,-1.666950
52759,3.536011,-7.573716,4.648804,-1.611465,-0.243726,-1.696274
52760,3.666262,-9.710304,3.355123,-1.437236,-0.218670,-1.711740
52761,3.965765,-11.079986,2.471388,-0.862910,-0.267980,-1.740572
52762,4.374369,-11.054164,2.430490,-0.298709,-0.332133,-1.739128
52763,4.676153,-9.844528,2.774281,0.041395,-0.431210,-1.711543
52764,4.882244,-8.396478,3.029629,0.091399,-0.544972,-1.715959
52765,5.109853,-7.821999,2.991485,-0.105971,-0.633214,-1.688035
52766,5.429737,-8.018753,3.377964,-0.326598,-0.636108,-1.659559
52767,5.619307,-8.147804,3.700623,-0.458349,-0.573168,-1.660852
52768,5.489194,-7.637059,3.274223,-0.512298,-0.544957,-1.688650
52769,5.613867,-7.174708,2.825266,-0.553766,-0.513458,-1.697777
52770,5.740573,-7.079194,2.394957,-0.573367,-0.456428,-1.706207
52771,5.935715,-7.498076,2.236396,-0.550533,-0.358226,-1.688540
52772,5.957938,-7.766857,2.286835,-0.466860,-0.217633,-1.666010
52773,6.027340,-7.669399,2.348956,-0.385795,-0.096795,-1.663624
52774,6.020569,-7.036369,2.156560,-0.372107,-0.005635,-1.684503
52775,6.245166,-6.126131,2.662740,-0.491596,0.064732,-1.776378
52776,6.890744,-5.498772,3.892358,-0.771587,0.162446,-1.880120
52777,6.887647,-6.809260,3.306723,-1.125242,0.210980,-1.874091
52778,7.009033,-8.807825,2.599902,-1.126242,0.189913,-1.879886
52779,6.921125,-10.466368,1.371329,-0.854001,0.123378,-1.852772
52780,7.159633,-10.420961,0.874304,-0.429934,-0.019314,-1.824295
52781,7.401485,-9.329411,0.311766,-0.166080,-0.239244,-1.768270
52782,7.958942,-8.500409,0.659508,-0.023460,-0.397714,-1.684045
52783,7.865944,-7.738483,1.192842,0.062394,-0.447458,-1.630272
52784,7.336156,-6.473482,0.949573,0.105297,-0.557029,-1.638874
52785,7.832660,-5.723361,1.380175,0.010715,-0.631084,-1.599176
52786,8.395169,-5.793211,1.842484,-0.166277,-0.509056,-1.513396
52787,8.304973,-6.434709,2.427436,-0.332495,-0.328016,-1.451039
52788,7.829146,-6.848159,3.439480,-0.380940,-0.098900,-1.413414
52789,7.276683,-6.498182,4.233532,-0.394145,0.126551,-1.406654
52790,6.455993,-6.120358,3.137475,-0.468694,0.251710,-1.389368
52791,6.054699,-5.766744,1.732396,-0.610248,0.305331,-1.395969
52792,6.190432,-5.216822,1.179834,-0.806090,0.298509,-1.451717
52793,7.008370,-4.927639,1.616503,-1.051162,0.251866,-1.488875
52794,7.931587,-5.066073,2.998992,-1.268118,0.288331,-1.513101
52795,8.444003,-5.646057,4.346306,-1.382384,0.352289,-1.519382
52796,8.315842,-7.174089,3.564835,-1.326072,0.322937,-1.465587
52797,8.409057,-8.746407,2.262631,-0.885132,0.259694,-1.391939
52798,7.929838,-8.812375,1.114799,-0.265510,0.247784,-1.366945
52799,7.470833,-7.032855,0.514264,0.158401,0.126246,-1.371994
52800,8.342229,-5.077559,1.077833,0.205379,-0.010788,-1.404285
52801,9.370308,-3.779793,1.522967,-0.028572,-0.043229,-1.483259
52802,10.294908,-3.523149,1.417205,-0.420548,-0.007541,-1.401198
52803,10.427642,-4.583069,0.834683,-0.655331,0.117004,-1.297145
52804,10.046290,-5.223171,0.586318,-0.698130,0.255983,-1.225595
52805,9.419414,-5.207861,0.565646,-0.702898,0.364927,-1.179193
52806,8.859030,-4.679031,1.331831,-0.764479,0.460868,-1.135576
52807,8.325276,-4.031037,1.814874,-0.944582,0.513680,-1.135064
52808,8.221348,-4.288142,1.099391,-1.158143,0.452927,-1.122183
52809,8.739649,-4.787779,0.311490,-1.279280,0.348422,-1.119072
52810,9.695714,-4.943513,0.409361,-1.286628,0.216623,-1.136029
52811,10.589490,-4.606222,1.718736,-1.300014,0.158650,-1.131757
52812,10.690180,-4.799218,2.441713,-1.342419,0.156030,-1.069911
52813,10.273969,-5.809636,2.308564,-1.221024,0.115299,-0.959877
52814,9.947039,-6.750256,1.785507,-0.847749,0.089201,-0.840018
52815,9.197798,-6.391260,1.098297,-0.289412,0.081832,-0.798801
52816,8.720370,-4.997898,0.638524,0.092831,0.028728,-0.788613
52817,9.172499,-3.660648,1.254920,0.127524,-0.010623,-0.768837
52818,10.112493,-3.113310,1.722048,-0.032298,-0.021967,-0.762730
52819,10.790436,-3.368316,1.482095,-0.086380,0.029527,-0.750219
52820,10.562131,-3.713157,1.050078,-0.005586,0.159286,-0.699842
52821,9.699969,-3.456051,0.775031,0.149851,0.234435,-0.668605
52822,9.239434,-2.743804,1.417879,0.222925,0.289058,-0.693977
52823,8.975341,-1.954188,2.494077,0.130761,0.365914,-0.755782
52824,9.023479,-1.507322,3.130385,-0.143427,0.371056,-0.790052
52825,9.044449,-2.417284,2.233610,-0.408062,0.320574,-0.798246
52826,9.597845,-3.479909,1.523018,-0.440925,0.247846,-0.832006
52827,10.315506,-4.144620,1.172807,-0.287565,0.173520,-0.852790
52828,10.728765,-4.260039,1.317361,-0.059557,0.085412,-0.828638
52829,10.948884,-4.469118,1.376953,0.184780,-0.041631,-0.738071
52830,10.966235,-4.599579,1.041782,0.478380,-0.127842,-0.632286
52831,10.724849,-4.064504,0.636549,0.769467,-0.208576,-0.539089
52832,10.199346,-2.981783,0.520794,0.989190,-0.273002,-0.500995
52833,9.828183,-1.866902,1.097729,0.939798,-0.299061,-0.489718
52834,9.880493,-1.178157,0.781871,0.683319,-0.341584,-0.503667
52835,10.634121,-0.895223,0.196288,0.452761,-0.312166,-0.514619
52836,10.799436,-1.362203,0.514564,0.328110,-0.146441,-0.457209
52837,10.309017,-1.768310,1.084973,0.401299,-0.028151,-0.415156
52838,9.742280,-1.065170,1.963148,0.394992,0.092685,-0.381786
52839,9.236134,0.162910,2.939618,0.147012,0.168814,-0.437704
52840,9.193229,0.840542,2.895966,-0.387788,0.135116,-0.416122
52841,9.100920,-0.434058,1.732834,-0.919040,0.077343,-0.366046
52842,9.332122,-2.212417,0.893305,-1.083665,0.002481,-0.358111
52843,9.662211,-3.856205,0.710874,-0.915850,-0.042829,-0.357346
52844,9.917224,-4.347893,1.262040,-0.487101,-0.039671,-0.400650
52845,10.094713,-3.871146,2.077064,-0.110506,-0.048618,-0.376680
52846,10.236479,-3.260937,2.433447,0.151303,-0.023530,-0.327166
52847,9.949833,-2.638108,1.973136,0.308077,-0.016043,-0.271341
52848,9.633285,-1.783805,1.340288,0.375600,-0.035473,-0.250657
52849,9.703627,-1.033100,1.391510,0.260243,-0.052746,-0.230366
52850,9.788991,-0.675564,1.785870,-0.039327,-0.041037,-0.205288
52851,9.811586,-0.562288,1.517994,-0.374668,-0.028642,-0.179443
52852,9.799880,-1.022131,0.880194,-0.619163,-0.019680,-0.162685
52853,9.785220,-2.066850,0.326934,-0.737045,-0.014325,-0.113215
52854,9.782936,-3.220279,0.232915,-0.658221,0.002646,-0.045304
52855,9.651940,-3.785306,0.329610,-0.403921,0.024391,-0.011112
52856,9.567661,-3.618763,0.856801,-0.129977,0.024379,0.010370
52857,9.529087,-2.989324,1.329565,0.084331,0.010107,0.017282
52858,9.610096,-2.301991,1.527052,0.169170,-0.013521,0.011110
52859,9.716820,-2.035225,1.407335,0.157458,-0.044277,0.019581
52860,9.882434,-2.233186,1.364029,0.148379,-0.070640,0.038336
52861,9.926627,-2.198895,1.405617,0.168746,-0.077832,0.054796
52862,9.908203,-2.038889,1.483144,0.149658,-0.078537,0.074509
52863,9.801752,-1.799179,1.578467,0.086615,-0.077391,0.105117
52864,9.809566,-1.594682,1.586250,-0.006993,-0.074266,0.121146
52865,9.778478,-1.535521,1.470491,-0.101386,-0.059772,0.131231
52866,9.766539,-1.580071,1.418425,-0.173435,-0.051503,0.130559
52867,9.777149,-1.650679,1.364972,-0.219281,-0.031774,0.122182
52868,9.783698,-1.699825,1.299837,-0.245536,-0.013934,0.105184
52869,9.801715,-1.808752,1.273382,-0.252906,-0.003595,0.084492
52870,9.856482,-1.844898,1.352410,-0.236737,0.010701,0.062441
52871,9.820840,-1.867017,1.433481,-0.210243,0.022528,0.052265
52872,9.677429,-2.041650,1.389170,-0.143549,0.016534,0.044901
52873,9.583027,-2.097892,1.284590,-0.043598,0.007015,0.043550
52874,9.548390,-2.010556,1.207517,0.063235,-0.003064,0.044702
52875,9.607389,-1.776757,1.199950,0.146185,-0.021724,0.039977
52876,9.655184,-1.581038,1.272742,0.172504,-0.035897,0.030833
52877,9.711595,-1.509947,1.277358,0.150522,-0.044911,0.023657
52878,9.776285,-1.564335,1.214803,0.119901,-0.041152,0.018394
52879,9.897272,-1.641709,1.192870,0.092820,-0.043764,0.019830
52880,9.920458,-1.662350,1.103767,0.076602,-0.042987,0.021288
52881,9.916470,-1.649488,1.172680,0.058925,-0.036483,0.021744
52882,9.799523,-1.595011,1.202021,0.030838,-0.033158,0.026656
52883,9.705186,-1.658473,1.222830,0.012347,-0.027867,0.034667
52884,9.704846,-1.758597,1.297809,-0.002591,-0.027405,0.023563
52885,9.866709,-1.875673,1.343231,-0.022962,-0.030287,0.020602
52886,10.115134,-1.894589,1.381978,-0.041002,-0.019723,0.026294
52887,10.389948,-1.772186,1.361313,-0.067100,-0.009296,0.023281
52888,10.382175,-1.643553,1.341030,-0.117561,0.001139,0.022480
52889,10.163337,-1.607633,1.327229,-0.175805,0.001579,0.023831
52890,9.854008,-1.740946,1.299175,-0.214401,0.002513,0.016641
52891,9.586063,-2.087236,1.238329,-0.198641,-0.010565,0.014456
52892,9.416258,-2.392121,1.165741,-0.123820,-0.015865,0.006346
52893,9.393731,-2.548820,1.149251,-0.004600,-0.022683,-0.007842
52894,9.292804,-2.562122,1.105117,0.136620,-0.017172,-0.031200
52895,9.328079,-2.539643,0.982764,0.264874,-0.017915,-0.044251
52896,9.405015,-2.377123,1.029743,0.388197,-0.018138,-0.070924
52897,9.538742,-2.136386,1.041195,0.478968,-0.017843,-0.085761
52898,9.634398,-1.793972,1.129852,0.535909,-0.008103,-0.098959
52899,9.631666,-1.486808,1.185716,0.527916,0.002483,-0.106111
52900,9.489707,-1.365243,1.170984,0.461039,0.001386,-0.109016
52901,9.396868,-1.316957,1.164352,0.383422,-0.000307,-0.111227
52902,9.368371,-1.331293,1.223628,0.307918,-0.004271,-0.116925
52903,9.457220,-1.402149,1.251283,0.243436,0.000087,-0.122400
52904,9.527349,-1.465577,1.251088,0.192537,0.005395,-0.120465
52905,9.530002,-1.537275,1.123837,0.161344,0.013466,-0.127149
52906,9.529846,-1.684291,1.064003,0.152514,0.007004,-0.121527
52907,9.542684,-1.639731,1.111323,0.170181,0.014524,-0.126537
52908,9.612149,-1.613601,1.158396,0.177775,0.014386,-0.122569
52909,9.636942,-1.625334,1.161885,0.179089,0.017974,-0.125931
52910,9.630503,-1.575494,1.266636,0.167089,0.023000,-0.129456
52911,9.670122,-1.572607,1.242967,0.149041,0.026736,-0.126434
52912,9.671675,-1.560102,1.290100,0.129290,0.028904,-0.124610
52913,9.734100,-1.586321,1.350413,0.106123,0.037277,-0.122529
52914,9.752181,-1.651008,1.324915,0.082084,0.034886,-0.105943
52915,9.729973,-1.616114,1.373107,0.063922,0.047694,-0.090564
52916,9.726414,-1.588464,1.407157,0.032553,0.045628,-0.080622
52917,9.688953,-1.568421,1.398530,-0.003976,0.057525,-0.069009
52918,9.657492,-1.662029,1.443172,-0.027603,0.058330,-0.064377
52919,9.641442,-1.738180,1.333533,-0.039711,0.070374,-0.065103
52920,9.597639,-1.771270,1.296377,-0.029502,0.077865,-0.067318
52921,9.639936,-1.797094,1.331365,-0.017771,0.086988,-0.075297
52922,9.669983,-1.761060,1.284348,-0.007131,0.090292,-0.082687
52923,9.726964,-1.771930,1.335822,-0.003155,0.103822,-0.092287
52924,9.692796,-1.838881,1.244492,0.002144,0.101979,-0.100865
52925,9.707190,-1.884996,1.168772,0.013479,0.110382,-0.096771
52926,9.693310,-1.888255,1.164715,0.031407,0.099249,-0.100117
52927,9.727631,-1.870906,1.175706,0.046561,0.099400,-0.091756
52928,9.708879,-1.856342,1.200175,0.053531,0.096374,-0.082520
52929,9.710884,-1.775957,1.183812,0.039045,0.086675,-0.065627
52930,9.682105,-1.796406,1.162929,0.013850,0.078496,-0.048359
52931,9.711405,-1.764850,1.157327,-0.006533,0.070315,-0.034416
52932,9.716018,-1.780940,1.134948,-0.022339,0.064218,-0.021230
52933,9.695927,-1.845006,1.095832,-0.036380,0.057301,0.000209
52934,9.695259,-1.845777,1.100428,-0.024979,0.049184,0.008748
52935,9.699282,-1.726157,1.235407,-0.016560,0.050278,0.005303
52936,9.671616,-1.680615,1.184525,-0.019418,0.052205,0.007301
52937,9.639007,-1.616774,1.162076,-0.039287,0.049520,0.009103
52938,9.624019,-1.631112,1.151059,-0.056708,0.044582,0.004416
52939,9.604032,-1.696680,1.109318,-0.064403,0.037196,0.000075
52940,9.637213,-1.689924,1.112869,-0.048995,0.037763,0.006036
52941,9.742890,-1.546578,1.206998,-0.048345,0.035974,0.007906
52942,9.718882,-1.452951,1.268883,-0.082344,0.043271,0.010085
52943,9.685492,-1.391936,1.286892,-0.130470,0.039132,0.016955
52944,9.683878,-1.466287,1.271730,-0.178250,0.035654,0.004551
52945,9.773452,-1.715982,1.322021,-0.223030,0.046689,-0.000264
52946,9.777109,-2.113429,1.223331,-0.225382,0.060817,-0.000974
52947,9.627631,-2.228361,1.146408,-0.155924,0.057206,-0.008397
52948,9.554543,-1.990093,1.171978,-0.049015,0.054550,-0.015080
52949,9.538715,-1.697684,1.259065,0.027306,0.046272,-0.036465
52950,9.558773,-1.488769,1.385764,0.055099,0.037792,-0.039024
52951,9.610648,-1.414770,1.478192,0.030567,0.023225,-0.029769
52952,9.662692,-1.411576,1.509771,-0.006510,0.015389,-0.018910
52953,9.661861,-1.481904,1.493600,-0.044486,0.011397,-0.007361
52954,9.657901,-1.532157,1.420629,-0.066903,0.001123,0.007652
52955,9.672182,-1.590807,1.375131,-0.080465,-0.000436,0.016812
52956,9.720235,-1.712132,1.270429,-0.074999,-0.014365,0.029323
52957,9.746568,-1.832724,1.263550,-0.065042,-0.009617,0.036839
52958,9.691791,-1.841965,1.316553,-0.048561,-0.008113,0.049326
52959,9.709194,-1.785197,1.403123,-0.039393,-0.003922,0.047917
52960,9.738890,-1.691768,1.407379,-0.052966,-0.000611,0.050083
52961,9.709396,-1.654145,1.436211,-0.069063,0.007353,0.051698
52962,9.656490,-1.729595,1.346380,-0.085693,0.007809,0.048743
52963,9.629910,-1.783464,1.371067,-0.091420,0.011572,0.052663
52964,9.596256,-1.794858,1.327362,-0.080719,0.015017,0.045473
52965,9.569656,-1.847746,1.352739,-0.063205,0.015567,0.040714
52966,9.602377,-1.844886,1.354334,-0.052498,0.014127,0.040512
52967,9.629942,-1.892913,1.324833,-0.033402,0.006555,0.043941
52968,9.609731,-1.891718,1.338920,-0.011741,0.006563,0.034058
52969,9.656994,-1.874841,1.355711,0.010314,0.001916,0.035589
52970,9.628884,-1.832534,1.344163,0.029068,0.010580,0.037350
52971,9.657854,-1.807901,1.333487,0.025956,0.005345,0.032212
52972,9.619513,-1.798433,1.319631,0.025603,-0.002343,0.041662
52973,9.634268,-1.786909,1.292865,0.022941,0.000005,0.034076
52974,9.655865,-1.817576,1.334737,0.025207,-0.002614,0.037184
52975,9.639797,-1.835527,1.362178,0.025556,0.000145,0.034659
52976,9.571687,-1.853639,1.360247,0.029258,0.001161,0.041613
