// Start Time: Unknown
// Update Rate: 100.0Hz
// Filter Profile: human (46.1)
// Firmware Version: 4.3.5
PacketCounter,Acc_X,Acc_Y,Acc_Z,Gyr_X,Gyr_Y,Gyr_Z
52082,9.745580,0.374055,1.244496,0.026829,0.015228,-0.004832
52083,9.736469,0.363619,1.226095,0.019090,0.015893,-0.003218
52084,9.745147,0.375009,1.247601,0.009863,0.019585,0.001246
52085,9.775437,0.337581,1.256350,0.002474,0.010189,0.000031
52086,9.774373,0.326341,1.204121,0.000109,0.014361,0.001275
52087,9.808865,0.359417,1.231455,-0.002065,0.014656,0.002602
52088,9.826454,0.381330,1.272714,-0.004772,0.017462,0.003083
52089,9.789949,0.317994,1.265844,-0.006981,0.015451,0.001417
52090,9.758423,0.344112,1.206521,-0.001759,0.013716,0.000374
52091,9.748574,0.314458,1.259002,0.009176,0.016855,-0.000270
52092,9.740376,0.314693,1.293975,0.018321,0.012536,0.000578
52093,9.785048,0.247642,1.252761,0.013714,0.012388,-0.002838
52094,9.794568,0.277777,1.202932,0.021142,0.012667,-0.002212
52095,9.731812,0.323460,1.206837,0.027694,0.014091,-0.003193
52096,9.772632,0.327433,1.217881,0.023004,0.013316,-0.001304
52097,9.781322,0.338774,1.239043,0.011568,0.014996,0.001481
52098,9.765937,0.357676,1.236506,0.014243,0.009881,-0.001988
52099,9.765788,0.358114,1.237553,0.010320,0.012464,-0.003882
52100,9.757571,0.358693,1.272337,0.004757,0.012832,-0.003606
52101,9.750251,0.377467,1.236067,0.001477,0.008402,0.000736
52102,9.758185,0.377360,1.203440,-0.002445,0.010985,-0.001159
52103,9.754686,0.318114,1.239476,-0.001146,0.011833,-0.004092
52104,9.754537,0.318474,1.240550,0.005290,0.010322,-0.002757
52105,9.784836,0.281541,1.249149,0.009444,0.013609,-0.005487
52106,9.784673,0.282380,1.250238,0.010598,0.009212,-0.009098
52107,9.758059,0.249879,1.191316,0.020616,0.003754,-0.006626
52108,9.770902,0.332635,1.230285,0.027000,0.011369,-0.004695
52109,9.755521,0.352075,1.227509,0.017060,0.010015,-0.004768
52110,9.741838,0.401171,1.207076,0.014206,0.007576,-0.004969
52111,9.772196,0.364294,1.215313,0.006471,0.008237,-0.003376
52112,9.774516,0.405854,1.251842,0.003929,0.004853,-0.005807
52113,9.765583,0.395364,1.232640,-0.001517,0.008152,-0.007850
52114,9.761388,0.325366,1.214879,-0.006233,0.005063,-0.008959
52115,9.798195,0.258577,1.206900,0.003306,0.006742,-0.001349
52116,9.791688,0.289200,1.223512,0.015137,0.004747,-0.011651
52117,9.785151,0.320252,1.240190,0.012116,0.008497,-0.008949
52118,9.759311,0.299068,1.234728,0.010788,0.005337,-0.009007
52119,9.762558,0.359513,1.200176,0.012312,0.004619,-0.008861
52120,9.771279,0.371590,1.220460,0.004576,0.005278,-0.007271
52121,9.755935,0.391061,1.217233,-0.007758,0.005778,-0.009106
52122,9.779873,0.384616,1.241425,-0.006147,0.005681,-0.014265
52123,9.754002,0.363559,1.236198,-0.013742,0.011585,-0.011999
52124,9.810004,0.349440,1.251237,-0.017329,0.015532,-0.013136
52125,9.775294,0.317028,1.226647,-0.017782,0.011231,-0.011584
52126,9.764680,0.277147,1.225356,-0.015946,0.009570,-0.013666
52127,9.785387,0.360220,1.231177,-0.014310,0.011788,-0.015833
52128,9.810878,0.383901,1.238506,-0.012137,0.011495,-0.017152
52129,9.802505,0.385789,1.273408,-0.007338,0.015214,-0.021340
52130,9.810376,0.387550,1.241345,-0.012027,0.014433,-0.019461
52131,9.771447,0.426864,1.268703,-0.016091,0.011766,-0.022038
52132,9.794617,0.410085,1.240184,-0.013581,0.012843,-0.022593
52133,9.762116,0.420140,1.251755,-0.008024,0.019928,-0.030553
52134,9.733884,0.359707,1.211471,-0.007488,0.017419,-0.029704
52135,9.757590,0.355196,1.236832,0.002760,0.017850,-0.031843
52136,9.777496,0.280071,1.243725,0.004619,0.018503,-0.030932
52137,9.808848,0.264231,1.182108,0.010406,0.016580,-0.028121
52138,9.832584,0.259666,1.207511,0.011723,0.019745,-0.028055
52139,9.832255,0.262215,1.209631,0.000299,0.023706,-0.022308
52140,9.779382,0.350151,1.216595,0.003350,0.022275,-0.022015
52141,9.822039,0.397087,1.264724,-0.000040,0.022340,-0.023067
52142,9.733692,0.432895,1.316384,-0.017717,0.021602,-0.021580
52143,9.763499,0.386230,1.272667,-0.022092,0.019871,-0.021934
52144,9.727319,0.324679,1.265979,-0.015969,0.019320,-0.018357
52145,9.735244,0.326482,1.234338,-0.005403,0.018823,-0.022712
52146,9.733340,0.299014,1.253740,0.011078,0.021655,-0.023571
52147,9.732999,0.301728,1.255737,0.023170,0.020446,-0.027777
52148,9.724362,0.304832,1.291494,0.040643,0.027392,-0.026336
52149,9.733762,0.337581,1.243006,0.042163,0.026682,-0.026182
52150,9.776139,0.385385,1.291665,0.043151,0.030795,-0.023884
52151,9.753565,0.436726,1.306769,0.036702,0.032287,-0.025232
52152,9.783741,0.402166,1.317559,0.020568,0.033124,-0.020632
52153,9.806884,0.385456,1.291157,0.001050,0.034016,-0.017098
52154,9.781122,0.375888,1.341831,-0.004175,0.038043,-0.013091
52155,9.843498,0.332140,1.344104,-0.027835,0.047695,-0.008564
52156,9.829041,0.209108,1.274888,-0.048230,0.052041,-0.003656
52157,9.811244,0.185992,1.240232,-0.034794,0.051187,0.005900
52158,9.766435,0.293207,1.323601,-0.029246,0.062927,0.003964
52159,9.702695,0.348100,1.385625,-0.041151,0.072332,0.006539
52160,9.761178,0.402913,1.425945,-0.057332,0.080634,0.003453
52161,9.775093,0.554637,1.491958,-0.082922,0.094811,-0.003590
52162,9.807529,0.586761,1.529020,-0.128510,0.110206,0.000403
52163,9.914807,0.472903,1.497656,-0.165193,0.122916,0.002254
52164,9.960374,0.454756,1.559428,-0.179867,0.142761,0.009109
52165,9.981751,0.443542,1.599375,-0.187906,0.162424,0.006788
52166,9.976980,0.420505,1.687888,-0.186573,0.178513,0.011458
52167,9.997918,0.397864,1.677690,-0.176826,0.194408,0.013163
52168,9.995842,0.434353,1.735268,-0.158880,0.213997,0.011861
52169,10.076480,0.508105,1.799819,-0.152142,0.236607,0.014076
52170,10.159464,0.652674,1.887302,-0.151194,0.266439,0.002908
52171,10.244333,0.816967,1.908456,-0.172324,0.299148,0.004837
52172,10.333659,0.921156,1.934714,-0.210511,0.332331,0.001419
52173,10.320903,0.936114,1.935711,-0.255930,0.364416,-0.004876
52174,10.275077,0.958441,1.948837,-0.286915,0.388239,-0.014197
52175,10.216877,0.950567,2.014580,-0.304910,0.419664,-0.030396
52176,10.150082,0.972713,2.100046,-0.323473,0.454410,-0.041176
52177,10.183112,0.922930,2.216266,-0.355536,0.481046,-0.039638
52178,10.219859,0.812410,2.335170,-0.371064,0.513592,-0.040687
52179,10.221349,0.705859,2.611055,-0.380212,0.571121,-0.035873
52180,10.138675,0.671534,2.797675,-0.409529,0.626312,-0.042809
52181,10.047696,0.628456,2.823469,-0.442448,0.680212,-0.047549
52182,9.978810,0.658369,2.809818,-0.480820,0.721032,-0.058985
52183,9.868221,0.615876,2.762783,-0.515929,0.749722,-0.067877
52184,9.896750,0.435415,2.737678,-0.549941,0.775405,-0.068180
52185,9.897045,0.132637,2.695531,-0.554225,0.811073,-0.059716
52186,9.859223,-0.103510,2.663523,-0.520225,0.854564,-0.051942
52187,9.806973,-0.302979,2.703943,-0.456212,0.890031,-0.044961
52188,9.802047,-0.442090,2.843227,-0.389485,0.918306,-0.027001
52189,9.829251,-0.535875,2.927837,-0.324111,0.942088,0.000009
52190,9.858233,-0.530860,3.026319,-0.267340,0.970530,0.028796
52191,9.730889,-0.422489,3.148483,-0.220603,0.986962,0.045080
52192,9.702328,-0.333822,3.255219,-0.189563,0.995390,0.052681
52193,9.649259,-0.289725,3.386702,-0.191776,1.012897,0.068331
52194,9.584545,-0.266786,3.475105,-0.223051,1.032785,0.093542
52195,9.677532,-0.298753,3.500298,-0.251856,1.061713,0.125355
52196,9.749338,-0.278606,3.564861,-0.263463,1.085508,0.157494
52197,9.757304,-0.330794,3.672505,-0.269951,1.107679,0.189072
52198,9.693294,-0.508842,3.869688,-0.270502,1.130527,0.215870
52199,9.519292,-0.714559,4.146984,-0.257602,1.164188,0.239538
52200,9.286314,-0.905066,4.397692,-0.225461,1.204147,0.270232
52201,9.180824,-1.005449,4.514184,-0.179856,1.242662,0.304792
52202,8.943179,-1.032812,4.566270,-0.129645,1.260200,0.341010
52203,8.896226,-1.056028,4.486200,-0.099232,1.258150,0.388572
52204,9.000754,-1.207814,4.360069,-0.080516,1.260583,0.446213
52205,9.122132,-1.381077,4.347962,-0.041833,1.274748,0.505426
52206,9.213082,-1.452087,4.356452,-0.003752,1.306432,0.557988
52207,9.152399,-1.470494,4.568799,0.024694,1.328637,0.600082
52208,9.161294,-1.391285,4.845369,0.027574,1.354150,0.644155
52209,9.099947,-1.311982,4.996138,0.012473,1.387880,0.690906
52210,9.071037,-1.314136,5.124125,-0.011369,1.414867,0.735036
52211,9.003897,-1.338349,5.183597,-0.020465,1.444365,0.783146
52212,8.888146,-1.269171,5.261058,-0.027571,1.472177,0.821031
52213,8.726645,-1.138018,5.261645,-0.024935,1.469504,0.841760
52214,8.680837,-1.106842,5.297277,-0.020665,1.459962,0.865388
52215,8.656107,-1.075769,5.462587,-0.034836,1.461981,0.883744
52216,8.684070,-1.056298,5.608457,-0.062598,1.485440,0.902156
52217,8.603429,-1.065497,5.684158,-0.071716,1.505048,0.918901
52218,8.506442,-1.148607,5.812495,-0.074682,1.514122,0.925638
52219,8.429842,-1.161908,5.941904,-0.057626,1.518931,0.936262
52220,8.257688,-1.127975,6.150027,-0.058341,1.521617,0.951403
52221,8.219344,-1.400208,6.089165,-0.083326,1.508831,0.949357
52222,8.132857,-1.481346,6.056054,-0.029481,1.498173,0.950825
52223,8.041712,-1.527923,6.166849,0.029466,1.480998,0.942440
52224,7.867716,-1.556742,6.313133,0.084022,1.463001,0.928176
52225,7.778799,-1.601013,6.396629,0.130062,1.444288,0.916480
52226,7.725910,-1.598263,6.546957,0.175247,1.431194,0.903940
52227,7.581199,-1.555005,6.720995,0.216076,1.420854,0.890278
52228,7.408819,-1.566027,6.777748,0.247648,1.404831,0.876816
52229,7.255023,-1.623915,6.827635,0.274585,1.388342,0.866465
52230,7.168103,-1.629482,6.814911,0.321819,1.378299,0.842220
52231,7.036734,-1.579029,6.878038,0.367294,1.372084,0.817224
52232,6.931116,-1.527635,6.973133,0.406914,1.362962,0.789878
52233,6.857541,-1.405217,7.072111,0.424586,1.355302,0.763651
52234,6.671536,-1.391150,7.108124,0.428499,1.340168,0.738614
52235,6.558984,-1.340776,7.115879,0.460034,1.316536,0.705029
52236,6.469038,-1.314861,7.221491,0.474452,1.306148,0.683172
52237,6.445391,-1.290238,7.400764,0.468001,1.292023,0.658166
52238,6.309728,-1.351767,7.450428,0.439542,1.303159,0.641284
52239,6.056277,-1.409472,7.433842,0.437054,1.292742,0.620015
52240,5.905221,-1.455683,7.552451,0.480002,1.266459,0.598689
52241,5.813182,-1.537993,7.679396,0.503057,1.238513,0.581555
52242,5.705044,-1.601633,7.735211,0.503728,1.230113,0.566981
52243,5.501675,-1.617607,7.589604,0.515723,1.231015,0.550806
52244,5.330432,-1.608648,7.524589,0.543634,1.203332,0.526129
52245,5.184944,-1.544421,7.639495,0.568374,1.169731,0.493151
52246,5.109312,-1.438925,7.755074,0.576071,1.125449,0.469879
52247,5.149742,-1.456606,7.835025,0.570553,1.104584,0.455849
52248,5.060821,-1.536551,7.871488,0.582275,1.109099,0.438718
52249,4.872623,-1.472215,8.054064,0.595278,1.099188,0.424905
52250,4.673097,-1.481302,8.061248,0.591423,1.057950,0.414916
52251,4.644061,-1.445651,8.080890,0.603430,1.050723,0.412919
52252,4.448407,-1.431489,8.068854,0.606701,1.024391,0.409702
52253,4.401256,-1.440299,8.104438,0.615360,0.998078,0.404696
52254,4.314529,-1.427202,8.170077,0.636210,0.991617,0.391914
52255,4.154211,-1.310983,8.385331,0.629669,0.998810,0.378643
52256,3.927046,-1.197980,8.409270,0.620432,0.986682,0.357247
52257,3.835917,-1.096872,8.504036,0.590694,0.961482,0.344018
52258,3.869024,-1.237372,8.471652,0.548239,0.919421,0.362687
52259,3.867260,-1.413698,8.347247,0.576772,0.900293,0.375087
52260,3.682244,-1.318553,8.421591,0.610297,0.897982,0.362274
52261,3.542799,-1.210380,8.509924,0.619752,0.871225,0.352448
52262,3.330111,-1.092126,8.512102,0.622180,0.838931,0.340279
52263,3.128135,-1.012445,8.578703,0.632460,0.792120,0.321016
52264,3.136935,-0.937221,8.663345,0.603950,0.750615,0.317337
52265,3.246039,-0.860189,8.767566,0.566737,0.733296,0.309509
52266,3.273046,-0.824077,8.644799,0.557467,0.727502,0.314136
52267,3.137251,-0.896638,8.758778,0.550645,0.730559,0.323399
52268,2.954296,-0.963067,8.910294,0.541302,0.714968,0.325777
52269,2.941271,-0.998024,8.853209,0.527723,0.686446,0.347126
52270,2.897329,-1.093464,8.716509,0.502967,0.664231,0.369558
52271,2.900845,-1.081483,8.728722,0.492332,0.647262,0.368784
52272,2.783334,-0.887722,8.861342,0.486930,0.650000,0.358509
52273,2.601643,-0.707324,9.073844,0.491981,0.629199,0.350397
52274,2.561757,-0.512821,9.215434,0.455113,0.599379,0.354909
52275,2.599390,-0.498873,9.160609,0.384108,0.589076,0.384885
52276,2.414864,-0.727969,9.032998,0.366442,0.623459,0.408329
52277,2.415019,-1.008812,9.050482,0.385278,0.619955,0.413457
52278,2.400623,-1.097486,9.023570,0.403949,0.615131,0.414386
52279,2.180992,-0.853860,9.056596,0.420443,0.592593,0.407229
52280,2.014855,-0.617477,9.050240,0.411162,0.530808,0.409513
52281,2.104328,-0.564476,9.058590,0.401732,0.487080,0.413667
52282,2.369621,-0.629082,8.838358,0.396137,0.486745,0.411783
52283,2.428124,-0.651850,8.984843,0.401803,0.525310,0.423906
52284,2.134346,-0.668404,8.944153,0.394292,0.521689,0.444378
52285,1.924140,-0.542861,9.011785,0.405790,0.506882,0.426852
52286,2.075091,-0.410629,9.138894,0.355254,0.523393,0.416919
52287,1.958389,-0.263937,9.078585,0.277212,0.538425,0.418090
52288,1.695271,-0.278506,9.125033,0.226354,0.502377,0.406880
52289,1.774406,-0.168187,8.988835,0.212476,0.466438,0.398301
52290,1.790520,0.027775,9.036709,0.183298,0.493636,0.379014
52291,1.567643,-0.126394,9.056250,0.154022,0.459883,0.362895
52292,1.695439,-0.087444,9.204678,0.153150,0.441556,0.347774
52293,1.615129,-0.085450,9.186872,0.168737,0.396733,0.374504
52294,1.770254,-0.358551,9.045860,0.166097,0.420480,0.369676
52295,1.509974,-0.269212,9.344702,0.158217,0.441625,0.354000
52296,1.186713,-0.141915,9.500261,0.161723,0.373112,0.330075
52297,1.229591,-0.088310,9.511103,0.125000,0.317721,0.303599
52298,1.250081,-0.100840,9.627232,0.136030,0.278022,0.291978
52299,1.367158,-0.272720,9.539261,0.176381,0.264036,0.275125
52300,1.263019,-0.098062,9.675570,0.227229,0.262379,0.246577
52301,1.250286,-0.130438,9.626512,0.305678,0.254153,0.227650
52302,1.319125,-0.147309,9.587624,0.374156,0.229292,0.211885
52303,1.307870,-0.128229,9.578154,0.444293,0.228543,0.191397
52304,1.218613,0.054032,9.655538,0.488982,0.192824,0.163035
52305,1.192882,0.245861,9.727850,0.508902,0.150224,0.132867
52306,1.317499,0.301490,9.693970,0.483764,0.129610,0.103823
52307,1.361183,0.380893,9.645698,0.466633,0.111267,0.070644
52308,1.413509,0.519833,9.660655,0.470011,0.112529,0.028590
52309,1.466601,0.617381,9.637005,0.407016,0.125274,-0.014986
52310,1.493164,0.695835,9.658356,0.364898,0.100074,-0.034277
52311,1.366030,0.704572,9.393883,0.339886,0.067837,-0.058631
52312,1.301372,0.683545,9.315456,0.256285,0.040807,-0.095477
52313,1.328102,0.608430,9.340628,0.218689,0.000136,-0.137983
52314,1.449685,0.679496,9.229341,0.208480,-0.024364,-0.186552
52315,1.517606,0.845143,9.219944,0.166050,-0.028629,-0.249661
52316,1.558887,0.953911,9.218703,0.112614,-0.013996,-0.320955
52317,1.622016,0.982481,9.156822,0.042178,0.002547,-0.406837
52318,1.676986,1.003587,9.196198,0.000702,0.022814,-0.501766
52319,1.515800,1.050477,9.238064,-0.078421,0.033407,-0.593347
52320,1.517004,1.111095,9.159630,-0.125020,0.014362,-0.673862
52321,1.332650,1.186868,9.268671,-0.208480,-0.001025,-0.736489
52322,1.125085,1.187274,9.302636,-0.275911,-0.059801,-0.781859
52323,1.160443,1.116182,9.268492,-0.319980,-0.136630,-0.833963
52324,1.161816,0.988419,9.269933,-0.358811,-0.204182,-0.886491
52325,1.079188,0.815696,9.334601,-0.401113,-0.268760,-0.952453
52326,1.155629,0.600395,9.455458,-0.419617,-0.326208,-1.024636
52327,1.445841,0.440919,9.419299,-0.410507,-0.348439,-1.109727
52328,1.612566,0.298953,9.524881,-0.404174,-0.326371,-1.192375
52329,1.704968,0.151711,9.518809,-0.412447,-0.297764,-1.264255
52330,1.845493,-0.065932,9.560615,-0.411616,-0.237261,-1.322867
52331,1.738113,-0.436529,9.682937,-0.417033,-0.144496,-1.350737
52332,1.523628,-0.764508,10.043704,-0.444548,-0.095118,-1.376661
52333,1.242538,-0.595256,10.498146,-0.455253,-0.093293,-1.361543
52334,1.044465,-0.583675,10.667254,-0.472950,-0.145975,-1.338509
52335,1.037191,-0.950865,10.424133,-0.404697,-0.179475,-1.308655
52336,1.104141,-1.263345,10.244140,-0.255876,-0.189322,-1.251774
52337,1.217006,-1.627568,10.182042,-0.084249,-0.181734,-1.198550
52338,1.376310,-1.702366,10.140456,0.100394,-0.187140,-1.144565
52339,1.567759,-1.584389,10.043390,0.284241,-0.157483,-1.086101
52340,1.694601,-1.410403,10.244319,0.392450,-0.098545,-1.026927
52341,1.701189,-1.063181,10.462978,0.421789,-0.047178,-0.970644
52342,1.616227,-0.766068,10.645521,0.408183,0.008047,-0.898052
52343,1.388980,-0.608062,10.504895,0.387023,0.031584,-0.835402
52344,1.180551,-0.439351,10.459802,0.387840,0.020118,-0.750612
52345,0.894684,-0.433659,10.263256,0.384547,-0.020846,-0.681481
52346,0.893142,-0.537776,9.913277,0.440719,-0.087470,-0.622340
52347,1.061215,-0.596558,9.667228,0.513786,-0.114412,-0.587913
52348,1.210499,-0.689653,9.484485,0.572679,-0.129975,-0.576583
52349,1.247853,-0.560219,9.306969,0.661415,-0.127095,-0.559506
52350,1.338239,-0.283768,9.320100,0.699475,-0.125445,-0.575350
52351,1.621522,0.188269,9.408129,0.670876,-0.115871,-0.561976
52352,1.715472,0.379853,9.611181,0.542926,-0.069625,-0.576395
52353,1.885852,0.753368,9.523346,0.472537,-0.038109,-0.508969
52354,1.588505,0.977465,9.573077,0.328803,0.012731,-0.456388
52355,1.312523,1.119849,9.490380,0.192260,0.034074,-0.432731
52356,1.169280,1.186439,9.356850,0.056771,-0.006923,-0.413989
52357,1.256122,1.047931,9.148709,-0.050762,-0.061945,-0.383389
52358,1.362370,0.847795,8.920566,-0.097730,-0.126419,-0.344679
52359,1.471669,0.835053,8.674056,-0.125290,-0.198441,-0.336788
52360,1.714869,0.832739,8.720053,-0.124889,-0.250214,-0.324594
52361,1.732524,0.774281,8.768264,-0.150654,-0.261598,-0.326547
52362,1.772169,1.004344,8.868179,-0.173140,-0.290250,-0.325099
52363,1.785521,1.198340,9.246716,-0.188162,-0.301433,-0.317691
52364,1.813482,1.297170,9.640018,-0.264905,-0.306753,-0.328108
52365,1.929060,1.470789,9.460463,-0.415177,-0.321376,-0.350808
52366,2.122925,1.473980,9.360971,-0.473757,-0.284666,-0.373169
52367,2.111959,1.489853,9.456504,-0.538715,-0.194612,-0.388772
52368,2.006577,1.543465,9.496394,-0.609997,-0.143242,-0.416818
52369,2.041770,1.603478,9.657656,-0.639120,-0.127676,-0.444811
52370,2.148136,1.816238,9.810940,-0.690069,-0.112778,-0.470443
52371,2.230002,1.723865,10.077236,-0.772508,-0.062931,-0.480741
52372,2.174924,1.621588,10.096305,-0.902435,-0.041554,-0.493969
52373,2.236211,1.413067,10.077018,-0.983655,-0.031245,-0.519972
52374,2.193004,1.218225,10.045542,-1.052068,-0.007822,-0.550977
52375,2.093433,1.000192,9.917233,-1.111097,-0.019530,-0.589685
52376,2.168108,0.701985,9.753441,-1.100176,-0.032462,-0.655088
52377,2.362681,0.522466,9.557055,-1.060360,0.001131,-0.720484
52378,2.391766,0.464710,9.587922,-0.972605,0.058988,-0.751487
52379,2.285060,0.353943,9.713341,-0.917319,0.089923,-0.745177
52380,2.181123,0.142847,9.826443,-0.898375,0.084019,-0.740005
52381,2.157836,-0.303449,9.895866,-0.807666,0.076850,-0.720301
52382,2.050964,-0.492259,9.774827,-0.755905,0.045515,-0.723584
52383,2.177840,-0.522351,9.582113,-0.707902,0.051259,-0.772668
52384,2.238749,-0.296861,9.491128,-0.668196,0.100799,-0.830476
52385,2.181118,0.063470,9.480619,-0.702146,0.138542,-0.887828
52386,2.023474,0.382283,9.310435,-0.797065,0.149933,-0.930723
52387,2.023463,0.654280,9.236819,-0.941085,0.135582,-0.970465
52388,2.166262,0.621069,9.494113,-1.056113,0.147215,-0.991507
52389,2.266506,0.476197,9.793521,-1.210011,0.184636,-0.985290
52390,2.225132,-0.002490,9.997526,-1.357184,0.256299,-0.960103
52391,2.025086,-0.531889,9.898009,-1.466547,0.290212,-0.957657
52392,1.958398,-1.000974,9.671813,-1.510459,0.323164,-0.964951
52393,1.861645,-1.431387,9.650485,-1.485925,0.349112,-0.966447
52394,1.816141,-1.818101,9.578896,-1.462077,0.341791,-0.963370
52395,1.965301,-2.167959,9.596637,-1.387977,0.345406,-0.954312
52396,1.917086,-2.465263,9.549278,-1.292498,0.368796,-0.941466
52397,1.815956,-2.556009,9.414648,-1.187737,0.381662,-0.948676
52398,1.731778,-2.707219,9.241016,-1.056867,0.373095,-0.938715
52399,1.681674,-2.746681,9.198269,-0.923095,0.343288,-0.929086
52400,1.757961,-2.761136,9.072669,-0.789196,0.309840,-0.956125
52401,1.782161,-2.621603,9.092558,-0.637038,0.310643,-0.953817
52402,1.656911,-2.396693,9.234398,-0.582527,0.284828,-0.944129
52403,1.630281,-2.399907,9.189038,-0.525955,0.251129,-0.948745
52404,1.660280,-2.209805,9.225050,-0.464493,0.224459,-0.942471
52405,1.760387,-2.235174,8.987062,-0.484971,0.204631,-0.930277
52406,1.875142,-2.064398,8.861596,-0.452842,0.185270,-0.939384
52407,1.841166,-1.917178,8.950517,-0.461075,0.181918,-0.933872
52408,1.820246,-2.189098,9.092345,-0.538679,0.154993,-0.921911
52409,1.885839,-2.454827,9.015016,-0.539149,0.147416,-0.888204
52410,1.743421,-2.570754,8.972691,-0.474348,0.130748,-0.871149
52411,1.809532,-2.507812,9.069954,-0.470877,0.095712,-0.841227
52412,1.867227,-2.691104,8.919743,-0.466971,0.078381,-0.830243
52413,2.020297,-2.779970,8.847109,-0.420618,0.062161,-0.815060
52414,1.970343,-2.941472,8.948069,-0.391993,0.054559,-0.784002
52415,1.991125,-3.223351,8.972398,-0.398652,0.027996,-0.751038
52416,1.920044,-3.388750,8.954031,-0.369141,0.018289,-0.706895
52417,1.800246,-3.544472,9.069887,-0.344796,-0.008191,-0.658276
52418,1.754193,-3.576217,9.085363,-0.290176,-0.038474,-0.614892
52419,1.696385,-3.483600,9.135204,-0.204442,-0.057843,-0.580185
52420,1.727254,-3.390131,9.023390,-0.130979,-0.068107,-0.547507
52421,1.871400,-3.315179,9.020480,-0.049203,-0.079749,-0.525541
52422,2.030235,-3.178454,9.004437,-0.024505,-0.085439,-0.510775
52423,2.188933,-3.050598,9.029318,-0.025691,-0.087352,-0.487689
52424,2.206936,-3.024216,9.221453,-0.072086,-0.102186,-0.456760
52425,2.085005,-3.408798,9.102670,-0.137324,-0.121341,-0.409814
52426,2.000999,-3.551596,8.857495,-0.114236,-0.148933,-0.379887
52427,2.066724,-3.395204,8.921667,-0.056613,-0.161410,-0.350040
52428,2.216367,-3.172158,8.985749,-0.030513,-0.155266,-0.319238
52429,2.169915,-2.956464,9.160222,-0.007090,-0.147374,-0.285117
52430,2.124980,-2.861404,9.243510,-0.031528,-0.147831,-0.249488
52431,2.186316,-2.746365,9.268195,-0.051054,-0.144081,-0.218553
52432,2.211452,-2.781997,9.385433,-0.087280,-0.127282,-0.182788
52433,2.130700,-3.061395,9.295333,-0.120328,-0.126446,-0.137050
52434,2.105062,-3.226978,9.291878,-0.087990,-0.134050,-0.100281
52435,2.125788,-3.089649,9.355303,-0.061425,-0.126580,-0.070891
52436,2.185986,-3.035671,9.378664,-0.087959,-0.123552,-0.043430
52437,2.242353,-3.049387,9.310068,-0.112828,-0.113311,-0.011520
52438,2.258429,-3.069581,9.271809,-0.110951,-0.095216,0.022519
52439,2.290083,-3.056596,9.300946,-0.110112,-0.078158,0.053030
52440,2.225950,-3.118609,9.242330,-0.103663,-0.062152,0.085692
52441,2.255447,-3.116009,9.313653,-0.060406,-0.046356,0.115442
52442,2.317457,-3.139567,9.346427,-0.039146,-0.038071,0.146709
52443,2.350458,-3.098187,9.356006,-0.010727,-0.033537,0.173121
52444,2.422259,-3.137144,9.325713,0.026170,-0.022891,0.195715
52445,2.398935,-3.065334,9.392740,0.047479,-0.012145,0.227901
52446,2.385071,-3.132568,9.375722,0.053850,-0.001798,0.257499
52447,2.423865,-3.074149,9.406136,0.072207,0.010817,0.284991
52448,2.441411,-3.049329,9.370162,0.069459,0.032921,0.319903
52449,2.362712,-2.991931,9.379479,0.055718,0.053916,0.356481
52450,2.333135,-3.009304,9.364696,0.012799,0.066513,0.393863
52451,2.287990,-2.986621,9.259602,-0.024026,0.074368,0.422918
52452,2.312049,-2.888066,9.289542,-0.062699,0.082696,0.449990
52453,2.294911,-2.786705,9.308468,-0.118932,0.098430,0.472938
52454,2.308265,-2.766388,9.317691,-0.197090,0.104652,0.496810
52455,2.327040,-2.892849,9.240427,-0.244598,0.107014,0.543294
52456,2.293577,-3.178305,9.162951,-0.236317,0.113362,0.589112
52457,2.262508,-3.409792,9.218040,-0.179051,0.126173,0.629182
52458,2.144579,-3.562508,9.255870,-0.100862,0.124535,0.653580
52459,2.056338,-3.651909,9.340575,-0.008828,0.112269,0.667208
52460,2.175885,-3.621779,9.306687,0.110707,0.107810,0.678241
52461,2.039875,-3.418923,9.437262,0.231810,0.127143,0.676965
52462,1.962222,-3.218652,9.402607,0.353254,0.106511,0.640951
52463,2.051905,-2.896428,9.382614,0.440806,0.082385,0.631772
52464,2.121678,-2.742904,9.283496,0.490969,0.055544,0.632456
52465,2.202329,-2.771813,9.190819,0.558524,0.035237,0.641200
52466,2.199524,-2.773746,9.152210,0.651113,0.037083,0.642658
52467,2.095865,-2.647340,9.223014,0.722319,0.031690,0.637705
52468,1.979865,-2.514024,9.235534,0.758734,0.029464,0.624024
52469,1.888082,-2.267621,9.230219,0.787643,0.018670,0.607157
52470,1.791834,-2.126401,9.297304,0.777540,0.011049,0.590170
52471,1.767416,-2.041479,9.377213,0.748938,0.014534,0.579581
52472,1.693676,-2.015272,9.356548,0.702929,0.012355,0.582415
52473,1.675572,-2.079525,9.416741,0.655594,0.021021,0.590052
52474,1.649039,-2.108085,9.384890,0.612651,0.037666,0.594639
52475,1.592686,-2.162264,9.319957,0.589172,0.044078,0.596374
52476,1.516241,-2.225027,9.311726,0.564048,0.039324,0.595601
52477,1.482702,-2.315522,9.284365,0.547858,0.036795,0.597131
52478,1.404316,-2.304916,9.262701,0.531754,0.025122,0.594888
52479,1.351248,-2.243790,9.221289,0.516136,0.002252,0.590068
52480,1.405886,-2.257006,9.209079,0.496887,-0.016989,0.585597
52481,1.465612,-2.287342,9.165544,0.474583,-0.013578,0.590634
52482,1.444199,-2.217842,9.196085,0.445331,-0.012112,0.592758
52483,1.518639,-2.175198,9.193467,0.416930,-0.012512,0.600554
52484,1.457145,-2.014673,9.265551,0.361013,-0.008980,0.601226
52485,1.366351,-1.948214,9.278406,0.323280,-0.019890,0.599763
52486,1.450908,-1.967222,9.335834,0.291817,-0.022609,0.606020
52487,1.492585,-1.960757,9.411116,0.249972,-0.010157,0.619538
52488,1.338712,-2.014596,9.333299,0.238597,0.000208,0.625506
52489,1.303481,-2.160543,9.357436,0.262177,-0.016159,0.630305
52490,1.435065,-2.285635,9.472698,0.275631,-0.000973,0.641978
52491,1.527408,-2.300383,9.547113,0.259404,0.023094,0.649788
52492,1.517095,-2.198888,9.451513,0.268537,0.020014,0.659967
52493,1.393482,-2.148657,9.389921,0.329657,0.011597,0.659979
52494,1.326792,-2.050493,9.548542,0.373130,0.006343,0.666507
52495,1.315335,-1.842157,9.735246,0.375543,-0.006967,0.665608
52496,1.323381,-1.813735,9.685671,0.401240,-0.011449,0.678431
52497,1.308451,-1.771097,9.765204,0.429953,-0.016130,0.695947
52498,1.379251,-1.820634,9.708158,0.447654,-0.000546,0.703750
52499,1.449604,-1.925121,9.802389,0.487372,0.008923,0.719710
52500,1.625836,-1.900978,9.856741,0.480213,0.011028,0.748102
52501,1.681905,-1.757536,9.948899,0.432758,0.037462,0.760929
52502,1.639934,-1.270506,9.871767,0.408358,0.046996,0.764682
52503,1.423409,-0.892459,9.776929,0.373738,0.057786,0.757134
52504,1.126088,-1.093843,9.570508,0.380032,0.023784,0.749248
52505,1.236215,-1.508266,9.584179,0.388632,-0.000239,0.752003
52506,1.448974,-1.792839,9.713333,0.424742,0.020356,0.763874
52507,1.541412,-1.876790,9.758650,0.464214,0.049094,0.785149
52508,1.532445,-1.756267,9.816742,0.463938,0.061623,0.809337
52509,1.520272,-1.534896,9.851885,0.452348,0.066979,0.809009
52510,1.712784,-1.401549,9.603535,0.427042,0.074105,0.834784
52511,1.470638,-1.025750,9.707850,0.445152,0.146298,0.817923
52512,1.006923,-1.157703,9.635196,0.486026,0.104967,0.813774
52513,1.091411,-1.338133,9.748941,0.556289,0.080302,0.784437
52514,1.409848,-1.257832,9.996395,0.590672,0.084352,0.790212
52515,1.877886,-1.268990,9.851919,0.544652,0.135195,0.846704
52516,1.781465,-0.932815,9.909435,0.539352,0.239907,0.861304
52517,1.215342,-0.894651,9.840062,0.490942,0.281788,0.851880
52518,1.005494,-0.911011,9.881327,0.505028,0.258642,0.812237
52519,1.102231,-0.799621,9.782317,0.569100,0.238464,0.799988
52520,1.310257,-0.861494,9.744883,0.594840,0.279414,0.798745
52521,1.359212,-0.825223,9.744717,0.653667,0.352520,0.765334
52522,1.250775,-0.585997,9.918267,0.665658,0.358963,0.748385
52523,1.106813,-0.542105,9.934284,0.659832,0.336802,0.723495
52524,1.221543,-0.441000,9.780288,0.616308,0.351480,0.688796
52525,1.008241,-0.188600,9.783198,0.535475,0.384700,0.646946
52526,0.537310,0.074679,9.791615,0.512951,0.361438,0.606593
52527,0.508190,0.016287,9.655836,0.504321,0.266027,0.566340
52528,0.965288,-0.085898,9.558932,0.582573,0.221478,0.548342
52529,1.002615,-0.333500,9.313520,0.593487,0.249061,0.514883
52530,0.734134,-0.547997,9.201659,0.712332,0.223588,0.474359
52531,0.522386,-0.121714,9.251648,0.878230,0.161430,0.422297
52532,0.664439,0.488308,9.153101,0.941542,0.126634,0.378397
52533,0.719597,0.995825,9.173333,0.867529,0.116655,0.341356
52534,0.849209,1.244762,9.060356,0.784038,0.082007,0.285445
52535,0.656163,1.412332,9.166841,0.624969,0.044594,0.238543
52536,0.745536,1.309574,9.154574,0.506019,-0.036917,0.185639
52537,0.876488,1.186902,9.106211,0.385015,-0.070124,0.112328
52538,0.934962,1.063604,8.938502,0.339450,-0.112656,0.044926
52539,0.964791,1.359328,8.902648,0.299108,-0.145413,-0.037110
52540,1.019862,1.694492,8.847994,0.193983,-0.157839,-0.122137
52541,1.018611,1.738640,8.839163,0.055639,-0.173214,-0.191339
52542,1.091665,1.707709,8.703671,-0.055186,-0.197411,-0.277227
52543,1.095484,1.550379,8.607470,-0.162253,-0.217297,-0.375581
52544,1.124865,1.328805,8.563450,-0.240797,-0.252015,-0.481904
52545,1.153737,1.165530,8.439880,-0.297601,-0.295737,-0.598284
52546,1.086931,0.983460,8.239135,-0.321847,-0.360374,-0.709553
52547,0.964512,0.836694,8.213833,-0.316967,-0.462700,-0.806200
52548,0.789339,0.730920,8.150958,-0.324032,-0.590419,-0.899763
52549,0.692169,0.622638,8.134949,-0.304126,-0.737612,-0.971077
52550,0.699834,0.597964,8.115061,-0.282340,-0.871081,-1.032383
52551,0.770989,0.557530,8.041572,-0.249155,-0.994849,-1.079379
52552,0.970511,0.574886,8.077930,-0.253424,-1.117091,-1.118857
52553,1.259138,0.272100,7.999107,-0.275173,-1.240724,-1.167921
52554,1.427789,0.226397,8.015121,-0.296028,-1.357576,-1.221569
52555,1.692317,-0.017358,7.901095,-0.286439,-1.485305,-1.270655
52556,1.864860,-0.238161,7.721548,-0.257717,-1.607725,-1.331118
52557,1.758474,-0.392952,7.696352,-0.151001,-1.732510,-1.361802
52558,1.775615,-0.336872,7.950194,-0.023190,-1.808631,-1.374873
52559,2.224509,-0.343875,7.954832,-0.012398,-1.860059,-1.370488
52560,2.443410,-0.259288,8.270602,0.039663,-1.918602,-1.364654
52561,2.762931,-0.045305,8.474809,0.133700,-2.000981,-1.336991
52562,3.131298,0.060055,8.359201,0.156788,-2.045964,-1.317613
52563,3.458905,-0.109634,8.018662,0.144870,-2.096993,-1.287432
52564,3.611612,-0.109298,7.994774,0.203856,-2.187671,-1.279881
52565,3.767498,-0.296751,7.812268,0.248202,-2.286059,-1.290035
52566,3.807393,-0.190372,7.822383,0.301411,-2.348221,-1.295820
52567,3.799999,0.089945,7.941599,0.347739,-2.413795,-1.280629
52568,4.080179,0.311377,8.054740,0.370792,-2.481757,-1.261062
52569,4.471862,0.439507,8.020633,0.393365,-2.495079,-1.252535
52570,4.839734,0.843948,8.060342,0.436298,-2.469766,-1.213014
52571,5.138873,1.077074,8.116599,0.396022,-2.471121,-1.166380
52572,5.557891,0.947935,8.024391,0.324932,-2.439751,-1.101810
52573,5.803951,0.501570,7.748133,0.228292,-2.398986,-1.028307
52574,5.839150,0.081884,7.410482,0.198863,-2.388307,-0.980668
52575,5.791924,0.138828,7.165759,0.242072,-2.420432,-0.960247
52576,6.022581,-0.003450,7.146082,0.245255,-2.405589,-0.925560
52577,6.482067,0.039272,7.325309,0.300646,-2.395658,-0.880803
52578,6.661400,0.303444,7.482373,0.414856,-2.380059,-0.796869
52579,6.648711,0.515937,7.527518,0.507290,-2.307896,-0.728567
52580,6.843426,0.610614,7.352033,0.570051,-2.271344,-0.636243
52581,6.962489,0.561719,7.164851,0.575994,-2.261422,-0.537402
52582,6.986696,0.387663,6.980138,0.556951,-2.288795,-0.420258
52583,7.010943,0.375110,6.873849,0.497801,-2.304716,-0.363012
52584,7.439862,0.927246,6.568340,0.423023,-2.349299,-0.345485
52585,7.457647,1.430840,6.605057,0.359560,-2.404618,-0.267075
52586,7.666813,1.522236,6.524121,0.286040,-2.474254,-0.185962
52587,8.225148,1.299953,6.111485,0.210806,-2.518556,-0.082734
52588,8.876650,1.139534,5.732086,0.203061,-2.521755,-0.034794
52589,9.381722,1.084150,5.410069,0.255744,-2.499329,0.044780
52590,9.371064,0.962760,5.456087,0.275075,-2.465851,0.086605
52591,9.294117,1.000565,5.383079,0.322484,-2.395407,0.042726
52592,8.956140,1.200323,5.670581,0.378874,-2.255819,-0.016409
52593,8.519410,1.294465,5.933131,0.314751,-2.132975,-0.058988
52594,8.236103,1.279541,5.945108,0.262650,-2.049914,-0.053074
52595,8.332591,1.489593,5.882548,0.259916,-1.970947,-0.049877
52596,8.472335,1.616584,5.706055,0.272791,-1.838017,-0.058528
52597,8.852373,1.570329,5.547410,0.319018,-1.716520,-0.047573
52598,9.456750,1.442458,5.304140,0.347483,-1.603614,-0.009318
52599,10.058147,1.436757,5.136126,0.367490,-1.477074,0.047647
52600,10.217130,1.409490,5.112783,0.361728,-1.346631,0.097555
52601,10.081199,1.325942,5.058987,0.298725,-1.251120,0.145423
52602,9.965028,1.426358,4.753950,0.240388,-1.205395,0.188857
52603,9.753082,1.600819,4.529432,0.182865,-1.160821,0.221914
52604,9.552493,1.780718,4.284360,0.231535,-1.118611,0.229059
52605,9.412338,1.897724,4.283818,0.304899,-1.085714,0.242836
52606,9.457123,1.941362,4.128218,0.320132,-1.040358,0.254472
52607,9.741321,1.858809,3.911234,0.345451,-0.992623,0.278794
52608,10.012792,1.863330,3.868220,0.353023,-0.926243,0.335485
52609,10.055548,1.715454,3.745880,0.314947,-0.875480,0.390629
52610,10.208004,1.458795,3.503649,0.312697,-0.860340,0.416303
52611,10.415402,1.306822,3.369236,0.363355,-0.843529,0.424813
52612,10.420624,1.167160,3.168480,0.415977,-0.798767,0.439706
52613,10.183105,1.189094,3.032424,0.498685,-0.765769,0.474691
52614,10.033097,1.365254,3.062827,0.541156,-0.746520,0.519842
52615,9.961840,1.405521,2.875870,0.510525,-0.745487,0.561471
52616,10.050425,1.293746,2.600162,0.492867,-0.747309,0.601954
52617,10.049990,1.305738,2.329619,0.540252,-0.730681,0.652462
52618,10.028614,1.319069,2.279494,0.551399,-0.704844,0.699998
52619,10.015577,1.250488,2.185933,0.567810,-0.694602,0.722974
52620,10.081186,1.209903,2.148166,0.612022,-0.659223,0.743136
52621,9.986124,1.166244,2.200854,0.630629,-0.629932,0.754957
52622,9.872036,1.319469,1.992930,0.631868,-0.627773,0.764477
52623,9.965384,1.550346,1.923012,0.602634,-0.620678,0.745893
52624,10.041981,1.652719,1.979771,0.573420,-0.590581,0.722937
52625,10.043334,1.751018,1.917685,0.527676,-0.577274,0.688849
52626,10.233639,1.952577,1.783131,0.455903,-0.556203,0.663357
52627,10.388400,2.011461,1.792443,0.358522,-0.503081,0.653885
52628,10.467235,1.899964,1.862428,0.245068,-0.449311,0.650346
52629,10.446349,1.980765,1.716832,0.183295,-0.421052,0.629307
52630,10.411377,1.767923,1.826886,0.139318,-0.396154,0.602768
52631,10.325485,1.346053,1.841857,0.107728,-0.369621,0.575356
52632,10.178915,1.242010,1.675405,0.143245,-0.383372,0.528131
52633,10.257469,1.396375,1.646394,0.188180,-0.379095,0.489572
52634,10.213564,1.482096,1.667416,0.164168,-0.342514,0.480741
52635,10.102656,1.395524,1.664594,0.100737,-0.319764,0.479908
52636,10.179944,1.276395,1.504940,0.038535,-0.303368,0.479895
52637,10.244045,1.066055,1.575774,0.019556,-0.273286,0.472792
52638,10.064366,0.728726,1.625987,-0.027226,-0.274508,0.474370
52639,9.896858,0.534082,1.360573,-0.024476,-0.304561,0.451151
52640,9.778254,0.727962,1.390781,0.064224,-0.315249,0.383117
52641,9.869685,1.082072,1.701613,0.076012,-0.298147,0.296484
52642,9.968999,1.129706,1.628889,0.044234,-0.276896,0.216437
52643,10.054323,1.010527,1.423578,0.045074,-0.262728,0.143310
52644,10.054990,0.897038,1.250294,0.092921,-0.241129,0.096572
52645,10.003588,0.681127,1.097861,0.189463,-0.222583,0.069578
52646,9.967090,0.520800,0.970538,0.334741,-0.213817,0.053377
52647,9.978746,0.409501,0.858320,0.497975,-0.211567,0.036110
52648,10.019956,0.427854,0.898865,0.646015,-0.219740,0.022254
52649,10.113672,0.685951,0.899239,0.749483,-0.225226,0.008927
52650,10.239833,1.094035,0.974712,0.793855,-0.215627,-0.006381
52651,10.204169,1.439809,0.967446,0.734661,-0.196353,0.000030
52652,10.224343,1.586910,0.905570,0.577742,-0.177076,0.011933
52653,10.212658,1.598405,0.698691,0.414227,-0.155185,0.015053
52654,10.182174,1.748948,0.721183,0.251366,-0.113734,0.006801
52655,10.002191,1.712434,0.806228,0.045838,-0.075823,0.001583
52656,9.926765,1.524814,0.857413,-0.137853,-0.053645,-0.003995
52657,9.874150,1.145226,0.869592,-0.283695,-0.039108,-0.004619
52658,9.837483,0.661931,0.817272,-0.393044,-0.030686,0.005578
52659,9.882574,0.218415,0.764211,-0.404844,-0.037243,0.010196
52660,9.889116,0.012480,0.731034,-0.376263,-0.016784,0.014323
52661,9.896757,-0.009238,0.767422,-0.306972,-0.010712,0.018857
52662,9.903998,0.022741,0.892972,-0.255677,-0.002770,0.018512
52663,9.952077,-0.035541,0.905594,-0.217022,0.004986,0.028900
52664,9.969101,0.001119,0.874835,-0.157870,0.009396,0.029228
52665,9.939012,0.287648,0.957522,-0.113082,0.025359,0.024954
52666,9.914316,0.301776,0.989841,-0.123342,0.027028,0.029999
52667,9.890425,0.250705,0.879911,-0.126819,0.026405,0.034222
52668,9.868003,0.342032,0.805826,-0.128041,0.021582,0.025970
52669,9.869133,0.397375,0.773328,-0.172957,0.021502,0.032335
52670,9.894206,0.404597,0.729688,-0.217833,0.030326,0.031878
52671,9.797043,0.489589,0.781512,-0.262715,0.045120,0.026913
52672,9.821574,0.548834,0.830458,-0.322935,0.054120,0.027452
52673,9.787828,0.478763,0.829028,-0.368691,0.070922,0.027116
52674,9.720585,0.343955,0.818507,-0.381144,0.075088,0.029277
52675,9.735291,0.290331,0.847849,-0.369305,0.075046,0.020177
52676,9.717395,0.323946,0.960085,-0.357839,0.082728,0.022252
52677,9.765945,0.324371,0.946811,-0.340720,0.087854,0.021077
52678,9.796267,0.333114,1.054395,-0.331640,0.089832,0.017662
52679,9.802568,0.268537,1.063960,-0.320111,0.086948,0.018195
52680,9.850306,0.199375,1.029877,-0.293569,0.082557,0.017022
52681,9.855124,-0.004620,0.996149,-0.246005,0.080718,0.012418
52682,9.844886,-0.158380,0.941816,-0.168559,0.085730,-0.000069
52683,9.828464,-0.220749,0.871254,-0.085291,0.076754,-0.000940
52684,9.812769,-0.171971,0.858965,0.007851,0.076901,-0.009134
52685,9.746405,-0.079392,0.960135,0.070249,0.073554,-0.008063
52686,9.738593,-0.018250,0.967366,0.105505,0.060701,-0.010978
52687,9.789080,0.090617,0.955188,0.108885,0.050176,-0.011477
52688,9.781396,0.152370,0.960517,0.112348,0.050909,-0.015628
52689,9.773685,0.214155,0.965773,0.094811,0.051286,-0.013447
52690,9.799017,0.229876,0.923967,0.078593,0.042086,-0.015734
52691,9.789914,0.191057,0.923831,0.059620,0.038639,-0.019750
52692,9.773427,0.101324,0.865929,0.052696,0.037982,-0.016631
52693,9.798075,0.086746,0.839466,0.067078,0.028536,-0.020598
52694,9.741052,0.142744,0.864208,0.080500,0.022520,-0.023121
52695,9.723617,0.173693,0.916083,0.088604,0.018139,-0.024622
52696,9.739810,0.229078,0.941680,0.081428,0.013862,-0.025301
52697,9.739642,0.232346,0.942623,0.079866,0.009316,-0.026206
52698,9.757701,0.237890,0.876054,0.070522,-0.005251,-0.027143
52699,9.757666,0.241190,0.875544,0.075803,-0.001611,-0.027364
52700,9.724411,0.290367,0.921356,0.064486,-0.001810,-0.021669
52701,9.765841,0.217769,0.857753,0.060451,-0.012756,-0.022832
52702,9.780161,0.141704,0.893582,0.058152,-0.013247,-0.016288
52703,9.788484,0.114907,0.875488,0.075003,-0.016280,-0.019939
52704,9.797186,0.158841,0.877142,0.086502,-0.020675,-0.020342
52705,9.773996,0.238900,0.870676,0.097001,-0.024628,-0.017079
52706,9.862864,0.262672,0.910568,0.083283,-0.025239,-0.016115
52707,9.806611,0.277585,0.892994,0.072280,-0.024073,-0.009643
52708,9.766341,0.274067,0.879083,0.072280,-0.029322,-0.010384
52709,9.815116,0.362635,0.927264,0.062360,-0.027883,-0.012817
52710,9.767088,0.347930,0.893026,0.052363,-0.027163,-0.010010
52711,9.798504,0.283371,0.914501,0.050863,-0.033995,-0.013893
52712,9.789958,0.173113,0.887803,0.034648,-0.038749,-0.010175
52713,9.840484,0.210520,0.844759,0.052018,-0.036755,-0.009267
52714,9.841379,0.353179,0.880534,0.042140,-0.032346,-0.013955
52715,9.767681,0.325637,0.892277,0.036851,-0.035983,-0.013695
52716,9.824754,0.385181,0.923122,0.032535,-0.034810,-0.016351
52717,9.832475,0.327872,0.920513,0.018918,-0.029488,-0.019898
52718,9.807864,0.235925,0.891208,0.017920,-0.023781,-0.015502
52719,9.783560,0.214472,0.881481,0.025711,-0.029512,-0.017748
52720,9.791971,0.187033,0.862417,0.034044,-0.024971,-0.014718
52721,9.848281,0.216673,0.911307,0.039018,-0.022691,-0.015749
52722,9.792196,0.302023,0.913524,0.036564,-0.026102,-0.018216
52723,9.816457,0.367933,0.954611,0.019481,-0.021486,-0.017589
52724,9.785529,0.395153,0.891751,0.010766,-0.009349,-0.016199
52725,9.793322,0.408250,0.911370,-0.007496,-0.001978,-0.020194
