// Start Time: Unknown
// Update Rate: 100.0Hz
// Filter Profile: human (46.1)
// Firmware Version: 4.3.5
PacketCounter,Acc_X,Acc_Y,Acc_Z,Gyr_X,Gyr_Y,Gyr_Z
08909,9.544336,-2.382700,1.457743,-0.000141,0.006914,-0.011928
08910,9.512766,-2.342332,1.490773,0.013388,0.007147,-0.011984
08911,9.514910,-2.294674,1.548298,0.007644,0.007016,-0.010409
08912,9.534105,-2.257886,1.487936,0.000330,0.010012,-0.018321
08913,9.523188,-2.312731,1.472329,-0.007584,0.011294,-0.015023
08914,9.523382,-2.311402,1.473165,-0.012774,0.011222,-0.016034
08915,9.490500,-2.301939,1.468333,-0.011159,0.009747,-0.015169
08916,9.480855,-2.326195,1.490227,-0.013329,0.011158,-0.013444
08917,9.524556,-2.292439,1.494045,-0.011077,0.006703,-0.011360
08918,9.513013,-2.275126,1.480888,-0.018909,0.004939,-0.004258
08919,9.503914,-2.284696,1.521018,-0.022012,0.006494,-0.010796
08920,9.481342,-2.323585,1.491196,-0.019418,0.006529,-0.010287
08921,9.493161,-2.339554,1.504693,-0.013567,0.004449,-0.012365
08922,9.493990,-2.323045,1.523928,-0.002738,0.006874,-0.012420
08923,9.449459,-2.296864,1.505667,0.003006,0.007010,-0.013992
08924,9.469329,-2.244443,1.464064,0.000965,0.007032,-0.017082
08925,9.524154,-2.242232,1.462560,-0.011140,0.010563,-0.019460
08926,9.547752,-2.274035,1.490005,-0.016862,0.011249,-0.022192
08927,9.559117,-2.304526,1.485088,-0.022608,0.011107,-0.020615
08928,9.517721,-2.378252,1.516796,-0.021123,0.011021,-0.014938
08929,9.527736,-2.351535,1.496222,-0.020569,0.011079,-0.017518
08930,9.507085,-2.343736,1.523253,-0.026231,0.007893,-0.012144
08931,9.494977,-2.341806,1.491054,-0.020956,0.004931,-0.007332
08932,9.473063,-2.365567,1.479763,-0.016635,0.001287,-0.006474
08933,9.495778,-2.325765,1.509546,-0.017191,0.001223,-0.003889
08934,9.462754,-2.317601,1.503610,-0.026064,0.001802,-0.004540
08935,9.464156,-2.375037,1.518852,-0.018785,0.003519,-0.009049
08936,9.463178,-2.405149,1.481017,-0.014657,0.005133,-0.011480
08937,9.495159,-2.354539,1.471511,-0.001233,0.007617,-0.011031
08938,9.485404,-2.290296,1.515668,0.003004,0.007019,-0.013972
08939,9.507038,-2.280327,1.508586,-0.010639,0.008958,-0.013401
08940,9.517160,-2.342423,1.465570,-0.013149,0.005872,-0.010110
08941,9.529531,-2.342963,1.498234,-0.018005,0.010275,-0.012681
08942,9.507688,-2.366313,1.487288,-0.023001,0.004932,-0.010404
08943,9.517588,-2.340200,1.466338,-0.019008,0.007931,-0.008021
08944,9.520707,-2.351287,1.538566,-0.018146,0.000525,-0.007830
08945,9.541204,-2.372712,1.492885,-0.013151,0.005867,-0.010102
08946,9.499569,-2.358769,1.546371,-0.013597,0.003589,-0.008029
08947,9.477162,-2.397752,1.516264,-0.011001,0.003632,-0.007524
08948,9.433867,-2.430094,1.512854,-0.003103,0.001552,-0.006524
08949,9.466296,-2.364360,1.522173,0.004153,0.002451,-0.006732
08950,9.487004,-2.282017,1.518136,-0.003127,0.000721,-0.002223
08951,9.477832,-2.291941,1.558183,-0.015773,0.004988,-0.006300
08952,9.488916,-2.324171,1.552757,-0.029665,0.010503,-0.000399
08953,9.489117,-2.412887,1.530436,-0.032127,0.009074,-0.005710
08954,9.521135,-2.451474,1.498537,-0.016638,0.012386,-0.006476
08955,9.500245,-2.444326,1.526003,-0.004499,0.009721,-0.008421
08956,9.478275,-2.468006,1.515493,0.003906,0.006047,-0.001405
08957,9.492313,-2.511585,1.582855,0.016466,0.004828,-0.001118
08958,9.439594,-2.554589,1.619883,0.029309,-0.004692,0.006235
08959,9.407651,-2.604725,1.630166,0.047984,-0.005978,0.015787
08960,9.463567,-2.647816,1.663095,0.063033,-0.010492,0.033801
08961,9.463272,-2.635157,1.682438,0.072578,-0.018762,0.048083
08962,9.493849,-2.589714,1.672817,0.072138,-0.015469,0.066860
08963,9.525225,-2.604120,1.678386,0.060085,-0.021383,0.089338
08964,9.565872,-2.683964,1.640260,0.044917,-0.015443,0.109562
08965,9.563963,-2.752655,1.655586,0.036106,-0.013179,0.133759
08966,9.624961,-2.813620,1.628531,0.028982,-0.015451,0.162661
08967,9.739440,-2.877593,1.599165,0.026270,-0.013333,0.196241
08968,9.766532,-2.980094,1.600485,0.011208,-0.019129,0.241033
08969,9.826069,-3.211555,1.638329,0.011249,-0.016848,0.295374
08970,9.838077,-3.292369,1.644333,0.020752,-0.031701,0.351350
08971,9.806281,-3.306806,1.686769,0.028626,-0.048346,0.410539
08972,9.849093,-3.492659,1.764005,0.022149,-0.077443,0.477118
08973,9.793013,-3.669385,1.894447,0.056322,-0.110156,0.538585
08974,9.697430,-3.888192,1.961877,0.096130,-0.130784,0.603730
08975,9.586082,-4.193675,2.066828,0.156194,-0.154848,0.666404
08976,9.678791,-4.377358,2.118148,0.245703,-0.182871,0.734059
08977,9.841787,-4.576996,2.142466,0.338897,-0.195302,0.794339
08978,10.023279,-4.718980,2.146778,0.438146,-0.191454,0.866495
08979,10.085826,-4.798288,2.204265,0.510671,-0.175410,0.930861
08980,10.035394,-4.809286,2.182582,0.561109,-0.163992,1.005919
08981,9.913317,-4.805871,2.284647,0.599636,-0.152036,1.069693
08982,9.661313,-4.866101,2.362095,0.627114,-0.147241,1.133712
08983,9.558761,-5.030936,2.414262,0.660320,-0.151877,1.181346
08984,9.616618,-5.224839,2.533117,0.695865,-0.151802,1.236683
08985,9.658761,-5.381919,2.587257,0.730055,-0.140334,1.284973
08986,9.718970,-5.425397,2.566730,0.778544,-0.131606,1.333846
08987,9.663438,-5.424426,2.558311,0.803689,-0.124088,1.378279
08988,9.541406,-5.541072,2.535755,0.812052,-0.115675,1.435919
08989,9.530655,-5.800256,2.483352,0.823176,-0.110215,1.491811
08990,9.513461,-6.151621,2.414143,0.862667,-0.097886,1.558273
08991,9.564457,-6.421130,2.454460,0.936324,-0.085432,1.613770
08992,9.505422,-6.547510,2.492932,1.029342,-0.067452,1.656304
08993,9.434874,-6.486638,2.564134,1.093683,-0.048750,1.702808
08994,9.372991,-6.324924,2.672235,1.099943,-0.030208,1.749006
08995,9.260491,-6.271502,2.760135,1.058608,-0.002866,1.800639
08996,9.151119,-6.427874,2.842704,1.010725,0.028548,1.847819
08997,8.973072,-6.689146,2.840248,0.992114,0.056784,1.887216
08998,8.894383,-6.987746,2.725408,1.011123,0.076956,1.915783
08999,8.924956,-7.278683,2.590755,1.090419,0.090749,1.947858
09000,8.823938,-7.532672,2.553813,1.183271,0.106691,1.971785
09001,8.821244,-7.621351,2.560644,1.306339,0.115791,2.001064
09002,8.748614,-7.523458,2.750467,1.398623,0.147233,2.025304
09003,8.640107,-7.352218,2.883685,1.438705,0.189761,2.055459
09004,8.370352,-7.269765,2.897412,1.433324,0.229513,2.076222
09005,8.146022,-7.175791,2.872679,1.400596,0.261172,2.093483
09006,7.952071,-6.988152,2.921212,1.338890,0.287044,2.100470
09007,7.803976,-6.990948,3.046562,1.263436,0.317186,2.099040
09008,7.591270,-7.194619,2.998416,1.201329,0.332034,2.080676
09009,7.422996,-7.388901,3.079645,1.193055,0.327737,2.077487
09010,7.312692,-7.458983,3.224960,1.180891,0.335280,2.057388
09011,7.191732,-7.742913,3.257811,1.178083,0.347732,2.054894
09012,7.145742,-7.956296,3.224189,1.189236,0.360622,2.059180
09013,7.138959,-7.957807,3.145995,1.184255,0.377429,2.067310
09014,7.190584,-7.882535,3.039656,1.134951,0.407453,2.091742
09015,6.995280,-7.799550,2.908328,1.066965,0.432706,2.116199
09016,6.857623,-7.766775,2.827175,1.006579,0.423541,2.131076
09017,6.724663,-7.837035,2.729068,0.971433,0.422072,2.138931
09018,6.461918,-7.905768,2.858493,0.953106,0.422493,2.141843
09019,6.126990,-8.001020,3.014358,0.963499,0.418123,2.133191
09020,5.914745,-8.200460,3.136258,0.986364,0.408136,2.122353
09021,5.772165,-8.408052,3.145505,1.030434,0.399161,2.127172
09022,5.652080,-8.435475,3.044958,1.114986,0.388503,2.118737
09023,5.507604,-8.430884,2.994223,1.212406,0.384106,2.107646
09024,5.219926,-8.378899,2.978210,1.328920,0.369928,2.091265
09025,4.949404,-8.303142,3.089556,1.428703,0.339740,2.069770
09026,4.732523,-8.284005,3.231039,1.506125,0.301160,2.045804
09027,4.598683,-8.252474,3.419856,1.548019,0.263698,2.030909
09028,4.550377,-8.170913,3.647610,1.563993,0.236454,2.020206
09029,4.414724,-8.012543,3.910367,1.536286,0.211030,2.011917
09030,4.303097,-7.818791,4.097875,1.479228,0.190144,2.007841
09031,4.127856,-7.708614,4.162558,1.377899,0.156456,2.009027
09032,4.037630,-7.816390,4.148482,1.270746,0.140297,2.017790
09033,3.889528,-8.166646,4.077381,1.204436,0.114467,2.019050
09034,3.719759,-8.491592,3.991180,1.212907,0.091787,2.016118
09035,3.550313,-8.729044,4.081169,1.281846,0.057323,2.012310
09036,3.305570,-8.855078,4.169682,1.387581,0.013294,2.011415
09037,3.105888,-8.812317,4.278513,1.517284,-0.037486,2.004597
09038,3.024535,-8.590904,4.449402,1.620194,-0.093314,2.005312
09039,2.940484,-8.311483,4.574599,1.666593,-0.135008,2.011489
09040,2.860049,-7.949207,4.733052,1.650878,-0.164670,2.017305
09041,2.793095,-7.703176,4.902926,1.568562,-0.186605,2.031740
09042,2.642508,-7.571923,5.007664,1.459729,-0.205811,2.049040
09043,2.429345,-7.508663,5.068832,1.368117,-0.235225,2.060251
09044,2.158699,-7.394370,5.059515,1.320169,-0.271320,2.062026
09045,1.842011,-7.359483,4.991973,1.280638,-0.323869,2.057614
09046,1.658915,-7.246575,5.098358,1.264334,-0.373474,2.042083
09047,1.529441,-7.077334,5.244925,1.248366,-0.418218,2.025902
09048,1.441410,-7.043958,5.488014,1.214363,-0.460642,2.009283
09049,1.368246,-6.878908,5.609237,1.176362,-0.495900,1.997608
09050,1.273780,-6.700214,5.715159,1.126151,-0.522499,1.981687
09051,1.187269,-6.560174,5.685853,1.065780,-0.550730,1.972966
09052,1.190398,-6.552883,5.623015,1.000917,-0.583746,1.980156
09053,1.144269,-6.745025,5.597041,0.970739,-0.606825,1.995596
09054,0.986331,-6.803599,5.692975,0.956785,-0.635064,2.001308
09055,0.886760,-6.633832,5.796578,0.976502,-0.649179,1.994033
09056,0.707909,-6.419529,5.999879,0.981120,-0.675224,1.984136
09057,0.674416,-6.428771,6.123936,0.938921,-0.696478,1.982871
09058,0.681671,-6.395145,6.127047,0.949450,-0.702499,1.991897
09059,0.571405,-6.170683,6.233845,0.957807,-0.719687,1.976812
09060,0.549108,-6.051817,6.190778,0.933127,-0.742091,1.986816
09061,0.472964,-5.730386,6.231477,0.926622,-0.749449,1.985635
09062,0.376801,-5.429105,6.185420,0.841024,-0.781253,1.979331
09063,0.335751,-5.335717,6.220327,0.730595,-0.798727,1.995216
09064,0.309414,-5.296603,6.384326,0.630603,-0.805611,2.007327
09065,0.181001,-5.463101,6.586883,0.554208,-0.816541,2.017796
09066,0.035462,-5.781528,6.641481,0.537633,-0.854443,2.029594
09067,-0.060855,-5.726442,6.767216,0.630830,-0.873055,2.018100
09068,-0.197600,-5.579080,6.825574,0.700137,-0.909272,2.002072
09069,-0.070804,-5.502375,6.833306,0.780843,-0.936079,1.993379
09070,-0.021230,-5.294926,6.878624,0.816531,-0.945735,1.986628
09071,0.043859,-5.033014,6.833708,0.846034,-0.963356,1.982121
09072,-0.058123,-4.597229,6.878496,0.804955,-0.970725,1.973881
09073,-0.070811,-4.157431,6.944332,0.751122,-0.985912,1.974392
09074,-0.176969,-3.757414,7.232109,0.628639,-0.994235,1.952865
09075,-0.174424,-3.696883,7.224619,0.471202,-1.017166,1.945821
09076,-0.129911,-3.648865,7.492506,0.410463,-1.013440,1.905471
09077,-0.288433,-3.770899,7.626100,0.325554,-1.023943,1.862737
09078,-0.151042,-3.888735,7.728232,0.252320,-1.037235,1.834964
09079,-0.022196,-3.723462,7.769352,0.195894,-1.023423,1.796245
09080,-0.015468,-3.601506,7.795398,0.108880,-1.022289,1.758521
09081,-0.095820,-3.574621,7.722753,0.047481,-1.007783,1.728363
09082,-0.220119,-3.408978,7.742059,0.020113,-1.018115,1.673470
09083,-0.226139,-3.442841,7.859432,-0.014766,-1.024331,1.630816
09084,-0.115644,-3.529210,7.977352,-0.041175,-1.018051,1.583214
09085,0.068805,-3.690445,7.922866,-0.087908,-1.001189,1.549111
09086,0.108891,-3.398342,8.141043,-0.074776,-0.956320,1.499022
09087,0.097575,-3.077346,8.410426,-0.141536,-0.918001,1.429188
09088,0.089524,-3.289179,8.334924,-0.197697,-0.840759,1.376799
09089,-0.032347,-3.572875,8.192928,-0.205210,-0.827635,1.302389
09090,-0.169604,-3.744900,8.129443,-0.167732,-0.844560,1.227318
09091,0.019660,-3.624309,8.030542,-0.211528,-0.877757,1.171386
09092,0.194596,-3.048563,8.355833,-0.243145,-0.847649,1.110443
09093,0.194256,-2.474470,8.949730,-0.460859,-0.821683,1.046096
09094,0.212569,-2.495763,9.188223,-0.764248,-0.779761,0.996614
09095,0.131854,-2.911787,9.346026,-1.035134,-0.719146,0.943419
09096,0.018598,-3.408600,9.175752,-1.200791,-0.668181,0.877796
09097,-0.145486,-3.888019,9.024031,-1.279259,-0.617005,0.807070
09098,-0.225452,-4.404423,8.741763,-1.268694,-0.579171,0.742596
09099,-0.299369,-4.722050,8.672049,-1.186936,-0.543283,0.662068
09100,-0.282139,-4.870988,8.729540,-1.084780,-0.504763,0.594033
09101,-0.262712,-5.010712,8.915771,-1.007982,-0.454033,0.533779
09102,-0.251530,-5.226632,8.987879,-0.927876,-0.399938,0.496104
09103,-0.298939,-5.218835,9.229078,-0.879355,-0.331439,0.461125
09104,-0.281507,-5.311254,9.259581,-0.839111,-0.288523,0.437328
09105,-0.411383,-5.311054,9.326109,-0.785974,-0.221938,0.405080
09106,-0.542984,-5.483976,9.182749,-0.701318,-0.174504,0.366742
09107,-0.502255,-5.632852,9.168895,-0.535965,-0.114928,0.303307
09108,-0.452204,-5.427789,9.262905,-0.281610,-0.035215,0.195512
09109,-0.343489,-4.812664,9.554265,-0.013092,0.042810,0.057227
09110,-0.175712,-4.202465,9.712364,0.170122,0.122049,-0.084671
09111,-0.031662,-3.805045,9.771202,0.266913,0.218473,-0.205837
09112,-0.126923,-3.656819,9.693739,0.312812,0.303706,-0.337771
09113,-0.211894,-3.993063,9.220869,0.320879,0.342559,-0.449945
09114,-0.191150,-4.164705,8.961830,0.374446,0.388493,-0.574970
09115,-0.167066,-4.005297,9.005603,0.394958,0.422671,-0.708504
09116,-0.044756,-3.860332,9.149548,0.381978,0.477033,-0.842051
09117,0.077888,-4.013462,9.377401,0.394504,0.547198,-0.986149
09118,0.243386,-4.475934,9.536425,0.543844,0.637403,-1.146839
09119,0.524166,-4.722976,9.764329,0.904237,0.747421,-1.330084
09120,0.643651,-4.631928,9.996765,1.387907,0.842434,-1.553073
09121,0.727934,-3.943478,10.044851,1.894132,0.915392,-1.792468
09122,0.768045,-2.945356,10.046364,2.312582,0.975107,-2.054060
09123,0.789152,-1.831216,9.946254,2.569235,1.029594,-2.322072
09124,1.000476,-0.800271,10.033846,2.583732,1.070703,-2.580971
09125,1.297613,0.091853,10.046543,2.397489,1.112213,-2.820459
09126,1.521070,0.788991,10.225384,2.066830,1.145678,-3.058174
09127,1.729117,0.889717,10.324080,1.587786,1.164506,-3.267580
09128,2.036786,0.320627,10.288848,1.185787,1.210864,-3.430503
09129,2.176644,-0.662854,10.113134,0.897893,1.253119,-3.577299
09130,1.936554,-1.563489,9.881542,0.800637,1.245882,-3.716668
09131,1.750067,-2.142893,9.581234,0.836883,1.200351,-3.851854
09132,1.636494,-2.388879,9.282806,0.950898,1.131704,-3.974827
09133,1.702754,-2.243557,9.224604,1.051762,1.042496,-4.095591
09134,1.718084,-1.947373,9.184612,1.099399,0.949626,-4.208983
09135,1.872891,-1.633392,9.197098,1.116246,0.838006,-4.321991
09136,2.217465,-1.513157,9.399215,1.087237,0.743502,-4.402662
09137,2.501890,-1.540293,9.596258,1.026667,0.651711,-4.471767
09138,2.717770,-1.584825,9.694249,0.959883,0.571177,-4.532311
09139,2.924504,-1.679094,9.737870,0.882193,0.505448,-4.579276
09140,3.058925,-1.841389,9.691672,0.796480,0.441616,-4.620795
09141,3.297844,-1.981871,9.629583,0.728405,0.399069,-4.666418
09142,3.452276,-1.877237,9.737967,0.671882,0.359680,-4.704206
09143,3.713541,-1.791138,9.719317,0.583616,0.314136,-4.735141
09144,3.976687,-1.930562,9.724308,0.503476,0.294668,-4.754344
09145,4.152219,-2.092792,9.625748,0.433677,0.268422,-4.774367
09146,4.251656,-2.046303,9.430379,0.387172,0.235898,-4.790624
09147,4.533315,-1.830319,9.341594,0.319491,0.219227,-4.806700
09148,4.772073,-1.793832,9.372147,0.187907,0.232366,-4.797806
09149,5.067439,-2.030830,9.617864,0.044259,0.263686,-4.790051
09150,5.308825,-2.475098,9.793671,-0.087666,0.297354,-4.769351
09151,5.530801,-3.066036,9.822917,-0.124278,0.353957,-4.745588
09152,5.550172,-3.528471,9.887309,-0.088657,0.408149,-4.713815
09153,5.575056,-3.555780,9.834231,0.037785,0.442708,-4.693295
09154,5.621156,-3.277345,9.627529,0.198129,0.484143,-4.682062
09155,5.572474,-2.800007,9.420924,0.325416,0.508638,-4.671743
09156,5.709634,-2.416217,9.301924,0.387205,0.513570,-4.648215
09157,5.959449,-2.168044,9.207720,0.384759,0.546996,-4.622363
09158,6.089662,-2.100461,9.145644,0.339965,0.588538,-4.580634
09159,6.232630,-2.299379,9.192933,0.281639,0.622165,-4.527018
09160,6.276332,-2.591005,9.381013,0.252083,0.647832,-4.468336
09161,6.317902,-2.696044,9.528210,0.255015,0.657225,-4.390198
09162,6.264035,-2.480941,9.693200,0.255870,0.674900,-4.313035
09163,6.212619,-2.078485,9.765846,0.207583,0.687262,-4.229377
09164,6.144316,-1.347753,9.772253,0.096993,0.715907,-4.156031
09165,6.017345,-0.568935,9.712267,-0.152265,0.753677,-4.084019
09166,5.859758,-0.171210,9.540030,-0.507025,0.785999,-4.010537
09167,5.755867,-0.431499,9.353625,-0.867842,0.805976,-3.924833
09168,5.816584,-1.246121,9.296895,-1.127677,0.829405,-3.827513
09169,5.803159,-2.162963,9.288596,-1.208584,0.853539,-3.730591
09170,5.615874,-2.875705,9.362853,-1.132488,0.884690,-3.621283
09171,5.206676,-3.099504,9.483611,-0.973641,0.907279,-3.525717
09172,4.918874,-3.139095,9.514005,-0.810075,0.906039,-3.414104
09173,4.681511,-2.799572,9.537562,-0.661472,0.902862,-3.318615
09174,4.319820,-2.167202,9.359682,-0.594875,0.890919,-3.236643
09175,3.946098,-1.559031,9.231713,-0.643384,0.865528,-3.158915
09176,3.684887,-1.422666,9.234261,-0.799202,0.819845,-3.076859
09177,3.740615,-1.758531,9.290920,-0.924583,0.790695,-2.990137
09178,3.807068,-2.348571,9.348023,-1.002301,0.785506,-2.892113
09179,3.745398,-2.537177,9.475299,-0.954819,0.802479,-2.813380
09180,3.440486,-2.310215,9.325398,-0.917277,0.809439,-2.747935
09181,3.077990,-1.892079,9.293909,-0.913076,0.804678,-2.692249
09182,2.695861,-1.857772,9.072170,-0.995902,0.782238,-2.628052
09183,2.505218,-2.273334,9.097606,-1.046954,0.745192,-2.567071
09184,2.592511,-2.948323,9.105961,-1.016920,0.728475,-2.512742
09185,2.723478,-3.348795,9.165592,-0.861605,0.714244,-2.462123
09186,2.975118,-3.368956,9.298940,-0.674184,0.713318,-2.415042
09187,3.309352,-2.951984,9.403821,-0.515773,0.726485,-2.348705
09188,3.619028,-2.077002,9.407433,-0.469143,0.774166,-2.276764
09189,3.661631,-0.786780,9.232165,-0.613651,0.837069,-2.211942
09190,2.917979,0.715634,8.752540,-1.011343,0.897698,-2.170385
09191,1.553431,1.304854,8.555874,-1.689427,0.868956,-2.143395
09192,1.146690,0.011859,8.843830,-2.358441,0.806472,-2.121440
09193,1.519505,-2.608116,8.599902,-2.765714,0.778975,-2.100971
09194,2.080929,-5.446486,8.785131,-2.618729,0.807082,-2.056435
09195,2.352702,-7.285023,8.949708,-2.056029,0.808146,-2.012389
09196,2.482625,-7.411748,8.673337,-1.271826,0.827495,-1.991833
09197,2.218590,-5.912993,8.285272,-0.670763,0.827034,-1.991685
09198,1.346668,-4.190808,7.804519,-0.424271,0.786447,-1.999285
09199,0.712682,-3.593715,8.058697,-0.510741,0.693611,-1.979201
09200,0.979622,-4.449241,8.060030,-0.679501,0.635799,-1.946093
09201,1.190398,-5.928791,8.179277,-0.674544,0.620963,-1.864896
09202,1.178557,-7.128912,8.301983,-0.437413,0.582383,-1.767623
09203,1.149247,-7.655942,8.251052,-0.051928,0.533952,-1.647175
09204,1.178036,-7.096147,8.294739,0.358455,0.421743,-1.541413
09205,1.431683,-5.911146,8.266969,0.600252,0.352082,-1.440995
09206,1.476515,-4.497701,8.315068,0.608048,0.305003,-1.359281
09207,1.252250,-3.426798,8.384450,0.385197,0.287566,-1.279934
09208,1.008712,-3.267604,8.429627,0.013025,0.263324,-1.218473
09209,0.986748,-3.995090,8.438578,-0.304827,0.260948,-1.151653
09210,1.081629,-5.164083,8.340912,-0.450983,0.255298,-1.085661
09211,1.027169,-6.026672,8.400748,-0.408052,0.235995,-1.023433
09212,0.984670,-6.297767,8.298305,-0.249428,0.210805,-0.960649
09213,0.947662,-5.986548,8.385620,-0.097698,0.176819,-0.906206
09214,0.947172,-5.496502,8.446471,-0.015569,0.143370,-0.847195
09215,0.939306,-5.014517,8.542618,0.002148,0.126079,-0.812097
09216,0.889383,-4.685827,8.659848,-0.051110,0.110160,-0.784145
09217,0.629463,-4.944614,8.709164,-0.143810,0.085224,-0.737231
09218,0.483357,-5.567158,8.696622,-0.177556,0.060017,-0.679564
09219,0.660043,-6.237262,8.611804,-0.116689,0.029808,-0.611582
09220,0.790268,-6.451571,8.582853,0.037108,0.002495,-0.532473
09221,0.919744,-6.124490,8.584475,0.175511,-0.036123,-0.451968
09222,0.959978,-5.544326,8.626587,0.238384,-0.055071,-0.381356
09223,0.979171,-5.085473,8.698511,0.198478,-0.068118,-0.314867
09224,0.874094,-5.056591,8.718192,0.108425,-0.077476,-0.243487
09225,0.829856,-5.363252,8.744696,0.021153,-0.091657,-0.171383
09226,0.836943,-5.768210,8.678169,0.008659,-0.107586,-0.099037
09227,1.007807,-5.917064,8.688636,0.035840,-0.126233,-0.025899
09228,1.138689,-5.860195,8.791284,0.065737,-0.147698,0.065651
09229,1.202983,-5.793862,8.828778,0.070167,-0.167559,0.170613
09230,1.080349,-5.595470,8.759975,0.046498,-0.182672,0.267153
09231,0.916807,-5.318904,8.610478,0.011817,-0.205236,0.353557
09232,0.735846,-4.962076,8.598790,-0.039810,-0.246330,0.393678
09233,0.686041,-4.872534,8.539466,-0.129889,-0.272683,0.416737
09234,0.792377,-5.138709,8.599895,-0.211469,-0.286522,0.431219
09235,0.888642,-5.818752,8.642618,-0.214687,-0.294063,0.450796
09236,1.026383,-6.326062,8.704008,-0.123539,-0.305704,0.472876
09237,1.114330,-6.590561,8.857093,0.018661,-0.311305,0.510448
09238,1.161816,-6.545266,9.016988,0.156264,-0.318586,0.572795
09239,1.122614,-6.360523,9.163258,0.256142,-0.334035,0.646377
09240,1.090188,-6.163678,9.223281,0.331738,-0.347890,0.733790
09241,1.013626,-6.077492,9.213140,0.394682,-0.370748,0.832439
09242,1.143265,-6.088794,9.244795,0.464945,-0.389856,0.939524
09243,1.264811,-6.068070,9.326469,0.546753,-0.402714,1.054921
09244,1.456114,-5.846751,9.433760,0.626076,-0.408057,1.158967
09245,1.559149,-5.500429,9.497418,0.667778,-0.406051,1.263609
09246,1.619716,-5.222679,9.521700,0.674637,-0.389559,1.356344
09247,1.731528,-5.062863,9.538216,0.651247,-0.373009,1.450496
09248,1.820757,-4.838763,9.647293,0.619122,-0.347666,1.538832
09249,1.891775,-4.651431,9.744187,0.553179,-0.327623,1.628661
09250,1.927650,-4.421156,9.800306,0.472345,-0.300951,1.714592
09251,1.928993,-4.308266,9.858418,0.376470,-0.283790,1.796380
09252,1.985306,-4.317831,9.839016,0.294220,-0.276577,1.882627
09253,2.025948,-4.397536,9.818281,0.249028,-0.269368,1.978875
09254,2.041874,-4.380384,9.791715,0.222356,-0.266107,2.058090
09255,2.142884,-4.215306,9.766436,0.196899,-0.263803,2.149071
09256,2.262156,-4.228826,9.707305,0.187886,-0.262880,2.241672
09257,2.297896,-4.344163,9.643230,0.192305,-0.274416,2.337182
09258,2.337332,-4.518249,9.563570,0.253224,-0.285700,2.435539
09259,2.442902,-4.565807,9.573088,0.334669,-0.307203,2.528453
09260,2.638180,-4.489010,9.598613,0.415474,-0.316216,2.629364
09261,2.800119,-4.265413,9.687575,0.472779,-0.317598,2.733368
09262,2.898143,-4.030687,9.818934,0.472117,-0.311767,2.836164
09263,2.895581,-3.669084,9.826703,0.430519,-0.305001,2.943099
09264,2.831406,-3.422880,9.856865,0.341946,-0.302531,3.030306
09265,2.819404,-3.248656,9.650405,0.245470,-0.308321,3.109683
09266,2.731929,-3.288546,9.620354,0.153717,-0.310909,3.179597
09267,2.703673,-3.491973,9.545711,0.094730,-0.323816,3.240662
09268,2.744556,-3.742014,9.476337,0.070407,-0.331950,3.304415
09269,2.787935,-3.972212,9.449233,0.075550,-0.335008,3.370909
09270,2.885799,-4.026324,9.398968,0.096975,-0.331862,3.430711
09271,2.857769,-3.857232,9.515201,0.127781,-0.320638,3.477260
09272,2.836025,-3.634261,9.502885,0.112941,-0.328483,3.531834
09273,2.796426,-3.337159,9.544379,0.079090,-0.318597,3.572029
09274,2.697360,-3.031588,9.621166,0.002113,-0.308036,3.609420
09275,2.575814,-2.885079,9.512563,-0.104578,-0.314234,3.642859
09276,2.464727,-2.866390,9.370041,-0.209743,-0.334758,3.665718
09277,2.374220,-2.989982,9.172306,-0.303435,-0.366629,3.691445
09278,2.288675,-3.152299,9.123300,-0.366275,-0.400126,3.722770
09279,2.230161,-3.392736,9.196590,-0.388884,-0.428116,3.746331
09280,2.169118,-3.597992,9.134623,-0.369062,-0.456705,3.757874
09281,2.157812,-3.686754,9.141444,-0.326767,-0.486813,3.777383
09282,2.053627,-3.693605,9.217157,-0.276633,-0.503114,3.796130
09283,1.948762,-3.544671,9.208017,-0.256191,-0.523534,3.808957
09284,2.003424,-3.345122,9.188416,-0.258150,-0.543455,3.821338
09285,1.939770,-3.124669,9.200079,-0.275937,-0.548204,3.832521
09286,1.786652,-2.866434,9.122711,-0.322623,-0.578096,3.835850
09287,1.785675,-2.848734,9.102393,-0.403118,-0.594030,3.840884
09288,1.656529,-2.867386,9.184792,-0.486440,-0.612410,3.859210
09289,1.540807,-2.807027,9.162163,-0.581291,-0.652191,3.867772
09290,1.508106,-2.860777,9.260148,-0.692888,-0.691398,3.880145
09291,1.579136,-3.010319,9.252990,-0.797296,-0.714286,3.901727
09292,1.475661,-2.994047,9.396537,-0.879873,-0.741277,3.909477
09293,1.355528,-3.167848,9.213946,-0.939922,-0.784901,3.902249
09294,1.214854,-3.362702,9.055697,-0.913922,-0.829103,3.889317
09295,1.260876,-3.592376,9.070418,-0.819706,-0.875937,3.863952
09296,1.402416,-3.741098,9.029504,-0.697834,-0.907397,3.846078
09297,1.582030,-3.674281,9.075843,-0.552120,-0.930200,3.830014
09298,1.635513,-3.488581,9.233387,-0.407471,-0.926688,3.807000
09299,1.698252,-3.420666,9.558130,-0.322885,-0.906766,3.781972
09300,1.656632,-3.125894,9.735966,-0.290059,-0.881438,3.759848
09301,1.769920,-2.580160,9.698094,-0.327627,-0.857797,3.734265
09302,1.855758,-2.178139,9.687602,-0.477832,-0.804191,3.719700
09303,1.606845,-2.005189,9.511762,-0.630846,-0.776210,3.692109
09304,1.433584,-2.300670,9.429398,-0.814142,-0.764898,3.669032
09305,1.159321,-2.633593,9.301251,-0.898943,-0.758146,3.636813
09306,0.988846,-2.886356,9.226502,-0.920898,-0.788970,3.597970
09307,0.799868,-2.877633,9.406663,-0.867643,-0.804649,3.545063
09308,0.635273,-2.824099,9.585397,-0.823431,-0.820192,3.495011
09309,0.504196,-2.786015,9.672789,-0.729229,-0.841484,3.426272
09310,0.545569,-2.730810,9.609452,-0.698103,-0.863901,3.366960
09311,0.654940,-2.444532,9.464150,-0.643390,-0.858808,3.319609
09312,0.521855,-2.004542,9.620492,-0.633531,-0.841402,3.243506
09313,0.437151,-1.800320,9.675140,-0.710350,-0.858888,3.168496
09314,0.390886,-1.554841,9.512026,-0.786915,-0.865442,3.095887
09315,0.169418,-1.280283,9.550493,-0.851202,-0.878466,2.996809
09316,0.075757,-1.388567,9.489540,-0.977775,-0.911094,2.900946
09317,0.081382,-1.559727,9.498232,-0.998286,-0.915954,2.795595
09318,0.091655,-1.954324,9.763391,-1.036222,-0.935926,2.686447
09319,0.144381,-2.440883,9.853249,-1.049888,-0.944665,2.602952
09320,0.152497,-2.635876,9.976580,-1.031731,-0.934692,2.512114
09321,0.025769,-2.444414,9.675209,-1.067468,-0.920306,2.423940
09322,-0.215939,-1.795463,9.300190,-1.143303,-0.919052,2.336855
09323,-0.581319,-0.752823,8.838544,-1.328410,-0.947874,2.224156
09324,-0.861001,0.145254,8.624431,-1.703367,-0.989148,2.089485
09325,-1.030372,0.520991,8.654676,-2.227049,-1.039994,1.940199
09326,-0.976977,0.190057,8.801797,-2.811709,-1.076255,1.791894
09327,-0.875806,-0.603209,8.833045,-3.286032,-1.080020,1.640048
09328,-0.842887,-1.534706,8.584076,-3.663288,-1.069819,1.477069
09329,-0.822728,-2.445778,8.370583,-3.823540,-1.054531,1.307540
09330,-0.646187,-3.229278,8.361334,-3.830939,-1.011065,1.121762
09331,-0.352879,-3.890848,8.611302,-3.716799,-0.924774,0.953706
09332,-0.176747,-4.511531,8.759024,-3.458596,-0.823194,0.777223
09333,-0.199280,-4.669927,8.930356,-3.152633,-0.720923,0.596325
09334,-0.222852,-4.694396,8.657201,-2.879092,-0.628998,0.419486
09335,-0.078720,-4.448040,8.561466,-2.620742,-0.468106,0.226370
09336,-0.004962,-4.300075,8.496584,-2.525690,-0.278594,0.040234
09337,0.119000,-4.134937,8.278147,-2.476939,-0.100290,-0.132249
09338,0.261909,-4.085949,8.174576,-2.485450,0.097636,-0.317662
09339,0.291531,-4.462910,7.996103,-2.513825,0.289988,-0.481020
09340,0.348928,-5.372427,7.688992,-2.447676,0.474706,-0.612732
09341,0.167136,-6.291864,7.216303,-2.208365,0.630231,-0.731822
09342,-0.062265,-6.590178,6.891201,-1.861607,0.746413,-0.851053
09343,-0.253492,-6.267951,6.757909,-1.616662,0.849432,-0.971737
09344,-0.315080,-5.737206,6.331997,-1.522279,0.953758,-1.076878
09345,-0.269435,-5.195271,5.686340,-1.554576,1.057784,-1.160672
09346,-0.291682,-4.747516,5.158838,-1.626321,1.168632,-1.264757
09347,-0.405743,-4.600003,4.879111,-1.766999,1.263821,-1.364936
09348,-0.287965,-4.896363,4.261917,-1.955090,1.322012,-1.444725
09349,-0.166489,-5.459750,3.919914,-2.053721,1.406595,-1.513109
09350,-0.150716,-6.142750,3.583244,-2.109086,1.451986,-1.560202
09351,-0.171726,-6.620395,3.542095,-2.032104,1.486418,-1.616953
09352,-0.246424,-6.865533,3.466336,-1.922020,1.502392,-1.684141
09353,-0.332600,-6.812512,3.503160,-1.743866,1.525356,-1.769231
09354,-0.261602,-6.370729,3.578594,-1.563180,1.548507,-1.878057
09355,-0.167107,-5.925588,3.607841,-1.471207,1.573414,-1.997321
09356,0.111701,-5.910014,2.868875,-1.556930,1.589745,-2.079883
09357,0.397142,-6.305957,2.032919,-1.727902,1.616800,-2.124165
09358,0.625240,-7.038762,0.917609,-1.986655,1.628765,-2.106454
09359,0.640131,-7.720393,0.669044,-2.027890,1.659059,-2.098741
09360,0.475764,-7.891804,1.057530,-2.051149,1.634502,-2.129398
09361,0.417095,-7.616752,1.679066,-1.988000,1.607628,-2.165820
09362,0.457882,-7.330909,2.368869,-1.916617,1.584367,-2.215123
09363,0.753012,-7.132938,2.823844,-1.836267,1.596554,-2.286953
09364,0.953925,-7.327763,2.864289,-1.724330,1.624046,-2.367983
09365,1.040045,-8.321808,1.804746,-1.827211,1.608883,-2.412254
09366,1.587421,-9.583561,-0.378169,-1.955423,1.591107,-2.341686
09367,1.765782,-9.971144,-0.896641,-1.854313,1.619347,-2.307607
09368,1.706570,-9.957784,-1.202620,-1.796299,1.560616,-2.287453
09369,1.833448,-9.037690,-0.495073,-1.604456,1.534358,-2.335708
09370,1.986757,-7.644182,0.600525,-1.527680,1.518737,-2.403500
09371,2.269616,-6.656952,1.307790,-1.649058,1.481095,-2.462330
09372,2.563321,-6.907080,1.342918,-1.888877,1.494283,-2.494681
09373,2.554533,-9.071374,-0.088907,-2.379418,1.462358,-2.427246
09374,3.339429,-11.842730,-2.676022,-2.798601,1.395842,-2.198225
09375,3.784214,-13.043677,-3.630739,-2.782632,1.380700,-1.970386
09376,3.733719,-13.097662,-4.037208,-2.713299,1.292735,-1.775467
09377,3.754471,-11.742977,-3.440497,-2.521424,1.249358,-1.702528
09378,3.692748,-9.534596,-2.181613,-2.339864,1.265120,-1.710526
09379,3.646282,-7.299160,-0.812963,-2.387581,1.244444,-1.755979
09380,4.014730,-6.553626,-0.165885,-2.603858,1.244129,-1.822396
09381,4.366526,-7.281481,0.160096,-2.695145,1.295162,-1.873196
09382,4.318974,-9.122258,-0.428609,-2.613355,1.361894,-1.905858
09383,4.078221,-11.113568,-1.748302,-2.351430,1.376258,-1.885445
09384,4.172218,-12.327882,-2.661810,-1.908210,1.365890,-1.837890
09385,4.422073,-12.636703,-3.076712,-1.439001,1.329877,-1.776302
09386,4.929517,-12.025656,-2.760393,-0.935317,1.279119,-1.774811
09387,5.336716,-10.792930,-2.027634,-0.551572,1.233137,-1.805279
09388,5.619938,-9.591485,-1.378418,-0.367042,1.181677,-1.850910
09389,5.751654,-8.953438,-1.024783,-0.387266,1.151156,-1.880931
09390,5.745441,-8.841645,-0.665921,-0.469050,1.125065,-1.892681
09391,5.646433,-9.224906,-0.405909,-0.542450,1.103759,-1.890793
09392,5.619014,-9.943085,-0.602359,-0.582064,1.078224,-1.869137
09393,5.938959,-10.610598,-0.983634,-0.547579,1.065518,-1.806932
09394,6.371231,-10.317752,-0.984587,-0.489163,1.058102,-1.745794
09395,6.754684,-9.420658,-0.745318,-0.504718,1.042159,-1.713509
09396,6.979097,-8.658249,-0.576407,-0.595142,1.035588,-1.695131
09397,7.092673,-8.295292,-0.548382,-0.705566,1.032940,-1.695268
09398,7.207859,-8.455742,-0.458628,-0.777843,1.024801,-1.704524
09399,7.320896,-8.852972,-0.446040,-0.739773,1.017358,-1.717925
09400,7.327870,-9.364558,-0.441984,-0.676487,1.003116,-1.726103
09401,7.574734,-10.000504,-0.819121,-0.592494,0.968719,-1.665857
09402,7.926546,-10.183161,-1.129089,-0.462406,0.938771,-1.581232
09403,8.221754,-9.766772,-1.131460,-0.341076,0.895525,-1.478240
09404,8.333673,-8.837819,-0.723334,-0.266109,0.873332,-1.393033
09405,8.261183,-7.742164,-0.349042,-0.311678,0.885061,-1.320557
09406,8.304605,-7.020736,-0.253065,-0.452052,0.888867,-1.292317
09407,8.555037,-6.880753,-0.345747,-0.604203,0.874300,-1.283940
09408,8.542533,-7.211462,-0.486075,-0.672875,0.858186,-1.276172
09409,8.414233,-7.676749,-0.506549,-0.625474,0.848759,-1.293002
09410,8.274615,-7.984046,-0.503763,-0.493585,0.830085,-1.305432
09411,8.163979,-7.960309,-0.443588,-0.279311,0.805406,-1.321155
09412,8.064305,-7.697511,-0.279028,-0.046712,0.786935,-1.350403
09413,7.954521,-7.148786,-0.023105,0.214226,0.782564,-1.388045
09414,7.918001,-6.325870,0.215452,0.407933,0.774750,-1.429284
09415,7.912282,-5.395377,0.339710,0.435080,0.752316,-1.458639
09416,8.150991,-4.854239,0.141800,0.299197,0.718564,-1.487251
09417,8.458247,-4.916368,0.046683,0.169175,0.746515,-1.511609
09418,8.512113,-5.079933,0.140201,0.102966,0.736243,-1.541909
09419,8.783798,-5.248905,-0.028614,0.046386,0.694416,-1.550022
09420,9.099656,-5.418250,-0.174509,0.022823,0.682867,-1.541120
09421,9.229249,-5.596225,-0.195601,0.006608,0.658305,-1.524678
09422,9.404286,-5.547469,-0.166452,-0.045843,0.617240,-1.472726
09423,9.840972,-5.455496,0.013916,-0.126388,0.611767,-1.410692
09424,10.178804,-5.320375,0.379727,-0.194960,0.620387,-1.336261
09425,10.210647,-4.735457,0.690173,-0.289811,0.622085,-1.271841
09426,10.327565,-4.267411,0.764110,-0.463011,0.616161,-1.213823
09427,10.340152,-4.114138,0.711826,-0.667830,0.611025,-1.166534
09428,10.304525,-4.301545,0.559814,-0.815571,0.578487,-1.118226
09429,10.357106,-4.855158,0.459428,-0.895671,0.524116,-1.058761
09430,10.160742,-5.685764,0.290310,-0.796368,0.472097,-0.983421
09431,10.018912,-6.361202,0.200493,-0.520773,0.415674,-0.911629
09432,9.836280,-6.293130,0.449594,-0.146457,0.344156,-0.828514
09433,9.760544,-5.581259,0.655059,0.198734,0.271550,-0.764637
09434,9.825288,-4.570878,1.025547,0.391938,0.203924,-0.700086
09435,9.830040,-3.865561,1.250292,0.409953,0.148306,-0.639519
09436,9.824509,-3.510671,1.316943,0.343036,0.113457,-0.581247
09437,9.821595,-3.420313,1.298162,0.240285,0.093157,-0.529410
09438,9.890348,-3.192340,1.396235,0.113884,0.082609,-0.490813
09439,9.893774,-3.394158,1.378405,-0.039691,0.088693,-0.440991
09440,9.816142,-4.026055,1.273806,-0.085987,0.100907,-0.401235
09441,9.690274,-4.253148,1.237200,0.003721,0.095395,-0.359043
09442,9.618007,-4.147268,1.247327,0.128039,0.099272,-0.317406
09443,9.463640,-3.772899,1.308525,0.250137,0.099717,-0.298636
09444,9.373855,-3.310751,1.359228,0.328035,0.102528,-0.290586
09445,9.454103,-2.941871,1.391884,0.308333,0.092206,-0.287600
09446,9.456752,-3.117238,1.207093,0.266734,0.110520,-0.298654
09447,9.454062,-3.064974,1.218020,0.318595,0.112771,-0.305048
09448,9.461125,-3.051507,1.059999,0.324603,0.110464,-0.300543
09449,9.543764,-3.180366,0.964238,0.323802,0.114863,-0.281458
09450,9.463152,-3.280760,0.937057,0.362538,0.107493,-0.253393
09451,9.470259,-3.115603,0.869268,0.430661,0.087977,-0.219959
09452,9.465154,-2.661868,0.989280,0.469757,0.082624,-0.204946
09453,9.327649,-2.490302,0.912947,0.452610,0.076527,-0.199954
09454,9.417927,-2.186445,1.040176,0.411982,0.050079,-0.191231
09455,9.585084,-2.153611,1.075609,0.313990,0.057051,-0.182653
09456,9.577603,-2.163077,1.100791,0.209672,0.056949,-0.178929
09457,9.487954,-2.622945,0.797840,0.138256,0.069219,-0.161858
09458,9.547036,-2.676870,0.786439,0.107660,0.044876,-0.151556
09459,9.467464,-2.928051,0.597076,0.141605,0.057819,-0.142963
09460,9.563384,-2.519590,0.740804,0.178310,0.022698,-0.132133
09461,9.596633,-2.363952,0.814158,0.110996,0.037406,-0.124448
09462,9.471595,-2.580886,0.876025,0.082904,0.036554,-0.121819
09463,9.517550,-2.564932,0.962167,0.108413,0.031522,-0.122022
09464,9.622427,-2.224830,1.135299,0.062062,0.041899,-0.133756
09465,9.578766,-2.129778,1.235113,-0.034152,0.055534,-0.127765
09466,9.563597,-2.302030,1.138278,-0.140657,0.065324,-0.128906
09467,9.569196,-2.433358,1.100177,-0.232604,0.061906,-0.115757
09468,9.502692,-2.729917,1.001473,-0.294613,0.066403,-0.097255
09469,9.368753,-2.967295,0.978208,-0.268339,0.056883,-0.085806
09470,9.371694,-3.011431,0.998651,-0.219571,0.031227,-0.074040
09471,9.494604,-3.033472,0.984245,-0.154063,0.024366,-0.073119
09472,9.496132,-3.045623,1.072183,-0.079191,0.015759,-0.073114
09473,9.518718,-2.979478,1.044045,-0.020084,0.009149,-0.072027
09474,9.542716,-2.659422,1.220510,0.011508,-0.002767,-0.063501
09475,9.485739,-2.827749,1.059003,-0.003935,0.008406,-0.070762
09476,9.389525,-2.861472,1.157419,0.023680,-0.001820,-0.072211
09477,9.425034,-2.845263,1.073616,0.059515,-0.008056,-0.069445
09478,9.398918,-2.969470,1.028560,0.095284,-0.010909,-0.069983
09479,9.509599,-2.655133,1.211143,0.105372,-0.022598,-0.063324
09480,9.459236,-2.691628,1.123416,0.086976,-0.010929,-0.065970
09481,9.453189,-2.773519,1.140017,0.103631,-0.022035,-0.075209
09482,9.500323,-2.775624,1.066148,0.146900,-0.026723,-0.072866
09483,9.468432,-2.737239,1.106730,0.150510,-0.024983,-0.072630
09484,9.416103,-2.730728,1.107984,0.162340,-0.028021,-0.068821
09485,9.438492,-2.963698,1.037151,0.173864,-0.035659,-0.064018
09486,9.502330,-2.854057,1.045606,0.225086,-0.038998,-0.049039
09487,9.527063,-2.612521,1.177920,0.225588,-0.048087,-0.036456
09488,9.468865,-2.478917,1.195996,0.187479,-0.040211,-0.025793
09489,9.472136,-2.518135,1.108920,0.134216,-0.035342,-0.020676
09490,9.487411,-2.604504,1.099153,0.108773,-0.032773,-0.021191
09491,9.502690,-2.691075,1.089376,0.097791,-0.029529,-0.020980
09492,9.493042,-2.690596,1.036316,0.100330,-0.017190,-0.023382
09493,9.469080,-2.615888,1.083671,0.112550,-0.009735,-0.032220
09494,9.456155,-2.532584,1.073432,0.111225,-0.002579,-0.037891
09495,9.445469,-2.508905,1.066233,0.098944,0.003284,-0.035920
09496,9.500370,-2.491023,1.091351,0.102115,0.007187,-0.041457
09497,9.478704,-2.474862,1.142459,0.081819,0.002347,-0.036974
09498,9.467924,-2.451658,1.134460,0.054829,0.003028,-0.034812
09499,9.503475,-2.489772,1.075519,0.038111,-0.001184,-0.026086
09500,9.516300,-2.517208,1.064456,0.038563,-0.003295,-0.020365
09501,9.513817,-2.444217,1.083833,0.043426,-0.005320,-0.017852
09502,9.535196,-2.420380,1.101104,0.024662,-0.004810,-0.019568
09503,9.495810,-2.510565,1.091995,0.006193,-0.004287,-0.014803
09504,9.509080,-2.550114,1.058195,0.008479,-0.005301,-0.016791
09505,9.527901,-2.467297,1.071641,0.001946,-0.006482,-0.012369
09506,9.518487,-2.495743,1.085997,-0.012361,-0.000428,-0.013403
09507,9.499843,-2.565085,1.093409,-0.019428,-0.000742,-0.010553
09508,9.511220,-2.572136,1.124680,-0.004837,-0.002215,-0.010539
09509,9.500409,-2.563358,1.092544,-0.002627,-0.004458,-0.008389
09510,9.488401,-2.532566,1.103888,0.004364,-0.005374,-0.007099
09511,9.477586,-2.523834,1.071614,0.003013,-0.008218,-0.009223
09512,9.504399,-2.631482,1.072179,0.001945,-0.006483,-0.012366
09513,9.475874,-2.715075,1.004293,0.015852,-0.009544,-0.005648
09514,9.475590,-2.702975,1.026026,0.053078,-0.010570,-0.008690
09515,9.511454,-2.516505,1.097446,0.059855,-0.014850,-0.010505
09516,9.545002,-2.523068,1.102838,0.048808,-0.008220,-0.013743
09517,9.513050,-2.523395,1.076551,0.051842,-0.006436,-0.026566
09518,9.538314,-2.580617,1.053749,0.047431,-0.006526,-0.023352
09519,9.501141,-2.703053,0.980520,0.057914,-0.007759,-0.029162
09520,9.471994,-2.762442,0.957829,0.095224,-0.016720,-0.021269
09521,9.478599,-2.648226,0.983869,0.126766,-0.028632,-0.012258
09522,9.506781,-2.538632,1.094849,0.139942,-0.028780,-0.006257
09523,9.516357,-2.495938,1.101901,0.135395,-0.035610,-0.002716
09524,9.547240,-2.443105,1.103532,0.128523,-0.032596,0.003287
09525,9.590330,-2.420784,1.093396,0.116744,-0.033038,0.002890
09526,9.556978,-2.400074,1.109598,0.094544,-0.026453,-0.003401
09527,9.579776,-2.410850,1.061295,0.078943,-0.017752,-0.002740
09528,9.579021,-2.386613,1.105142,0.058082,-0.003754,-0.014499
09529,9.546844,-2.387545,1.079499,0.048349,0.000265,-0.019557
09530,9.525371,-2.384367,1.107443,0.030873,0.006999,-0.022619
09531,9.486828,-2.485434,1.079560,0.019564,0.009083,-0.024892
09532,9.488905,-2.519912,1.127717,0.018683,0.004164,-0.021268
09533,9.477530,-2.499298,1.118304,0.025529,0.000835,-0.011654
09534,9.499721,-2.498941,1.092006,0.028538,-0.007694,-0.005262
09535,9.509034,-2.457224,1.098233,0.032491,-0.010113,-0.006633
09536,9.530046,-2.434737,1.114231,0.022826,-0.015109,0.003363
09537,9.507168,-2.408351,1.071721,0.000228,-0.000924,-0.004898
09538,9.521828,-2.486169,1.085520,-0.023196,-0.000465,-0.009986
09539,9.525327,-2.556365,1.067618,-0.025298,0.008461,-0.012462
09540,9.535214,-2.525588,1.053073,-0.021431,0.019363,-0.020917
09541,9.514222,-2.534262,1.059357,-0.029323,0.019884,-0.026147
09542,9.485971,-2.617627,0.994640,-0.029053,0.024451,-0.027194
09543,9.476188,-2.633818,1.032736,-0.015871,0.014365,-0.017541
09544,9.464747,-2.613340,1.023709,0.004597,0.013636,-0.019294
09545,9.443040,-2.611328,1.051343,0.010737,0.003289,-0.006827
09546,9.465693,-2.622845,1.003554,0.019494,-0.002325,-0.001523
