// Start Time: Unknown
// Update Rate: 100.0Hz
// Filter Profile: human (46.1)
// Firmware Version: 4.3.5
PacketCounter,Acc_X,Acc_Y,Acc_Z,Gyr_X,Gyr_Y,Gyr_Z
42928,9.578308,-0.943248,2.081999,-0.016692,0.005947,0.001925
42929,9.535790,-0.973859,2.020396,-0.002380,0.006053,0.004271
42930,9.548741,-0.944075,2.064775,0.026324,0.003948,0.002481
42931,9.571124,-0.862917,2.125942,0.026334,0.003471,0.004797
42932,9.583498,-0.871195,2.074179,0.014111,0.007602,0.001424
42933,9.600129,-0.862310,2.145594,0.005952,0.004034,-0.001320
42934,9.636045,-0.942824,2.122275,-0.005201,0.008613,0.002891
42935,9.589941,-0.939396,2.066346,0.001808,0.014049,0.004531
42936,9.576707,-0.956568,2.056216,0.034288,0.015010,0.004313
42937,9.607620,-0.862466,2.039512,0.058865,0.022916,0.008394
42938,9.652990,-0.840456,2.164258,0.062791,0.040723,0.014221
42939,9.664714,-0.823359,2.181092,0.062421,0.055235,0.014697
42940,9.650782,-0.801948,2.271960,0.089760,0.064323,0.019736
42941,9.587834,-0.678322,2.472083,0.078337,0.081095,0.017927
42942,9.553114,-0.645190,2.466355,0.008500,0.074260,0.016028
42943,9.541630,-0.763148,2.295651,-0.072139,0.057514,0.017819
42944,9.552698,-0.878075,1.990843,-0.096425,0.038374,0.015099
42945,9.573692,-0.902132,1.798383,-0.042563,0.047205,0.007469
42946,9.571818,-0.749164,1.834640,0.005396,0.051115,-0.012289
42947,9.524571,-0.616027,1.749264,-0.030602,0.040144,-0.033190
42948,9.552233,-0.511379,1.674329,-0.106362,0.031656,-0.045446
42949,9.591512,-0.547770,1.840157,-0.191091,0.028625,-0.038287
42950,9.511797,-0.681221,1.968290,-0.291180,0.032013,-0.039582
42951,9.464811,-0.851572,2.107915,-0.347297,0.019439,-0.021034
42952,9.512173,-1.055981,2.386534,-0.373249,0.013334,0.004047
42953,9.511398,-1.305559,2.770373,-0.369415,0.001267,0.037715
42954,9.591328,-1.602248,2.927488,-0.328659,-0.017161,0.057405
42955,9.753909,-1.834597,2.856960,-0.191349,-0.005197,0.072386
42956,9.677602,-1.838558,2.781290,0.049665,0.033798,0.074033
42957,9.715945,-1.685119,2.821668,0.261570,0.055895,0.087886
42958,9.743158,-1.408380,2.562495,0.346177,0.085842,0.079307
42959,9.576218,-1.078292,2.194094,0.427920,0.140460,0.051281
42960,9.422444,-0.626557,1.744574,0.444301,0.192875,-0.001975
42961,9.285042,-0.116597,1.493756,0.320276,0.220283,-0.032076
42962,9.374302,0.100424,1.560035,-0.013984,0.202595,-0.007152
42963,9.632814,-0.185428,1.748765,-0.503865,0.228426,0.047321
42964,9.527528,-0.733935,1.733956,-0.776841,0.258535,0.075434
42965,9.259960,-1.177280,1.926767,-0.632235,0.227328,0.055963
42966,9.399826,-1.359606,2.500947,-0.260339,0.134540,0.042967
42967,9.797111,-1.250270,3.282857,-0.093814,0.106671,0.065132
42968,10.043664,-1.289675,3.694123,-0.205060,0.145232,0.096141
42969,10.083064,-1.540197,3.444485,-0.294295,0.205182,0.113471
42970,9.873860,-1.693164,3.417021,-0.142682,0.253871,0.100776
42971,9.932529,-1.509820,3.685700,0.082324,0.255440,0.062561
42972,9.944420,-1.303385,3.748143,0.161449,0.254217,0.045450
42973,9.695553,-1.336637,3.541939,0.136151,0.241513,0.016590
42974,9.500831,-1.625326,3.002946,0.097477,0.182828,0.019912
42975,9.348541,-1.758211,1.979475,0.180043,0.137416,0.014644
42976,9.234902,-1.522887,1.189114,0.407975,0.137437,0.006421
42977,9.080962,-0.993748,0.710027,0.602523,0.119296,-0.008109
42978,9.071375,-0.474454,0.472078,0.641429,0.087109,-0.038011
42979,9.310686,-0.024145,0.838738,0.496065,0.126184,-0.036726
42980,9.198053,0.246179,1.468323,0.162870,0.194074,0.022095
42981,8.934799,0.000820,2.220137,-0.308090,0.188289,0.086172
42982,9.060387,-0.639365,2.795082,-0.796946,0.141405,0.161129
42983,9.138962,-1.568021,2.990608,-1.150344,0.133548,0.231074
42984,9.065833,-2.747103,2.911600,-1.169983,0.130968,0.305998
42985,8.898082,-3.737800,2.703112,-0.855590,0.097316,0.366852
42986,8.883151,-4.265298,2.413699,-0.351163,0.053814,0.406019
42987,8.847951,-4.265688,2.288517,0.161754,0.014953,0.455372
42988,8.973084,-3.960762,2.153142,0.582784,-0.050557,0.510829
42989,9.045123,-3.435574,1.760917,0.948384,-0.082764,0.557020
42990,8.859839,-2.599023,1.461932,1.270108,-0.111969,0.590361
42991,8.662745,-1.665011,1.272011,1.456670,-0.163255,0.604065
42992,8.872713,-0.764248,1.300049,1.525225,-0.194196,0.612454
42993,9.032480,-0.061660,1.436446,1.397850,-0.172909,0.637064
42994,9.128338,0.359196,1.826175,0.979745,-0.129863,0.668338
42995,9.346624,0.278411,2.622990,0.193982,-0.067708,0.750252
42996,9.424868,-0.481813,3.126728,-0.769410,-0.015051,0.828042
42997,9.414844,-1.839398,3.613387,-1.444672,0.010689,0.888769
42998,9.288472,-3.826954,3.636069,-1.380523,-0.060031,0.858634
42999,9.580972,-5.252040,3.397500,-0.357249,-0.046764,0.854002
43000,9.881843,-4.681751,3.977419,0.590798,0.018791,0.842628
43001,9.779092,-3.469721,4.182573,0.791334,-0.003119,0.834898
43002,10.021908,-2.827521,3.933333,0.787793,-0.061463,0.814165
43003,10.217809,-2.709144,3.669314,0.864651,-0.064966,0.777127
43004,9.992883,-2.573985,3.107432,1.029852,-0.038687,0.716588
43005,9.817934,-2.029277,2.459017,1.219790,-0.020274,0.641848
43006,9.689324,-1.305708,2.078975,1.296171,0.026841,0.579359
43007,9.534319,-0.703984,1.895886,1.137295,0.075797,0.541019
43008,9.313546,-0.352729,1.824250,0.707794,0.091956,0.502525
43009,9.206556,-0.250047,1.883464,0.087475,0.119166,0.518798
43010,9.178659,-0.804358,2.142995,-0.596262,0.141356,0.567080
43011,9.065989,-1.800726,2.542735,-1.168444,0.168252,0.623690
43012,8.912253,-3.135654,2.796993,-1.361039,0.130003,0.650313
43013,8.991441,-4.222156,2.879012,-0.914083,0.127061,0.682482
43014,9.164870,-4.455016,3.645879,-0.295865,0.173517,0.703034
43015,9.219131,-4.039121,4.034846,-0.179778,0.185738,0.743661
43016,9.013695,-4.130802,3.524846,-0.285653,0.149992,0.778820
43017,9.047093,-4.463335,3.242485,-0.035087,0.094805,0.773769
43018,9.292147,-4.423062,3.405609,0.341485,0.083902,0.760153
43019,9.089209,-3.964244,3.100300,0.530765,0.099785,0.738429
43020,8.763184,-3.470422,2.332203,0.567111,0.069521,0.715432
43021,8.730300,-3.007442,1.400605,0.539061,0.035533,0.692322
43022,8.771811,-2.616092,1.059565,0.534380,0.054625,0.668883
43023,8.749435,-2.409736,1.339501,0.478097,0.087254,0.674976
43024,8.774370,-2.493641,1.845640,0.214384,0.107724,0.684086
43025,8.785297,-2.880317,2.354651,-0.079179,0.130759,0.709794
43026,8.873113,-3.371099,2.744724,-0.275908,0.166448,0.748759
43027,8.751806,-3.784150,3.159797,-0.394234,0.196820,0.794971
43028,8.656876,-4.142045,3.808540,-0.348131,0.201473,0.802267
43029,8.686987,-4.401572,4.611747,-0.250475,0.186874,0.804913
43030,8.787877,-4.606308,4.642537,-0.248889,0.178808,0.808913
43031,8.736293,-4.650964,4.120204,-0.196260,0.186739,0.800673
43032,8.704380,-4.351757,3.775265,0.009504,0.188413,0.778572
43033,8.727330,-4.081016,3.505355,0.092209,0.168324,0.750026
43034,8.644869,-4.141978,2.748108,0.050576,0.151568,0.724830
43035,8.567975,-4.241711,2.027111,0.106512,0.152766,0.715107
43036,8.546867,-4.302882,1.687087,0.193481,0.169972,0.712685
43037,8.497866,-4.293727,1.817256,0.316945,0.170644,0.717395
43038,8.451269,-4.191135,2.499548,0.374692,0.180180,0.722280
43039,8.371450,-3.964432,3.359812,0.348486,0.206679,0.731981
43040,8.341696,-3.897117,3.996081,0.052686,0.227329,0.759416
43041,8.318469,-4.018483,3.939426,-0.279723,0.264730,0.780392
43042,8.372291,-4.175805,3.880753,-0.421858,0.315983,0.790188
43043,8.295695,-4.351662,4.160293,-0.524207,0.360843,0.790425
43044,8.215061,-4.838456,4.701552,-0.622055,0.365808,0.798900
43045,8.238843,-5.817219,5.240769,-0.673471,0.354739,0.835581
43046,8.264224,-6.943814,5.055148,-0.577502,0.369385,0.879554
43047,8.173727,-7.481450,4.271697,-0.168689,0.403372,0.886027
43048,8.101328,-6.983954,3.946291,0.369116,0.445121,0.862923
43049,8.046017,-6.125848,3.556371,0.611027,0.427642,0.840942
43050,8.038577,-5.633442,2.904820,0.694431,0.383945,0.811219
43051,7.966085,-5.404678,2.329907,0.759750,0.362614,0.786499
43052,7.898229,-5.370516,1.951457,0.824281,0.352849,0.770765
43053,7.882186,-5.337717,1.871478,0.832101,0.352738,0.793000
43054,8.034457,-5.503615,1.882982,0.766574,0.365825,0.844503
43055,8.069520,-5.528934,2.220167,0.706377,0.421412,0.886673
43056,7.898532,-5.394202,2.998720,0.647075,0.465754,0.917410
43057,7.662379,-4.992821,3.940383,0.540189,0.478436,0.926810
43058,7.582727,-4.500283,4.813165,0.323683,0.494026,0.921331
43059,7.350805,-4.247394,5.411462,-0.069812,0.524447,0.921048
43060,7.007624,-4.668196,5.103730,-0.547067,0.514064,0.936910
43061,6.795446,-5.503935,4.320897,-0.716892,0.470557,0.950761
43062,6.823400,-6.333761,3.674283,-0.613385,0.420278,0.956804
43063,6.774615,-6.956644,2.999137,-0.405160,0.371297,0.960279
43064,6.724212,-7.203051,2.244823,-0.096853,0.326739,0.956710
43065,6.689079,-7.141646,1.756086,0.288314,0.286295,0.940650
43066,6.556859,-6.814058,1.711467,0.585334,0.252388,0.936644
43067,6.514758,-6.480596,1.956682,0.801812,0.217398,0.927552
43068,6.671870,-5.974259,2.414855,0.905992,0.208162,0.920030
43069,6.742621,-5.419216,2.970992,0.846526,0.262884,0.921022
43070,6.698671,-4.891419,3.522052,0.624238,0.325110,0.923424
43071,6.705406,-4.571509,4.191071,0.272495,0.349245,0.934223
43072,6.746483,-4.515525,4.886230,-0.136964,0.366851,0.941062
43073,6.705092,-4.782255,5.566457,-0.533164,0.387341,0.938095
43074,6.612087,-5.337160,5.855956,-0.903178,0.389299,0.933078
43075,6.380683,-6.167774,5.348862,-1.197972,0.365637,0.943291
43076,6.166793,-6.959972,4.469824,-1.233143,0.328099,0.931176
43077,5.980811,-7.607140,3.902350,-0.982050,0.281483,0.901220
43078,5.891065,-8.003187,3.746127,-0.619321,0.218288,0.845874
43079,5.792074,-8.151165,3.460978,-0.219159,0.169192,0.788642
43080,5.647230,-8.131341,3.299653,0.192231,0.155498,0.755183
43081,5.426162,-7.845041,3.183919,0.550524,0.158005,0.744008
43082,5.350280,-7.399228,3.387378,0.816356,0.156632,0.745852
43083,5.512272,-6.903414,3.609485,0.907532,0.163305,0.740733
43084,5.625724,-6.525266,3.733226,0.855834,0.187162,0.747849
43085,5.711512,-6.287945,4.181737,0.765808,0.195241,0.748475
43086,5.737086,-6.079007,4.832317,0.613237,0.219263,0.751610
43087,5.644108,-6.095710,5.490943,0.329900,0.231352,0.767234
43088,5.499586,-6.476770,5.900803,0.033652,0.217499,0.780560
43089,5.405659,-7.041407,5.905292,-0.182129,0.214622,0.800136
43090,5.270593,-7.672761,5.428929,-0.273099,0.192311,0.808495
43091,5.212506,-7.970772,4.749142,-0.136081,0.167807,0.789963
43092,5.205431,-7.851823,4.312103,0.132167,0.150922,0.737950
43093,5.084070,-7.749139,4.017767,0.357534,0.107832,0.685642
43094,5.062938,-7.789890,3.738937,0.570394,0.064205,0.656530
43095,4.921894,-8.001784,3.519697,0.809804,0.036277,0.648403
43096,4.706559,-8.035901,3.250012,1.080918,0.025282,0.657633
43097,4.525915,-7.766479,3.156924,1.311688,0.027557,0.675316
43098,4.461423,-7.121024,3.432116,1.481998,0.040088,0.675374
43099,4.489609,-6.272307,3.816165,1.476273,0.059490,0.655934
43100,4.582034,-5.494609,4.207634,1.346402,0.085656,0.627156
43101,4.697685,-4.800276,4.533932,1.046931,0.135085,0.599419
43102,4.789833,-4.289062,4.590930,0.532418,0.206722,0.580830
43103,4.672450,-4.059198,4.361358,-0.096871,0.278863,0.567971
43104,4.539587,-3.992151,4.210918,-0.698377,0.302638,0.556833
43105,4.698044,-4.148506,4.362100,-1.283630,0.253524,0.541756
43106,4.875524,-4.791254,4.606512,-1.872566,0.198085,0.525292
43107,4.537524,-6.399563,5.045085,-2.311924,0.152345,0.523827
43108,4.101448,-8.548618,5.026111,-2.505864,0.060136,0.549073
43109,3.748936,-10.803065,4.747952,-2.243643,0.041841,0.601248
43110,3.465694,-12.154132,4.567494,-1.363976,0.084944,0.671996
43111,3.494967,-11.434007,5.029116,-0.376996,0.127836,0.682946
43112,3.645285,-9.882100,5.218026,0.140814,0.094001,0.676634
43113,3.892698,-8.922170,4.774102,0.404157,-0.015041,0.639731
43114,3.958758,-8.937451,3.613349,0.683280,-0.127316,0.593600
43115,3.903113,-8.947023,2.998905,1.220444,-0.218702,0.540078
43116,3.998142,-8.438572,3.261112,1.654992,-0.262343,0.486354
43117,4.222788,-7.857894,3.931635,1.888927,-0.203056,0.458739
43118,4.213783,-7.043279,4.560121,1.941514,-0.056171,0.443910
43119,3.931156,-6.013589,5.331964,1.795158,0.074373,0.435374
43120,3.742402,-5.023529,6.025645,1.397588,0.138211,0.454915
43121,3.533311,-4.564245,6.452078,0.674696,0.124181,0.487521
43122,3.410737,-5.211201,6.197079,-0.204786,0.044026,0.513042
43123,3.476054,-6.753467,5.367668,-0.657032,-0.031193,0.524409
43124,3.533815,-8.382173,4.867451,-0.607507,-0.052039,0.521596
43125,3.598730,-9.425153,4.678695,-0.236799,-0.064025,0.499790
43126,3.729040,-9.757449,4.965920,0.295495,-0.049507,0.467783
43127,3.788616,-9.224741,5.637252,0.834312,-0.000923,0.425609
43128,3.458151,-8.529416,6.044087,1.210906,0.033545,0.374052
43129,3.106523,-8.194883,6.265432,1.479791,0.014413,0.311626
43130,3.024535,-8.246892,6.329500,1.714473,-0.036819,0.265408
43131,3.032652,-8.213423,6.296379,2.027597,-0.051072,0.259419
43132,3.084111,-7.830314,6.420189,2.313592,-0.050156,0.285099
43133,3.082790,-7.303278,6.428500,2.417781,-0.043060,0.297459
43134,3.303700,-6.640166,6.179311,2.362039,-0.011022,0.273026
43135,3.575861,-5.806090,5.831268,2.211062,0.076645,0.205610
43136,3.568345,-4.963559,5.682733,1.886046,0.184249,0.154102
43137,3.314505,-4.690894,5.458799,1.320395,0.199034,0.144870
43138,3.239165,-5.366499,5.163865,0.757941,0.155037,0.172133
43139,3.416516,-6.433390,5.105606,0.444278,0.152417,0.248428
43140,3.415918,-7.197252,5.476987,0.485812,0.228333,0.322322
43141,3.073145,-7.110560,6.441532,0.590226,0.281119,0.379593
43142,2.889007,-6.905628,7.156699,0.522609,0.250083,0.413001
43143,2.981539,-7.081581,7.557983,0.460017,0.218933,0.438240
43144,2.946401,-7.192482,7.619786,0.546233,0.219674,0.433912
43145,2.669661,-7.243389,7.344624,0.717473,0.181943,0.409459
43146,2.608092,-7.365905,6.788322,0.876635,0.072978,0.387266
43147,2.906537,-7.608031,6.184626,1.119373,0.003566,0.373991
43148,3.175945,-7.689814,6.097325,1.510034,0.034670,0.371002
43149,2.977409,-7.207540,6.126066,1.811063,0.062963,0.372060
43150,2.794674,-6.398153,6.288925,1.932686,0.037465,0.363472
43151,2.762051,-5.633805,6.460273,1.933797,0.024836,0.348955
43152,2.635272,-5.052254,6.673645,1.830366,0.048020,0.335584
43153,2.391782,-4.595901,6.771519,1.625678,0.064436,0.328992
43154,2.297514,-4.284929,6.861157,1.325461,0.081735,0.331048
43155,2.241102,-4.216250,7.087732,0.951504,0.117563,0.352745
43156,2.335330,-4.225109,6.983853,0.617637,0.109625,0.361263
43157,2.576268,-4.133174,7.388926,0.514822,0.130340,0.366681
43158,2.559944,-4.269075,8.309434,0.391544,0.142722,0.372291
43159,2.442536,-4.794561,8.524728,0.112201,0.085690,0.377701
43160,2.487752,-5.806920,8.051183,0.093220,0.046388,0.368325
43161,2.632657,-6.368850,7.584450,0.477323,0.030161,0.336911
43162,2.717259,-6.079772,7.431260,0.900357,0.041057,0.307848
43163,2.711048,-5.330966,7.297676,1.089724,0.038859,0.261994
43164,2.793853,-4.625819,7.453243,1.297177,0.019091,0.199438
43165,2.787193,-3.926958,7.784932,1.420924,0.025992,0.139190
43166,2.597580,-3.346254,8.111362,1.309673,0.033003,0.092822
43167,2.405705,-2.972241,8.117262,0.991803,0.036433,0.053541
43168,2.227683,-2.914966,7.953288,0.615277,0.055002,0.037518
43169,2.113925,-3.174419,7.594365,0.200881,0.047607,0.036346
43170,2.052169,-3.713111,7.084556,-0.230956,0.053669,0.030656
43171,2.140089,-4.331168,6.330819,-0.490680,0.061677,0.010237
43172,2.175968,-4.583654,6.178382,-0.421301,0.098836,-0.006891
43173,1.936360,-4.318568,7.100127,-0.370703,0.128557,-0.009800
43174,1.639114,-4.729262,7.859511,-0.567266,0.071829,0.043928
43175,1.697953,-5.744121,8.305469,-0.757771,0.023148,0.109866
43176,1.684319,-6.837109,8.469967,-0.653674,0.021043,0.196317
43177,1.907581,-7.140739,8.132478,-0.157420,-0.035132,0.242741
43178,2.368798,-6.335201,8.624635,0.399914,-0.071354,0.234514
43179,2.647464,-5.519100,8.981820,0.582575,-0.146367,0.195918
43180,2.662559,-5.237421,8.429882,0.575231,-0.219118,0.115444
43181,2.517592,-4.987402,7.519723,0.760041,-0.247735,0.032145
43182,2.356404,-4.365998,7.582438,1.097742,-0.235397,-0.023000
43183,2.162147,-3.800513,8.166924,1.233782,-0.227097,-0.030587
43184,2.097684,-3.466255,8.619208,1.039695,-0.250981,-0.012139
43185,2.104784,-3.747097,8.696229,0.688205,-0.259745,0.011470
43186,2.213319,-4.368355,8.450876,0.485045,-0.253639,0.030085
43187,2.306977,-4.671492,7.975688,0.487465,-0.222981,0.027836
43188,2.335558,-4.522752,7.696140,0.587259,-0.187820,0.007764
43189,2.387389,-4.071467,7.962903,0.604001,-0.137135,-0.006998
43190,2.359694,-3.753378,8.269990,0.471425,-0.125565,-0.007578
43191,2.438728,-3.598741,8.254155,0.311140,-0.134167,-0.009489
43192,2.585999,-3.520342,8.442920,0.293400,-0.108900,-0.018185
43193,2.580942,-3.543121,9.010369,0.294571,-0.097822,-0.013847
43194,2.624742,-3.699844,9.009540,0.131790,-0.129921,-0.009333
43195,2.807392,-4.224484,8.791540,0.045761,-0.127389,-0.012099
43196,2.728860,-4.668954,8.512939,0.111063,-0.117933,-0.014097
43197,2.754828,-4.784776,8.142844,0.263451,-0.140436,-0.026096
43198,2.773995,-4.533354,8.023825,0.380253,-0.138977,-0.043728
43199,2.729366,-4.065800,7.939871,0.411654,-0.131526,-0.073601
43200,2.682438,-3.517628,7.858278,0.375823,-0.114108,-0.104420
43201,2.621976,-2.913313,7.850771,0.286022,-0.077294,-0.136889
43202,2.588042,-2.354043,7.952938,0.132293,-0.020102,-0.168774
43203,2.583874,-2.023883,8.352598,-0.208033,0.039187,-0.190786
43204,2.642957,-2.041069,8.380748,-0.827885,0.058182,-0.189061
43205,2.849416,-2.428747,7.912624,-1.437796,0.079753,-0.206605
43206,2.999530,-2.994794,7.736971,-1.714046,0.150794,-0.234686
43207,2.863797,-3.454766,7.965428,-1.783525,0.197099,-0.249142
43208,2.746191,-3.784945,7.660817,-2.004052,0.189679,-0.265583
43209,2.654073,-4.225613,7.442824,-2.222613,0.217233,-0.291280
43210,2.506961,-5.032222,8.073715,-2.220267,0.254581,-0.291451
43211,2.350853,-6.209781,8.299266,-2.226652,0.189644,-0.220564
43212,2.482244,-7.536383,7.612399,-2.078566,0.094816,-0.142542
43213,2.572325,-8.305776,7.513228,-1.431497,0.103914,-0.097865
43214,2.571988,-7.924609,8.326158,-0.825197,0.082432,-0.087001
43215,2.476172,-7.785339,9.107022,-0.591811,0.015880,-0.066675
43216,2.346871,-8.521352,8.993510,-0.315304,-0.070339,-0.017565
43217,2.237927,-8.779331,8.089327,0.258191,-0.133955,0.011420
43218,2.247834,-7.764328,7.873988,0.929517,-0.140771,0.002461
43219,2.308511,-6.230150,8.166169,1.287079,-0.180471,-0.022977
43220,2.713111,-4.886464,7.859260,1.285087,-0.230031,-0.063280
43221,3.029525,-3.709643,7.179534,1.204709,-0.192453,-0.127483
43222,2.986117,-2.745210,6.798974,1.142934,-0.116952,-0.197245
43223,2.950650,-1.978699,6.853841,0.890809,-0.046998,-0.257495
43224,2.918849,-1.677992,7.341963,0.309045,0.018952,-0.287936
43225,2.773975,-1.973012,7.865774,-0.638701,0.048456,-0.277873
43226,2.769938,-3.261736,7.860371,-1.586767,0.039640,-0.229295
43227,2.848892,-4.982009,7.270710,-2.025225,0.066819,-0.167165
43228,2.742203,-6.280963,6.674174,-1.739547,0.139132,-0.150753
43229,2.647753,-6.364880,7.355519,-1.313653,0.181325,-0.151725
43230,2.609467,-6.221826,7.790567,-1.390948,0.157299,-0.157238
43231,2.741235,-6.564836,7.396317,-1.422311,0.139028,-0.172094
43232,2.704901,-6.845444,7.347922,-1.164627,0.154491,-0.186046
43233,2.718811,-6.800999,7.310279,-0.911862,0.120876,-0.193003
43234,2.831701,-6.584465,7.022887,-0.733211,0.080006,-0.210203
43235,2.927638,-6.182700,6.638210,-0.555267,0.075971,-0.240300
43236,2.956571,-5.594814,6.719133,-0.405932,0.100578,-0.272456
43237,2.853407,-5.239826,7.058455,-0.424141,0.113968,-0.286018
43238,2.791788,-5.379388,7.284172,-0.661346,0.098533,-0.286528
43239,2.775043,-5.894749,7.385336,-0.852448,0.088306,-0.255426
43240,2.766144,-6.497592,7.443669,-0.896549,0.092125,-0.207260
43241,2.794105,-6.711898,7.404681,-0.877168,0.111176,-0.169816
43242,2.801642,-6.433571,7.448917,-0.802784,0.138766,-0.160717
43243,2.933368,-6.055962,7.592561,-0.795198,0.168976,-0.174481
43244,2.972977,-5.902532,7.516890,-0.820182,0.192254,-0.199280
43245,3.021872,-5.995060,7.540217,-0.816925,0.190802,-0.228550
43246,3.024478,-6.382703,7.501570,-0.853233,0.173163,-0.244310
43247,3.052049,-6.969685,7.041204,-0.867630,0.144965,-0.230389
43248,3.068742,-7.417724,6.243443,-0.754678,0.140057,-0.215519
43249,3.113469,-7.456001,5.721496,-0.480596,0.157056,-0.210734
43250,3.164191,-6.938213,5.866136,-0.268857,0.184670,-0.217746
43251,3.126018,-6.300120,5.900787,-0.337738,0.206466,-0.239361
43252,2.909193,-5.952775,6.335953,-0.490705,0.223615,-0.255593
43253,2.492724,-6.203254,7.063784,-0.718399,0.181685,-0.229928
43254,2.311579,-7.026250,6.873739,-1.008373,0.076595,-0.185019
43255,2.454195,-7.790080,6.291033,-1.067989,0.057627,-0.135437
43256,2.626766,-8.156217,6.044698,-0.806861,0.116395,-0.093406
43257,2.849736,-7.581844,6.367614,-0.505278,0.166445,-0.100760
43258,3.054835,-6.686196,6.706482,-0.402066,0.169493,-0.136037
43259,3.066158,-6.444680,7.421714,-0.358352,0.128727,-0.156362
43260,2.813405,-7.215996,7.818663,-0.357174,0.032451,-0.157288
43261,2.722805,-8.345975,7.493403,-0.247438,-0.072774,-0.172725
43262,2.875587,-9.053376,6.785876,0.145364,-0.066063,-0.191312
43263,2.999657,-8.622810,6.543318,0.765733,0.023849,-0.209120
43264,3.038428,-7.125200,6.748055,1.239010,0.042750,-0.255068
43265,3.076020,-5.821172,6.644866,1.348486,-0.006474,-0.339100
43266,3.045807,-5.335773,6.176458,1.096867,-0.032595,-0.413463
43267,2.881868,-5.431340,5.417793,0.863659,-0.007596,-0.478422
43268,2.828222,-5.185130,4.923804,0.812920,0.063544,-0.515945
43269,2.748142,-4.814166,4.715175,0.560623,0.101401,-0.497439
43270,2.850033,-5.030032,4.668200,0.028677,0.047988,-0.424127
43271,3.295523,-5.666517,4.931074,-0.406138,0.031388,-0.367293
43272,3.583434,-5.880718,6.037247,-0.553746,0.126869,-0.323814
43273,3.507244,-5.518809,7.295612,-0.696627,0.201365,-0.300208
43274,3.309988,-5.156862,8.092105,-1.014127,0.195466,-0.300697
43275,3.173162,-5.456492,8.067839,-1.389698,0.151906,-0.310037
43276,3.195453,-6.381060,7.252883,-1.564046,0.097769,-0.319306
43277,3.373583,-7.527877,6.310902,-1.395057,0.056440,-0.345517
43278,3.571974,-8.579640,5.302564,-0.977646,0.011512,-0.379939
43279,3.750533,-8.999799,4.508102,-0.352777,-0.021837,-0.419514
43280,3.866621,-8.397837,4.378709,0.274417,-0.006714,-0.467894
43281,3.696059,-7.219142,4.761148,0.579233,-0.005174,-0.512188
43282,3.434929,-6.252909,5.188132,0.639476,-0.024681,-0.546536
43283,3.225907,-5.455105,5.544111,0.481647,-0.026687,-0.557326
43284,3.063764,-4.902317,5.698360,0.125922,-0.016696,-0.554341
43285,3.004486,-4.694530,5.731161,-0.321365,-0.022639,-0.534440
43286,3.252741,-4.736890,5.913328,-0.764851,-0.027276,-0.511492
43287,3.669818,-5.035207,6.029596,-1.136712,-0.019811,-0.493538
43288,3.904631,-5.610624,6.408385,-1.370746,-0.006941,-0.492341
43289,3.989945,-6.630802,6.832343,-1.519737,-0.029341,-0.487229
43290,4.004461,-7.925605,6.714106,-1.512994,-0.059276,-0.468987
43291,3.981110,-9.041322,6.473345,-1.166899,-0.060531,-0.462094
43292,4.029809,-9.219432,6.316302,-0.582318,-0.051343,-0.499972
43293,4.075093,-8.327883,6.205420,-0.027575,-0.052664,-0.554915
43294,4.083401,-7.340849,5.890362,0.291875,-0.069778,-0.606506
43295,3.878361,-6.999515,5.259688,0.419934,-0.116009,-0.642319
43296,3.750448,-7.138826,4.540415,0.501664,-0.172285,-0.689631
43297,3.717017,-7.219961,4.009735,0.661780,-0.233247,-0.714234
43298,3.849334,-6.942783,4.278251,0.858665,-0.246337,-0.707888
43299,3.920638,-6.397667,4.900909,0.854886,-0.198583,-0.682162
43300,3.853754,-5.778184,5.555777,0.656188,-0.159345,-0.658211
43301,3.895400,-5.350113,6.198474,0.269332,-0.135517,-0.611157
43302,4.042173,-5.377396,6.470374,-0.305830,-0.122064,-0.563647
43303,4.267363,-5.966701,6.294154,-0.748757,-0.120593,-0.529579
43304,4.705149,-6.503916,6.095291,-0.929034,-0.100416,-0.514830
43305,4.993029,-6.872960,6.027080,-0.973105,-0.079087,-0.516061
43306,5.061196,-7.165953,6.066756,-0.850457,-0.079579,-0.545216
43307,5.086475,-7.302223,6.227794,-0.644434,-0.119133,-0.595110
43308,4.927666,-7.335065,5.866577,-0.419527,-0.156172,-0.668046
43309,4.716163,-7.306282,5.197201,-0.082319,-0.169394,-0.731693
43310,4.530275,-6.977558,4.682682,0.269590,-0.163141,-0.787283
43311,4.482332,-6.494618,4.276024,0.515632,-0.158195,-0.833756
43312,4.517669,-5.844306,3.975362,0.649476,-0.161888,-0.868298
43313,4.580995,-5.425076,4.188241,0.665621,-0.186350,-0.855840
43314,4.785736,-5.190833,4.421561,0.449169,-0.231863,-0.817642
43315,5.079307,-5.302322,4.689153,0.091337,-0.236668,-0.769081
43316,5.331283,-5.614449,4.958409,-0.234435,-0.213481,-0.711653
43317,5.551859,-5.788312,5.524844,-0.459731,-0.193593,-0.684513
43318,5.669938,-5.706043,6.337417,-0.631407,-0.175618,-0.671996
43319,5.714228,-5.654885,6.880849,-0.860503,-0.175668,-0.683443
43320,5.549569,-5.816657,6.696187,-1.141193,-0.181682,-0.693175
43321,5.415143,-6.489270,6.010069,-1.271802,-0.203446,-0.693029
43322,5.470364,-7.463615,5.289407,-1.159579,-0.235929,-0.680657
43323,5.631210,-8.386701,4.867389,-0.793606,-0.279749,-0.667455
43324,5.833246,-8.950182,4.852975,-0.269470,-0.346277,-0.681711
43325,5.904042,-9.155420,5.189894,0.287996,-0.404366,-0.696941
43326,5.752333,-9.044191,5.109845,0.753170,-0.443255,-0.693199
43327,5.358684,-8.187372,4.301595,1.131682,-0.443730,-0.699877
43328,5.033007,-6.723485,4.061853,1.437836,-0.434873,-0.710505
43329,5.146264,-5.303213,4.046788,1.588016,-0.411132,-0.711283
43330,5.420604,-3.994365,4.370495,1.461854,-0.359934,-0.690779
43331,5.716297,-3.259724,4.673602,0.970797,-0.344724,-0.646907
43332,6.136839,-2.938141,4.583022,0.287534,-0.333684,-0.632437
43333,6.526434,-3.462108,4.916355,-0.400883,-0.283903,-0.613587
43334,6.644175,-4.630353,5.136014,-0.943132,-0.270788,-0.588765
43335,6.707593,-5.845073,5.416705,-1.092052,-0.301972,-0.552734
43336,6.870249,-6.465807,6.209117,-0.962438,-0.279192,-0.525121
43337,6.740519,-6.495744,7.093562,-0.863570,-0.246583,-0.516901
43338,6.482499,-6.513789,7.139550,-0.835229,-0.242874,-0.532198
43339,6.326310,-6.830208,6.446434,-0.705374,-0.251111,-0.562644
43340,6.202153,-7.150782,5.380533,-0.379797,-0.260679,-0.611224
43341,6.127476,-7.273013,4.381844,0.095391,-0.285563,-0.666243
43342,6.175273,-6.918761,3.550100,0.628282,-0.323745,-0.706637
43343,6.132408,-6.118293,3.002961,1.009789,-0.362957,-0.729217
43344,6.199541,-5.199953,2.727013,1.162923,-0.401705,-0.748765
43345,6.359966,-4.603247,2.921754,1.114172,-0.409479,-0.745677
43346,6.598236,-4.282296,3.422370,0.908569,-0.406915,-0.721176
43347,6.887762,-4.045069,4.169511,0.627487,-0.395378,-0.662920
43348,7.102477,-3.892876,5.015573,0.239530,-0.348528,-0.602744
43349,7.297409,-3.790378,5.762097,-0.252936,-0.288261,-0.542998
43350,7.401886,-3.908640,6.451378,-0.742930,-0.223108,-0.509928
43351,7.232399,-4.413137,6.874258,-1.136662,-0.178743,-0.506380
43352,7.053460,-5.157499,6.628575,-1.396461,-0.169323,-0.517614
43353,6.931735,-5.951859,5.941721,-1.409006,-0.148447,-0.523584
43354,6.858145,-6.865673,5.088421,-1.139455,-0.132266,-0.521504
43355,6.825266,-7.420577,4.296023,-0.612599,-0.176513,-0.542993
43356,7.005197,-7.139186,3.779142,0.072058,-0.213363,-0.583851
43357,7.232106,-6.157276,3.608872,0.545061,-0.229959,-0.618069
43358,7.325918,-5.165459,3.428709,0.747301,-0.246837,-0.640430
43359,7.309310,-4.454792,3.468807,0.790824,-0.271525,-0.660639
43360,7.352535,-4.002186,3.857492,0.709104,-0.302877,-0.678834
43361,7.589766,-3.742838,4.560769,0.491496,-0.288935,-0.667466
43362,7.717731,-3.760078,5.092712,0.139376,-0.240920,-0.615270
43363,7.730567,-3.968228,5.148596,-0.220385,-0.198405,-0.556167
43364,7.745548,-4.121229,5.169882,-0.441575,-0.175565,-0.544816
43365,7.647302,-4.060637,5.164111,-0.621562,-0.160975,-0.549226
43366,7.600946,-4.318655,5.054972,-0.842663,-0.188704,-0.575078
43367,7.817584,-5.207685,5.044493,-1.004586,-0.221669,-0.576640
43368,8.195581,-6.526018,4.905126,-0.911929,-0.238972,-0.556876
43369,8.450528,-7.589093,4.581211,-0.446944,-0.258602,-0.543230
43370,8.264360,-7.442243,4.087456,0.282504,-0.329102,-0.571448
43371,7.705257,-6.275364,4.077431,0.994629,-0.433389,-0.684529
43372,7.047829,-5.072837,4.046326,1.379695,-0.577577,-0.808759
43373,6.451285,-3.961321,2.986090,1.454620,-0.687524,-0.906784
43374,5.965012,-3.050699,1.521611,1.535242,-0.736914,-1.009341
43375,5.897457,-2.171002,1.032456,1.838192,-0.720288,-1.071658
43376,6.337265,-1.272871,1.726953,2.119090,-0.636503,-1.093157
43377,7.080313,-0.423324,2.840171,2.141931,-0.567874,-1.034107
43378,7.885681,0.183565,3.832008,1.727893,-0.527178,-0.934435
43379,8.464196,0.441853,4.588540,0.706663,-0.514262,-0.829028
43380,8.825968,-0.017946,5.234827,-0.841473,-0.526769,-0.790447
43381,9.171847,-1.365316,5.552712,-2.295641,-0.518664,-0.748652
43382,9.231395,-3.654698,4.897214,-2.970531,-0.482156,-0.729925
43383,8.993371,-5.944815,3.215614,-2.198239,-0.401530,-0.730113
43384,8.864142,-6.250977,3.496108,-0.834961,-0.292573,-0.760042
43385,8.674454,-5.247547,4.674570,-0.461360,-0.298899,-0.746463
43386,8.711809,-5.205811,4.634713,-0.622417,-0.372300,-0.719818
43387,8.916787,-5.701936,4.099444,-0.332567,-0.393875,-0.699159
43388,8.989145,-5.330687,4.095801,0.195224,-0.364567,-0.684315
43389,8.892322,-4.533437,4.199106,0.439029,-0.380601,-0.664961
43390,8.898783,-3.860093,3.857695,0.491355,-0.422961,-0.649081
43391,8.932922,-3.335031,3.499346,0.524799,-0.440436,-0.639098
43392,8.967298,-2.862209,3.349537,0.500048,-0.438837,-0.632846
43393,8.952347,-2.535316,3.507360,0.392307,-0.420587,-0.622934
43394,8.820113,-2.325299,3.543821,0.222847,-0.393704,-0.602850
43395,8.685868,-2.143425,3.550057,0.044285,-0.363522,-0.581025
43396,8.633551,-2.170009,3.623975,-0.139406,-0.345704,-0.558744
43397,8.616941,-2.419785,3.688152,-0.367106,-0.330054,-0.529666
43398,8.596178,-2.914081,3.445102,-0.514275,-0.318042,-0.491131
43399,8.644292,-3.283122,3.077698,-0.521602,-0.313344,-0.451349
43400,8.789067,-3.521574,2.711509,-0.472037,-0.335051,-0.404310
43401,8.898539,-3.540205,2.616038,-0.316058,-0.354749,-0.393715
43402,9.051411,-3.391057,3.155599,-0.098352,-0.365916,-0.414753
43403,9.023154,-3.203085,3.733506,-0.017971,-0.356938,-0.432844
43404,8.900127,-2.960470,3.815563,-0.015721,-0.338985,-0.447853
43405,8.818913,-2.707332,3.713144,-0.006504,-0.329511,-0.432371
43406,8.863885,-2.415030,3.431223,0.017428,-0.323861,-0.419541
43407,9.051380,-2.081561,3.109077,0.035519,-0.327481,-0.392600
43408,9.266097,-1.852957,2.849642,0.020275,-0.325887,-0.387381
43409,9.412297,-1.689191,2.665450,-0.038652,-0.321184,-0.372669
43410,9.526154,-1.591071,2.680315,-0.131760,-0.284203,-0.384849
43411,9.508226,-1.415384,2.810009,-0.153342,-0.214093,-0.405426
43412,9.391510,-1.094287,3.018020,-0.114596,-0.172865,-0.436764
43413,9.117701,-0.851939,3.171147,-0.149241,-0.190356,-0.488259
43414,9.000573,-0.895337,3.391940,-0.406160,-0.259921,-0.508128
43415,9.021483,-1.492009,3.162503,-0.761901,-0.348732,-0.500737
43416,9.112158,-2.284241,2.969290,-0.805716,-0.355260,-0.493644
43417,9.173408,-2.880517,3.021244,-0.404186,-0.285412,-0.493035
43418,9.323150,-2.519334,3.432186,0.063906,-0.198156,-0.501145
43419,9.389258,-1.678398,3.830164,0.201826,-0.124292,-0.513588
43420,9.314759,-1.107550,3.943935,0.074394,-0.092755,-0.520503
43421,9.391681,-0.920629,3.619057,-0.247783,-0.095895,-0.522551
43422,9.469364,-1.186613,2.885664,-0.596354,-0.100407,-0.510658
43423,9.529250,-1.620841,1.940798,-0.727387,-0.127104,-0.490241
43424,9.619511,-2.021183,1.407899,-0.622164,-0.148749,-0.470993
43425,9.676441,-2.103198,1.350964,-0.430340,-0.136710,-0.447147
43426,9.578290,-1.849358,1.505174,-0.309518,-0.127983,-0.452480
43427,9.433049,-1.602572,1.780176,-0.322647,-0.143641,-0.456142
43428,9.346016,-1.610333,2.263402,-0.451294,-0.178050,-0.442171
43429,9.459707,-1.886929,2.533893,-0.581862,-0.198366,-0.412590
43430,9.468269,-2.239077,2.713745,-0.622600,-0.160517,-0.397086
43431,9.298485,-2.302892,2.817878,-0.511196,-0.135276,-0.392347
43432,9.429038,-2.226077,3.099008,-0.488094,-0.145352,-0.383651
43433,9.592975,-2.346418,2.955168,-0.576511,-0.159167,-0.366041
43434,9.631258,-2.644377,2.541176,-0.573287,-0.172928,-0.347030
43435,9.573705,-2.829610,2.433001,-0.388411,-0.184838,-0.337501
43436,9.607170,-2.690336,2.528024,-0.084367,-0.197269,-0.341686
43437,9.731492,-2.234658,2.736963,0.120792,-0.198171,-0.348324
43438,9.659753,-1.815014,2.863093,0.186122,-0.196249,-0.350042
43439,9.722972,-1.512425,2.859177,0.175053,-0.201671,-0.355171
43440,9.785526,-1.224237,2.822964,0.161791,-0.190153,-0.355387
43441,9.797662,-1.035746,2.679208,0.128342,-0.166837,-0.358192
43442,9.667515,-0.861862,2.554710,0.055889,-0.171631,-0.365438
43443,9.692747,-0.863785,2.364961,-0.077639,-0.173537,-0.362030
43444,9.624045,-1.089478,2.197188,-0.270072,-0.159473,-0.338678
43445,9.414792,-1.475121,1.845815,-0.402482,-0.152103,-0.316966
43446,9.354148,-1.777298,1.668353,-0.379341,-0.141934,-0.286165
43447,9.324527,-1.818737,1.525245,-0.246536,-0.120105,-0.259586
43448,9.329860,-1.649790,1.595008,-0.153794,-0.106881,-0.236622
43449,9.329090,-1.568978,1.647305,-0.223849,-0.123321,-0.215837
43450,9.372880,-1.649030,1.581184,-0.228741,-0.146637,-0.197312
43451,9.392805,-1.628598,1.694373,-0.146035,-0.158017,-0.177422
43452,9.448430,-1.525648,2.055580,-0.042716,-0.180107,-0.154038
43453,9.603863,-1.416624,2.455269,-0.026756,-0.179494,-0.137337
43454,9.744863,-1.313573,2.725509,0.003051,-0.155339,-0.131606
43455,9.751507,-1.163681,2.916582,0.043943,-0.116719,-0.134552
43456,9.795796,-1.005269,2.900183,0.008128,-0.090950,-0.124889
43457,9.851263,-0.982462,2.660699,-0.106235,-0.079777,-0.115396
43458,9.814550,-1.158421,2.353956,-0.163135,-0.067756,-0.100820
43459,9.795587,-1.357017,2.114488,-0.106600,-0.072008,-0.098262
43460,9.737000,-1.347703,1.858259,-0.034520,-0.063918,-0.083143
43461,9.640700,-1.340203,1.905383,0.020389,-0.056801,-0.074110
43462,9.602678,-1.344524,1.959829,0.002020,-0.066031,-0.066411
43463,9.611078,-1.401195,1.886718,-0.000176,-0.065941,-0.044118
43464,9.541030,-1.389589,1.894616,0.066725,-0.051993,-0.030604
43465,9.527435,-1.232677,2.088158,0.137886,-0.039799,-0.028314
43466,9.584537,-1.090768,2.178026,0.105956,-0.040347,-0.021348
43467,9.649025,-1.147205,2.147317,0.055565,-0.032012,-0.000827
43468,9.644513,-1.119655,2.058146,0.087723,-0.020830,-0.000843
43469,9.667217,-1.053552,2.143460,0.146185,-0.014122,0.004166
43470,9.667217,-0.930739,2.165571,0.143309,-0.008317,0.004537
43471,9.659023,-0.860168,2.172955,0.105250,-0.003721,0.002403
43472,9.677542,-0.903084,2.118684,0.085566,0.000937,0.002806
43473,9.621177,-0.895683,2.172209,0.084584,0.004029,-0.005269
43474,9.634493,-0.912455,2.031253,0.074522,0.013051,-0.014676
43475,9.595619,-0.957174,1.940136,0.070201,0.017900,-0.025727
43476,9.594500,-0.938640,1.973791,0.095632,0.012796,-0.028212
43477,9.641762,-0.976768,1.940472,0.103716,0.014087,-0.037773
43478,9.659180,-0.904927,1.818168,0.121020,0.015567,-0.033995
43479,9.687843,-0.897646,1.839944,0.128398,0.014033,-0.033455
43480,9.679506,-0.824082,1.848251,0.116759,0.006712,-0.029536
43481,9.683025,-0.862958,1.755573,0.086001,0.001883,-0.027942
43482,9.665921,-0.852453,1.657510,0.080253,0.001503,-0.021159
43483,9.701738,-0.805184,1.600920,0.068178,0.004143,-0.011939
43484,9.695241,-0.739900,1.667421,0.060766,0.004847,-0.007814
43485,9.732022,-0.781150,1.803418,0.031324,0.001035,0.005091
43486,9.790302,-0.792505,1.810869,-0.013798,0.003318,0.008859
43487,9.824978,-0.831129,1.886890,-0.013385,0.003250,0.014956
43488,9.814533,-0.855534,1.935862,-0.006675,0.008841,0.010608
43489,9.734019,-0.780560,1.956294,0.027380,0.019779,0.008668
43490,9.697234,-0.704555,2.036400,0.039606,0.027833,0.006274
43491,9.628621,-0.610676,2.069472,0.007566,0.033104,0.000934
43492,9.539739,-0.586942,2.077815,-0.030652,0.042616,-0.008913
43493,9.489764,-0.634275,2.159203,-0.084187,0.043313,-0.025745
43494,9.487795,-0.749102,2.082647,-0.132102,0.038200,-0.034906
43495,9.498165,-0.845412,2.016936,-0.144313,0.047087,-0.046144
43496,9.549205,-0.920469,1.982897,-0.122486,0.066940,-0.059270
43497,9.483352,-0.972608,1.936078,-0.112633,0.086110,-0.064966
43498,9.462914,-1.029441,2.008126,-0.111228,0.081376,-0.067829
43499,9.508018,-1.062783,1.919561,-0.093567,0.072536,-0.067043
43500,9.446180,-1.017641,1.981594,-0.014967,0.081035,-0.076382
43501,9.376900,-0.907997,2.110657,0.042257,0.082397,-0.077280
43502,9.404520,-0.897819,2.137389,0.003774,0.068392,-0.089233
43503,9.393478,-0.930766,2.009489,-0.019844,0.054591,-0.092293
43504,9.432308,-1.011856,1.904926,0.009524,0.044869,-0.089679
43505,9.537340,-1.050778,1.822014,0.049008,0.035322,-0.087858
43506,9.558412,-0.985314,1.820794,0.095497,0.039208,-0.087549
43507,9.629995,-0.866501,1.893437,0.117007,0.038133,-0.090213
43508,9.631097,-0.755233,1.946540,0.109799,0.031332,-0.085045
43509,9.666697,-0.691079,1.984161,0.086085,0.031471,-0.079513
43510,9.679897,-0.669133,2.058273,0.055258,0.026042,-0.075804
43511,9.699784,-0.706317,2.006446,0.024273,0.019786,-0.067512
43512,9.637433,-0.761408,2.014477,0.021920,0.014331,-0.059589
43513,9.609310,-0.757197,1.996171,0.049718,0.005787,-0.059533
43514,9.610170,-0.649291,2.045704,0.082341,0.006454,-0.060002
43515,9.590739,-0.606872,2.010193,0.064757,0.006908,-0.055157
43516,9.573061,-0.579767,1.942846,0.045882,-0.002344,-0.053693
43517,9.605311,-0.489669,2.038799,0.056862,-0.008030,-0.056517
43518,9.588698,-0.457781,2.121136,0.060914,-0.001199,-0.049321
43519,9.614145,-0.430224,2.112580,0.012556,0.003223,-0.053417
43520,9.660671,-0.554571,2.062037,-0.055494,0.019493,-0.052335
43521,9.613977,-0.633436,1.928316,-0.072590,0.029343,-0.053985
43522,9.616412,-0.740638,2.001322,-0.066487,0.024758,-0.047166
43523,9.574866,-0.753257,1.912858,-0.071619,0.026306,-0.045878
43524,9.588229,-0.746197,1.894873,-0.050101,0.025336,-0.048512
43525,9.584042,-0.805016,2.001738,-0.046847,0.023215,-0.043219
43526,9.564176,-0.766459,1.966720,-0.055582,0.018270,-0.045352
43527,9.552459,-0.781173,1.957086,-0.032660,0.023707,-0.046390
43528,9.602121,-0.723744,2.032541,-0.012278,0.020439,-0.047386
43529,9.596728,-0.777128,2.079548,-0.036481,0.020115,-0.045718
43530,9.578048,-0.743165,2.104414,-0.022570,0.023524,-0.044828
43531,9.579803,-0.753492,2.075276,-0.008405,0.024032,-0.048013
43532,9.629910,-0.705638,2.060035,-0.021653,0.020476,-0.036768
43533,9.602076,-0.806262,1.992956,-0.047978,0.011757,-0.031306
43534,9.611084,-0.866938,1.928090,-0.031726,0.011965,-0.030382
43535,9.578969,-0.838158,1.971845,0.009798,0.006172,-0.024855
43536,9.616966,-0.800618,2.034699,0.008606,0.003435,-0.020917
43537,9.642829,-0.785854,1.935864,-0.015801,0.010525,-0.020288
43538,9.579079,-0.832178,1.973845,0.004961,0.007635,-0.017523
43539,9.571934,-0.781592,2.009240,0.036391,0.010294,-0.019137
43540,9.601324,-0.690462,2.047829,0.044967,0.014434,-0.012390
43541,9.585624,-0.678028,2.100551,0.040972,0.010020,-0.007149
43542,9.640846,-0.666656,2.081221,0.000699,0.006117,-0.008214
43543,9.646704,-0.709694,1.987920,-0.008649,0.006551,0.000066
43544,9.644544,-0.695098,2.020088,0.021574,0.010616,-0.000405
43545,9.663406,-0.628871,2.106764,0.031692,0.015000,-0.003959
43546,9.668218,-0.662317,2.105557,-0.021282,0.021501,-0.005352
43547,9.626946,-0.769868,2.058262,-0.060771,0.007174,-0.003416
43548,9.610920,-0.855407,2.001594,-0.006954,0.005903,0.000410
43549,9.573274,-0.794516,2.048717,0.067484,0.013744,0.000895
