// Start Time: Unknown
// Update Rate: 100.0Hz
// Filter Profile: human (46.1)
// Firmware Version: 4.3.5
PacketCounter,Acc_X,Acc_Y,Acc_Z,Gyr_X,Gyr_Y,Gyr_Z
16651,9.540199,-1.221656,1.789338,-0.096084,0.017397,0.005760
16652,9.548555,-1.288824,1.814064,-0.123254,0.024944,0.017002
16653,9.561110,-1.389404,1.850746,-0.136817,0.025569,0.024730
16654,9.585497,-1.476200,1.820768,-0.116244,0.026816,0.021220
16655,9.594096,-1.482270,1.912907,-0.086073,0.031621,0.022560
16656,9.574221,-1.482884,1.930138,-0.076529,0.036745,0.020838
16657,9.605031,-1.499234,1.935509,-0.058894,0.034896,0.019221
16658,9.601603,-1.516517,1.898823,-0.025732,0.036760,0.013097
16659,9.643504,-1.493955,1.951010,0.006661,0.038740,0.008588
16660,9.676862,-1.492742,1.997473,0.035703,0.037520,0.011701
16661,9.752301,-1.442491,2.008248,0.062403,0.033788,0.000873
16662,9.749871,-1.393364,2.039793,0.076883,0.027120,-0.014182
16663,9.728126,-1.315323,2.001183,0.066278,0.021925,-0.032721
16664,9.735607,-1.325913,1.858619,0.046447,0.021658,-0.055073
16665,9.654694,-1.313107,1.758415,0.037158,0.028135,-0.065437
16666,9.589502,-1.381063,1.733429,0.027519,0.022149,-0.071405
16667,9.561826,-1.430999,1.592695,0.042197,0.008488,-0.067987
16668,9.585334,-1.434776,1.506669,0.081845,0.009686,-0.065119
16669,9.524225,-1.299804,1.524449,0.120988,0.012313,-0.063015
16670,9.543974,-1.233010,1.578439,0.126330,0.003229,-0.053457
16671,9.559178,-1.134935,1.619321,0.089920,-0.001523,-0.049698
16672,9.604468,-1.152354,1.641259,0.058891,-0.004233,-0.038376
16673,9.609422,-1.180276,1.653751,0.035006,0.000075,-0.030488
16674,9.612755,-1.248057,1.711552,0.021865,-0.003180,-0.023086
16675,9.588050,-1.249337,1.759883,0.021096,-0.003055,-0.021484
16676,9.589158,-1.270627,1.844441,0.030098,-0.009210,-0.015314
16677,9.572774,-1.250355,1.898655,0.039180,-0.004179,-0.011250
16678,9.588128,-1.243749,1.956189,0.016856,-0.004072,-0.001118
16679,9.577598,-1.281295,1.910172,0.000238,-0.011427,0.006305
16680,9.558729,-1.341688,1.857500,-0.003444,-0.014372,0.009765
16681,9.586821,-1.409627,1.865993,0.007499,-0.003487,0.010491
16682,9.563858,-1.462139,1.887080,0.011111,-0.002422,0.023573
16683,9.591530,-1.531593,1.896351,0.005401,-0.001305,0.030610
16684,9.566571,-1.687371,1.896498,0.010275,-0.004171,0.041713
16685,9.589078,-1.789297,1.827543,0.039595,0.002927,0.055743
16686,9.604658,-1.749768,1.841353,0.104053,0.007605,0.069960
16687,9.588912,-1.720826,1.937962,0.129622,0.010893,0.079734
16688,9.582753,-1.694679,1.929012,0.132520,0.012164,0.094329
16689,9.569921,-1.739304,1.887663,0.159014,0.016284,0.110077
16690,9.558765,-1.682781,1.868386,0.216249,0.031772,0.116887
16691,9.501325,-1.578763,1.941140,0.258854,0.044381,0.134226
16692,9.534679,-1.396689,1.992910,0.276255,0.053556,0.145899
16693,9.587507,-1.241193,2.114986,0.265666,0.065918,0.158224
16694,9.599407,-1.159939,2.162264,0.206232,0.072940,0.171569
16695,9.701618,-1.152721,2.141385,0.140478,0.075513,0.178044
16696,9.723870,-1.277090,2.011321,0.092985,0.095951,0.181559
16697,9.661718,-1.324281,1.916855,0.082275,0.113587,0.181974
16698,9.652124,-1.394324,1.936718,0.080766,0.123933,0.185122
16699,9.604377,-1.435823,1.901549,0.058470,0.128283,0.189646
16700,9.560251,-1.510072,1.878814,0.051095,0.118808,0.201907
16701,9.512346,-1.553001,1.842338,0.048434,0.114697,0.200216
16702,9.429947,-1.619928,1.847887,0.065700,0.106566,0.208584
16703,9.444993,-1.647119,1.968993,0.080238,0.111824,0.204617
16704,9.426035,-1.675923,2.047875,0.069250,0.118748,0.193090
16705,9.515630,-1.738652,2.196648,0.042282,0.126113,0.176580
16706,9.542726,-1.889846,2.372270,0.011680,0.148253,0.152722
16707,9.483790,-2.087790,2.452245,-0.004974,0.166924,0.124268
16708,9.363406,-2.233734,2.439871,0.005857,0.181065,0.093464
16709,9.152230,-2.479051,2.338501,0.060601,0.182175,0.084600
16710,9.039280,-2.613648,2.294667,0.156207,0.165257,0.074624
16711,8.992176,-2.688190,2.240644,0.288580,0.159757,0.083729
16712,9.033400,-2.675687,2.241289,0.406822,0.166608,0.109381
16713,9.108538,-2.644957,2.327438,0.482420,0.175784,0.153237
16714,9.208344,-2.617104,2.368164,0.496222,0.190946,0.217660
16715,9.321583,-2.685661,2.417696,0.461706,0.194973,0.289794
16716,9.377332,-2.844068,2.336268,0.397219,0.198180,0.363474
16717,9.373551,-2.946762,2.197201,0.345790,0.197058,0.426664
16718,9.312567,-3.072511,2.113975,0.344858,0.185612,0.469856
16719,9.166746,-3.087166,2.043650,0.371168,0.167228,0.505556
16720,9.034077,-3.094616,2.029882,0.425387,0.144134,0.529057
16721,8.974079,-3.092507,2.069522,0.463992,0.131693,0.561096
16722,8.903432,-3.114159,2.104158,0.471218,0.130468,0.600770
16723,8.835760,-3.183261,2.206207,0.458182,0.127693,0.658346
16724,8.787579,-3.345589,2.160976,0.434354,0.113195,0.720456
16725,8.762297,-3.485579,2.053072,0.447233,0.097949,0.781958
16726,8.767519,-3.547325,1.996690,0.488065,0.078994,0.834404
16727,8.771134,-3.644373,1.956248,0.539424,0.063688,0.881108
16728,8.837325,-3.708745,1.988513,0.562964,0.046126,0.917250
16729,8.869792,-3.749420,1.960832,0.564887,0.036361,0.952816
16730,8.856256,-3.720185,1.960980,0.567103,0.025432,0.984932
16731,8.870705,-3.771931,1.997407,0.560231,-0.001853,1.013200
16732,8.769521,-3.795342,1.897849,0.564388,-0.014996,1.029185
16733,8.738441,-3.764136,1.905640,0.578178,-0.024745,1.041256
16734,8.660908,-3.748231,1.988714,0.546087,-0.024754,1.062734
16735,8.532835,-3.726505,2.038722,0.496474,-0.036917,1.085714
16736,8.523328,-3.798902,2.042239,0.427545,-0.054129,1.110235
16737,8.478469,-3.777772,1.927255,0.379387,-0.068700,1.133472
16738,8.449172,-3.799201,1.813273,0.349551,-0.078319,1.159002
16739,8.378356,-3.821401,1.864563,0.320748,-0.094118,1.174434
16740,8.481400,-3.962365,1.921793,0.254610,-0.111006,1.193142
16741,8.563854,-4.158145,1.990485,0.221867,-0.126838,1.215234
16742,8.618695,-4.299521,1.978785,0.228735,-0.151162,1.224126
16743,8.618143,-4.333681,1.895897,0.267042,-0.184739,1.226904
16744,8.699979,-4.294689,1.721696,0.297307,-0.210230,1.230510
16745,8.743094,-4.167105,1.549801,0.327028,-0.231501,1.235498
16746,8.821094,-3.988847,1.504059,0.349876,-0.256382,1.224785
16747,8.932727,-3.841273,1.516586,0.372188,-0.269585,1.204158
16748,9.024134,-3.732508,1.753232,0.346121,-0.272592,1.182803
16749,9.011913,-3.753277,1.971490,0.280801,-0.269110,1.148799
16750,8.864008,-3.808092,2.142911,0.234135,-0.261295,1.114854
16751,8.690103,-3.788020,2.213819,0.212379,-0.265455,1.070197
16752,8.569700,-3.775752,2.313750,0.207839,-0.271593,1.026172
16753,8.443269,-3.778703,2.377183,0.180613,-0.282428,0.988086
16754,8.280243,-3.752231,2.233751,0.161909,-0.311269,0.937682
16755,8.213732,-3.679122,2.156485,0.177123,-0.335297,0.877311
16756,8.195991,-3.582515,2.155970,0.168471,-0.333912,0.816446
16757,8.174693,-3.682089,2.173632,0.124654,-0.322659,0.766061
16758,8.205289,-3.861316,2.156272,0.097308,-0.313998,0.719743
16759,8.249616,-4.052561,2.125795,0.105112,-0.306635,0.698001
16760,8.324949,-4.267601,1.981911,0.153707,-0.306980,0.680986
16761,8.511454,-4.494576,1.843898,0.232789,-0.319505,0.664504
16762,8.749223,-4.642832,1.814036,0.319609,-0.330030,0.642933
16763,8.995014,-4.801242,1.807595,0.405170,-0.320849,0.617785
16764,9.123564,-4.872471,1.899597,0.480000,-0.295203,0.579290
16765,9.113423,-4.820625,1.940787,0.530232,-0.274082,0.550303
16766,9.091794,-4.676098,2.005917,0.587965,-0.268275,0.504910
16767,9.155936,-4.397779,2.100727,0.624034,-0.268152,0.457621
16768,9.200813,-4.124756,2.314000,0.623114,-0.264293,0.402205
16769,9.235997,-3.976122,2.523318,0.545580,-0.256625,0.349252
16770,9.087061,-4.053811,2.580289,0.437665,-0.238914,0.305459
16771,8.839461,-4.239240,2.393681,0.391739,-0.236780,0.275797
16772,8.564917,-4.393575,2.146932,0.399322,-0.243510,0.254469
16773,8.439146,-4.531559,1.990456,0.429255,-0.264936,0.241908
16774,8.430623,-4.503161,1.892471,0.486652,-0.274502,0.218725
16775,8.400999,-4.444181,1.876797,0.520497,-0.260161,0.194242
16776,8.391999,-4.329102,1.908204,0.516064,-0.232014,0.176987
16777,8.396184,-4.382318,1.885480,0.465158,-0.220412,0.171511
16778,8.454969,-4.426867,1.813554,0.456942,-0.230993,0.151161
16779,8.710895,-4.466674,1.888343,0.484982,-0.231032,0.135210
16780,9.005317,-4.416627,2.217022,0.488581,-0.186225,0.119136
16781,9.134050,-4.264105,2.721038,0.443369,-0.117676,0.105050
16782,9.085228,-4.179495,3.043234,0.306745,-0.055625,0.101091
16783,8.813095,-4.122830,3.075573,0.116174,-0.036785,0.090325
16784,8.774953,-4.268760,3.171745,-0.056284,-0.048141,0.083500
16785,8.683169,-4.478852,3.143624,-0.182620,-0.054694,0.070771
16786,8.519922,-4.617398,2.943912,-0.245136,-0.057387,0.038849
16787,8.380885,-4.629946,2.699697,-0.238561,-0.067179,-0.008748
16788,8.367560,-4.661746,2.562494,-0.213502,-0.092590,-0.053505
16789,8.769359,-4.751536,2.591960,-0.174434,-0.053723,-0.093227
16790,9.046377,-4.765505,2.600218,-0.102328,0.032328,-0.114711
16791,8.961532,-4.692420,2.524981,-0.039635,0.069368,-0.147222
16792,9.095638,-4.641771,2.518891,0.030319,0.054905,-0.173424
16793,9.350637,-4.570024,2.615277,0.123046,0.071496,-0.183342
16794,9.426467,-4.460425,2.870367,0.210176,0.138912,-0.185829
16795,9.324601,-4.076375,2.984107,0.282265,0.183987,-0.191444
16796,9.470221,-3.679462,3.111810,0.336993,0.231778,-0.229987
16797,9.745355,-3.119097,3.368682,0.391955,0.305050,-0.270294
16798,9.944181,-2.654512,3.647374,0.367387,0.409569,-0.330488
16799,10.021355,-2.257831,4.149070,0.238336,0.504617,-0.395738
16800,9.994729,-2.166586,4.566930,-0.029805,0.538069,-0.467154
16801,9.823633,-2.427078,4.642974,-0.408369,0.514750,-0.526186
16802,9.779993,-2.975394,4.231476,-0.693440,0.516262,-0.557150
16803,9.689508,-3.609317,3.714050,-0.703546,0.583092,-0.573894
16804,9.611030,-4.001794,3.634959,-0.439108,0.685977,-0.597095
16805,9.516427,-3.991774,4.024645,-0.137872,0.766910,-0.628000
16806,9.459608,-3.913625,4.544678,-0.074339,0.764697,-0.641064
16807,9.451730,-4.145171,4.631791,-0.157379,0.716902,-0.622815
16808,9.489258,-4.671249,4.436699,-0.182970,0.682642,-0.574501
16809,9.572885,-5.307088,4.126184,-0.059165,0.673316,-0.510309
16810,9.691184,-5.754645,3.725761,0.212177,0.700655,-0.455183
16811,9.713835,-5.699492,3.089066,0.669827,0.753787,-0.432606
16812,9.735803,-5.254894,2.743688,1.164475,0.752802,-0.454620
16813,10.189067,-4.692973,3.008610,1.440343,0.632036,-0.459515
16814,10.660805,-4.208046,3.081843,1.465323,0.450099,-0.408382
16815,11.073547,-4.150869,3.492608,1.179079,0.360871,-0.364379
16816,10.927687,-4.619761,3.638191,0.640665,0.437093,-0.321762
16817,10.155218,-5.186956,3.504317,0.269757,0.569366,-0.279678
16818,9.273394,-5.636394,3.575663,0.140662,0.666670,-0.213127
16819,8.365978,-5.980545,3.841603,0.079885,0.712331,-0.122340
16820,7.656444,-6.129701,3.986837,-0.023116,0.732563,-0.013228
16821,7.470965,-6.022512,3.907160,-0.168781,0.783398,0.108825
16822,7.494748,-5.735833,3.819179,-0.350762,0.913396,0.270521
16823,7.535641,-5.604776,3.814879,-0.613259,1.095660,0.463349
16824,7.436880,-5.778433,3.674986,-0.860961,1.255161,0.662296
16825,7.296872,-6.286719,3.879518,-1.075229,1.399899,0.855618
16826,7.175160,-6.831832,3.786492,-1.238324,1.462760,1.017968
16827,7.202937,-7.497561,3.973268,-1.232370,1.519193,1.150890
16828,7.134681,-7.971193,4.406067,-1.136702,1.592395,1.250296
16829,6.997872,-8.026943,4.350036,-1.089596,1.614275,1.333811
16830,6.841430,-8.036410,4.318525,-1.059986,1.622223,1.426304
16831,6.734626,-8.229284,4.179838,-0.967804,1.586470,1.522936
16832,6.648866,-8.399505,4.269581,-0.751517,1.610652,1.577954
16833,6.498512,-8.208997,4.912465,-0.557730,1.612677,1.625191
16834,6.389071,-7.823894,5.274488,-0.540035,1.564730,1.684926
16835,6.339746,-7.750695,5.068615,-0.649263,1.593901,1.771039
16836,6.304814,-7.855340,4.733501,-0.662579,1.701768,1.870603
16837,5.986441,-8.009172,4.953248,-0.531880,1.836731,1.968538
16838,5.737401,-7.871005,5.318846,-0.465306,1.894472,2.054642
16839,5.583525,-7.597424,5.568981,-0.522481,1.926986,2.131854
16840,5.656656,-7.463762,5.531188,-0.698254,1.982872,2.198817
16841,5.704480,-7.430792,5.317716,-0.862936,2.131276,2.270651
16842,5.318574,-7.520465,5.205694,-0.977028,2.289395,2.323564
16843,4.950232,-7.591788,5.092042,-1.049059,2.382914,2.324991
16844,4.797960,-7.519866,4.834689,-1.080213,2.376397,2.336717
16845,4.691049,-7.580219,4.481752,-1.171123,2.344509,2.369894
16846,4.461186,-7.732784,4.492810,-1.206251,2.344954,2.418015
16847,4.094545,-7.863012,4.548146,-1.177727,2.292436,2.453891
16848,3.662341,-7.933896,4.416328,-1.180039,2.273978,2.466576
16849,3.233366,-8.062257,4.501557,-1.139475,2.271742,2.481534
16850,2.878027,-8.132785,4.395477,-1.077462,2.229534,2.499854
16851,2.552120,-7.969836,3.987615,-1.045851,2.189366,2.494410
16852,2.296938,-7.957158,3.916903,-1.017609,2.180619,2.476232
16853,1.976594,-7.965626,4.107901,-0.935160,2.151174,2.454473
16854,1.694582,-7.846070,4.331917,-0.891590,2.090448,2.404894
16855,1.481514,-7.602987,4.335291,-0.957743,2.055703,2.361060
16856,1.240666,-7.616376,4.206898,-1.080433,2.062472,2.331371
16857,0.981215,-7.793853,4.045970,-1.141690,2.066879,2.326463
16858,0.527181,-7.886049,3.822059,-1.108799,2.056213,2.317894
16859,-0.009438,-7.799428,3.941098,-1.060637,2.049311,2.282870
16860,-0.335797,-7.823104,4.254905,-1.130955,2.028705,2.261205
16861,-0.786121,-8.090456,3.991673,-1.269089,2.001726,2.262452
16862,-1.477631,-8.556700,3.808726,-1.312211,1.954531,2.243969
16863,-1.887470,-8.983397,3.669874,-1.206912,1.853897,2.237884
16864,-1.852393,-9.127227,3.433995,-0.996053,1.725084,2.237946
16865,-1.645588,-9.080856,3.269396,-0.775895,1.643306,2.223052
16866,-1.539870,-9.048285,3.157147,-0.565373,1.650300,2.182595
16867,-1.842542,-8.609210,3.138427,-0.320413,1.668813,2.084574
16868,-1.943374,-8.022043,3.306969,-0.195831,1.607249,1.951654
16869,-2.038433,-7.715455,3.116072,-0.255268,1.591576,1.840747
16870,-2.028385,-7.485130,3.124838,-0.199555,1.573926,1.762564
16871,-2.130335,-7.021117,3.065225,-0.140300,1.574273,1.706902
16872,-2.378639,-6.633460,2.914702,-0.231109,1.579682,1.647954
16873,-2.588373,-6.666058,2.701239,-0.413113,1.535226,1.586452
16874,-2.987325,-6.838802,2.267182,-0.463250,1.467840,1.508996
16875,-3.093203,-6.967348,1.913287,-0.371606,1.363520,1.437946
16876,-3.171141,-6.831264,1.882152,-0.249710,1.264704,1.350186
16877,-3.087733,-6.766853,2.045585,-0.244575,1.180494,1.260237
16878,-3.245292,-6.749714,1.790832,-0.228218,1.109323,1.185104
16879,-3.525607,-6.541021,1.710281,-0.152832,1.030081,1.097482
16880,-3.631387,-6.314419,1.786454,-0.107135,0.929067,1.012557
16881,-3.784304,-6.270280,1.617514,-0.120224,0.844728,0.920204
16882,-3.816771,-6.332915,1.482614,-0.085579,0.772408,0.829257
16883,-3.934303,-6.235868,1.547695,-0.029820,0.737804,0.755671
16884,-4.231518,-6.014895,1.671701,-0.014944,0.691293,0.679549
16885,-4.388453,-5.879439,1.608533,-0.014795,0.615792,0.610518
16886,-4.505597,-5.793937,1.384155,-0.035849,0.528924,0.535112
16887,-4.348126,-5.752542,1.483483,-0.051561,0.478564,0.442937
16888,-4.403854,-5.849842,1.569897,-0.046294,0.445321,0.353756
16889,-4.523643,-5.959161,1.518540,-0.030810,0.370874,0.268605
16890,-4.572607,-6.148083,1.479208,0.015800,0.277197,0.180916
16891,-4.624181,-6.131156,1.515217,0.090640,0.206863,0.096130
16892,-4.941549,-6.021862,1.469103,0.175161,0.093909,-0.006492
16893,-4.793469,-5.760408,1.482996,0.251154,-0.005141,-0.130345
16894,-4.691071,-5.550160,1.559617,0.270729,-0.034539,-0.250704
16895,-4.581561,-5.500942,1.481855,0.230240,-0.089673,-0.369023
16896,-4.454423,-5.533271,1.404625,0.207351,-0.140822,-0.471087
16897,-4.381221,-5.609756,1.364884,0.206067,-0.178032,-0.568498
16898,-4.232403,-5.834138,1.475399,0.219795,-0.196077,-0.663794
16899,-4.265913,-5.974794,1.520497,0.242016,-0.230924,-0.739656
16900,-4.332271,-6.087814,1.540102,0.243207,-0.328978,-0.832119
16901,-4.080261,-6.292694,1.426692,0.258520,-0.435909,-0.941487
16902,-3.926850,-6.565158,1.422427,0.293724,-0.512295,-1.055394
16903,-3.949548,-6.869875,1.464776,0.373167,-0.591950,-1.184103
16904,-3.923500,-7.090538,1.665367,0.507280,-0.682629,-1.318009
16905,-3.735509,-7.261837,1.943443,0.655728,-0.788554,-1.453055
16906,-3.460731,-7.399262,2.077575,0.795928,-0.886927,-1.554482
16907,-3.450246,-7.595587,2.223983,0.963672,-0.970077,-1.654906
16908,-3.315827,-7.771167,2.673374,1.171390,-1.046527,-1.725747
16909,-3.203814,-7.835416,3.235379,1.379277,-1.118024,-1.800845
16910,-3.272756,-8.020173,3.700617,1.544451,-1.196977,-1.877757
16911,-3.383792,-8.335805,4.068263,1.663676,-1.280830,-1.962752
16912,-3.577531,-8.604075,4.032149,1.825123,-1.392557,-2.021049
16913,-3.517566,-8.614177,4.008636,2.059127,-1.505246,-2.038372
16914,-3.192619,-8.502531,4.144407,2.219724,-1.603136,-2.010943
16915,-2.482381,-8.356571,4.196589,2.288868,-1.663423,-1.970031
16916,-1.918780,-8.210297,4.285334,2.355540,-1.680006,-1.949348
16917,-1.593702,-8.079586,4.449662,2.397435,-1.707858,-1.987188
16918,-1.253935,-7.950762,4.745923,2.392958,-1.779326,-2.082548
16919,-1.168301,-8.068096,4.863271,2.359398,-1.835223,-2.200229
16920,-1.512812,-8.194545,4.916493,2.418120,-1.894845,-2.308677
16921,-1.759406,-8.188205,5.184942,2.516699,-1.965564,-2.354208
16922,-1.806074,-8.079620,5.432933,2.585604,-2.071455,-2.344146
16923,-1.308876,-7.852454,5.453256,2.652758,-2.182200,-2.318518
16924,-0.412348,-7.550077,5.487061,2.675215,-2.239940,-2.288901
16925,0.350395,-7.139930,5.509942,2.709763,-2.264576,-2.239134
16926,0.661215,-6.744523,5.510687,2.706129,-2.270796,-2.210068
16927,0.793094,-6.459358,5.738099,2.641328,-2.278440,-2.203947
16928,0.845921,-6.245778,5.959583,2.532932,-2.286560,-2.175657
16929,0.829312,-6.059330,6.021596,2.393394,-2.284903,-2.121633
16930,0.972467,-6.095372,6.141645,2.260658,-2.286523,-2.055978
16931,1.516373,-6.088837,6.365429,2.207110,-2.336563,-1.975113
16932,2.222197,-5.855502,6.633852,2.165100,-2.412449,-1.903773
16933,2.841013,-5.611926,6.467119,1.993767,-2.472864,-1.851352
16934,3.353386,-5.766222,6.494267,1.811339,-2.465965,-1.787529
16935,3.414970,-5.969898,6.540486,1.782727,-2.378739,-1.699863
16936,2.886658,-5.742288,6.288563,1.928724,-2.307340,-1.651184
16937,2.663055,-5.185932,6.386739,2.157867,-2.360336,-1.621967
16938,3.291339,-4.597483,6.867030,2.259941,-2.478355,-1.549713
16939,4.349178,-4.150157,7.312066,2.094487,-2.547334,-1.433341
16940,5.200397,-3.985503,7.462965,1.706507,-2.564203,-1.262513
16941,5.591297,-4.197354,7.102715,1.264628,-2.500379,-1.110208
16942,5.601375,-4.725280,6.526145,1.004981,-2.400034,-1.000015
16943,5.515669,-5.024277,6.144640,1.177718,-2.374544,-0.935882
16944,5.687487,-4.679154,6.455662,1.539497,-2.361161,-0.892308
16945,5.766686,-4.194304,7.064791,1.656150,-2.355620,-0.829510
16946,5.759346,-3.645509,6.936532,1.448536,-2.336703,-0.786009
16947,5.941056,-3.294184,6.770004,1.233814,-2.324991,-0.704128
16948,6.192613,-3.244471,6.887144,1.021876,-2.312588,-0.569875
16949,6.490195,-3.385045,6.731463,0.703034,-2.337620,-0.426487
16950,6.866423,-3.934216,6.335764,0.335352,-2.305687,-0.284517
16951,7.404617,-4.842724,5.681206,0.134525,-2.182009,-0.196460
16952,7.539545,-5.214792,5.120935,0.514845,-2.020783,-0.183228
16953,7.193772,-4.473710,5.930622,1.035529,-1.879040,-0.230807
16954,7.014091,-3.461259,6.813876,1.161025,-1.851488,-0.277035
16955,7.276953,-2.731119,7.293854,0.845356,-1.882224,-0.243692
16956,7.897987,-2.569722,7.199644,0.222736,-1.861904,-0.122601
16957,8.576406,-3.015780,6.777463,-0.344072,-1.750704,0.060847
16958,8.988135,-3.830545,6.547206,-0.638995,-1.596577,0.234698
16959,9.031279,-4.516597,6.188650,-0.685472,-1.471445,0.350978
16960,8.655513,-4.602597,5.535843,-0.487188,-1.381256,0.343250
16961,7.879827,-4.122400,5.510881,-0.182526,-1.238858,0.230567
16962,7.374552,-3.441640,6.282864,0.008343,-1.150873,0.082361
16963,7.573175,-3.121754,7.480571,-0.135834,-1.327094,0.126988
16964,7.416216,-3.171737,7.860990,-0.614358,-1.719343,0.362227
16965,6.926485,-4.326244,6.598578,-1.660379,-1.961620,0.556682
16966,7.494855,-6.167891,4.029917,-2.619617,-1.913777,0.585882
16967,8.403880,-8.468769,1.368375,-2.010398,-1.781149,0.550932
16968,9.238043,-8.666753,1.588224,-0.030601,-1.511808,0.499924
16969,9.596684,-6.586303,4.093697,1.126353,-1.305063,0.526264
16970,9.736653,-4.970765,5.215912,1.088527,-1.205339,0.617302
16971,9.571428,-4.213783,5.017065,0.648578,-1.128635,0.755972
16972,9.391179,-4.198633,4.673323,0.400881,-1.072899,0.828102
16973,9.463355,-3.876759,4.432687,0.429106,-1.024763,0.868786
16974,9.583158,-3.231620,4.500984,0.346698,-0.934419,0.894972
16975,9.635052,-2.701039,4.557783,0.049475,-0.811263,0.941033
16976,9.581394,-2.359685,4.610103,-0.372592,-0.720291,0.955743
16977,9.334104,-2.338523,4.489586,-0.840300,-0.656713,0.919347
16978,9.120763,-2.466118,4.229621,-1.173212,-0.584650,0.853952
16979,8.983819,-2.681129,4.082975,-1.382337,-0.505177,0.788262
16980,8.791869,-2.884932,3.903655,-1.530444,-0.446115,0.746066
16981,8.749285,-3.157726,3.777930,-1.628532,-0.420628,0.705453
16982,8.856365,-3.616854,3.835861,-1.662741,-0.418489,0.677592
16983,8.889144,-4.146670,3.892513,-1.658185,-0.425742,0.679702
16984,8.919863,-4.651310,3.719907,-1.652274,-0.446667,0.663517
16985,8.924081,-5.258043,3.400703,-1.574219,-0.469974,0.631063
16986,8.925977,-5.844322,3.128006,-1.287426,-0.461015,0.605364
16987,8.979703,-6.199459,2.990344,-0.833039,-0.423689,0.568421
16988,8.887033,-6.055939,3.045417,-0.369632,-0.379499,0.514475
16989,8.775482,-5.660493,3.274895,-0.038857,-0.349088,0.465253
16990,8.727007,-5.006703,3.383730,0.156100,-0.320360,0.431757
16991,8.735255,-4.352700,3.363567,0.232521,-0.276185,0.410610
16992,8.736609,-3.885094,3.455686,0.219297,-0.244499,0.380427
16993,8.766971,-3.628285,3.575852,0.089507,-0.221128,0.365660
16994,8.760357,-3.711169,3.680987,-0.114610,-0.197411,0.370047
16995,8.746777,-4.066388,3.551004,-0.316054,-0.203285,0.364780
16996,8.767075,-4.466889,3.212218,-0.349871,-0.227736,0.331967
16997,8.893919,-4.570234,2.867675,-0.248303,-0.204723,0.273540
16998,8.925955,-4.546213,2.758393,-0.144751,-0.151797,0.231601
16999,8.772004,-4.507182,2.747671,-0.098886,-0.106050,0.210296
17000,8.645344,-4.509694,2.684267,-0.116968,-0.074527,0.195839
17001,8.449253,-4.622918,2.415578,-0.130528,-0.054998,0.183709
17002,8.308456,-4.738615,2.262991,-0.071860,-0.046827,0.164443
17003,8.306490,-4.823695,2.314793,-0.003772,-0.035009,0.148152
17004,8.306399,-4.885053,2.291254,0.023356,-0.034587,0.130895
17005,8.354057,-4.921319,2.284378,0.053355,-0.022842,0.114766
17006,8.295505,-5.016629,2.307798,0.083192,-0.009015,0.133436
17007,8.205127,-5.172911,2.239417,0.083031,-0.017821,0.159625
17008,8.302452,-5.352845,2.244346,0.068261,-0.019633,0.175650
17009,8.329330,-5.480752,2.103160,0.066906,0.006158,0.193859
17010,8.292406,-5.398761,2.044276,0.133156,0.039037,0.198290
17011,8.308293,-5.136702,2.031490,0.187479,0.059724,0.187483
17012,8.500845,-4.723923,2.079566,0.226911,0.070801,0.161378
17013,8.528725,-4.358960,2.385268,0.265740,0.075030,0.118413
17014,8.676790,-4.186686,2.845812,0.117014,0.090047,0.120634
17015,8.567926,-4.397117,2.997709,-0.169118,0.123178,0.128725
17016,8.250434,-4.824031,2.791800,-0.313367,0.134716,0.137385
17017,8.204732,-5.069879,2.636406,-0.294289,0.139244,0.154121
17018,8.252298,-5.178614,2.574881,-0.257590,0.160421,0.174550
17019,8.186532,-5.264701,2.517114,-0.258090,0.150923,0.193306
17020,8.219201,-5.501365,2.325994,-0.287217,0.092279,0.186782
17021,8.403007,-5.853721,2.102357,-0.254727,0.041807,0.176472
17022,8.594825,-6.139244,1.844544,-0.112046,0.035723,0.160701
17023,8.612882,-6.237631,1.802824,0.102042,0.060039,0.144315
17024,8.604734,-5.999833,1.857804,0.275991,0.075479,0.129344
17025,8.641411,-5.655497,1.912984,0.390723,0.091136,0.120706
17026,8.675816,-5.266739,2.159214,0.480107,0.114305,0.099857
17027,8.628035,-4.841190,2.425928,0.495188,0.119118,0.079593
17028,8.590104,-4.505113,2.479571,0.411125,0.088330,0.050362
17029,8.655917,-4.365159,2.212217,0.308115,0.059063,0.013970
17030,8.886389,-4.339359,2.023766,0.255684,0.041813,-0.024587
17031,8.962869,-4.396236,2.010189,0.207389,0.052755,-0.047795
17032,8.968357,-4.433446,1.835465,0.078187,0.044186,-0.052934
17033,8.823489,-4.500624,1.540882,-0.063147,0.021569,-0.070001
17034,8.638995,-4.656086,1.700305,-0.074190,-0.042806,-0.141698
17035,8.593488,-4.730723,1.881730,0.026186,-0.074885,-0.238960
17036,8.514260,-4.253314,1.914698,0.244568,-0.024439,-0.340914
17037,8.465864,-3.305825,2.216007,0.467402,0.046823,-0.471034
17038,8.361969,-2.272316,2.565601,0.497258,0.133703,-0.570481
17039,8.473716,-1.557507,3.092586,0.274771,0.180487,-0.658559
17040,8.637415,-1.399153,3.767111,-0.205115,0.199716,-0.716015
17041,8.610061,-1.665514,3.964222,-0.809338,0.147026,-0.785570
17042,8.724266,-2.256187,3.563106,-1.175898,0.081137,-0.868098
17043,8.971471,-2.980290,3.121709,-1.316574,0.063447,-0.940249
17044,9.043534,-3.763627,2.660888,-1.304716,0.073365,-0.997688
17045,8.962787,-4.549780,2.224309,-1.140967,0.070740,-1.053296
17046,8.935867,-5.080486,1.938226,-0.825886,0.065433,-1.101366
17047,8.982823,-5.268730,1.926982,-0.413506,0.067227,-1.140809
17048,8.937461,-5.180053,2.105752,-0.109710,0.060905,-1.174474
17049,8.849371,-5.046848,2.245402,0.063957,0.047692,-1.208933
17050,8.720922,-4.994506,2.210540,0.236817,0.027990,-1.229787
17051,8.749369,-4.751106,2.174391,0.403086,0.006752,-1.247027
17052,8.653333,-4.521404,2.165242,0.518432,-0.018998,-1.254531
17053,8.707027,-4.261231,2.205172,0.557736,-0.039638,-1.267382
17054,8.739025,-4.049824,2.234338,0.544058,-0.058253,-1.281093
17055,8.785191,-3.786181,2.266081,0.486852,-0.074441,-1.297961
17056,8.913497,-3.668542,2.234359,0.380787,-0.089190,-1.320703
17057,9.118670,-3.522977,2.166529,0.269092,-0.076514,-1.328359
17058,9.292132,-3.545925,2.063944,0.153949,-0.054724,-1.326850
17059,9.472983,-3.564344,2.013603,0.046814,-0.036250,-1.329757
17060,9.570607,-3.558389,1.869641,-0.038443,-0.027267,-1.330048
17061,9.675382,-3.456984,1.773003,-0.076684,-0.019283,-1.332899
17062,9.718755,-3.296186,1.777459,-0.115151,-0.012191,-1.333477
17063,9.734117,-3.139283,1.850021,-0.196090,0.003907,-1.330330
17064,9.599177,-2.980659,1.859566,-0.285279,0.022345,-1.325116
17065,9.458941,-2.853136,1.892597,-0.353435,0.040349,-1.322799
17066,9.314482,-2.758016,1.947730,-0.461701,0.037850,-1.302650
17067,9.147554,-2.756299,1.907085,-0.576787,0.034872,-1.272534
17068,9.107763,-2.835446,1.920171,-0.654449,0.042856,-1.239409
17069,9.136664,-2.874453,1.932640,-0.733253,0.046328,-1.208451
17070,9.160757,-3.040113,1.803822,-0.814881,0.053090,-1.168544
17071,9.249363,-3.135654,1.597993,-0.802241,0.062076,-1.126747
17072,9.347365,-3.161345,1.631736,-0.732301,0.077049,-1.084777
17073,9.366112,-3.088041,1.706700,-0.685660,0.092920,-1.051668
17074,9.407534,-2.980303,1.693585,-0.656775,0.088063,-1.027867
17075,9.464305,-2.766458,1.811801,-0.645465,0.092026,-1.012501
17076,9.483482,-2.593560,1.913735,-0.652968,0.098905,-0.996577
17077,9.410138,-2.491843,1.936125,-0.710977,0.095009,-0.983203
17078,9.398130,-2.370212,1.985372,-0.770872,0.094299,-0.958252
17079,9.396604,-2.232981,1.946394,-0.816641,0.097547,-0.945667
17080,9.353048,-2.159696,2.030492,-0.871652,0.106475,-0.923325
17081,9.344859,-2.054187,1.958892,-0.933306,0.100711,-0.908196
17082,9.320414,-2.050855,1.927360,-0.994204,0.102551,-0.891430
17083,9.331929,-2.119506,1.942341,-1.039969,0.109441,-0.868208
17084,9.317102,-2.229031,1.845218,-1.062555,0.120020,-0.846879
17085,9.274779,-2.226020,1.823379,-1.042797,0.133685,-0.817059
17086,9.235261,-2.254178,1.821176,-1.023118,0.133961,-0.792261
17087,9.244896,-2.252110,1.827692,-1.000503,0.117235,-0.763302
17088,9.289074,-2.259562,1.752413,-0.946326,0.100758,-0.721225
17089,9.346999,-2.170720,1.697159,-0.893730,0.078949,-0.678421
17090,9.406971,-2.134563,1.624339,-0.838938,0.051881,-0.643935
17091,9.415377,-2.141052,1.627079,-0.783557,0.039359,-0.605415
17092,9.387179,-2.027646,1.572046,-0.689668,0.021362,-0.561732
17093,9.354601,-1.860921,1.714599,-0.632965,0.003743,-0.520839
17094,9.323317,-1.668091,1.807008,-0.632053,-0.012523,-0.493890
17095,9.323897,-1.616121,1.864345,-0.685034,-0.030747,-0.460296
17096,9.304498,-1.606307,1.859752,-0.736136,-0.046954,-0.429333
17097,9.294854,-1.680848,1.849603,-0.768637,-0.059263,-0.394448
17098,9.310162,-1.677298,1.760306,-0.760267,-0.067242,-0.364441
17099,9.397914,-1.580419,1.748789,-0.731051,-0.065867,-0.339710
17100,9.412322,-1.446059,1.798776,-0.685833,-0.044272,-0.316660
17101,9.410758,-1.340748,1.882445,-0.699695,-0.020178,-0.296142
17102,9.386360,-1.269709,2.030880,-0.743586,-0.025079,-0.276416
17103,9.417474,-1.260010,1.971397,-0.792895,-0.027680,-0.248061
17104,9.445629,-1.359755,1.932549,-0.846458,-0.025534,-0.226236
17105,9.361038,-1.581893,1.885680,-0.845941,-0.026318,-0.213695
17106,9.338968,-1.705269,1.774284,-0.754896,-0.034007,-0.203490
17107,9.334358,-1.668820,1.869290,-0.654795,-0.031627,-0.192573
17108,9.356097,-1.613071,1.957034,-0.587868,-0.040522,-0.179507
17109,9.392172,-1.618387,1.949167,-0.533421,-0.048392,-0.168263
17110,9.500976,-1.585149,1.910381,-0.472591,-0.051628,-0.155605
17111,9.453137,-1.530113,1.860415,-0.442891,-0.045442,-0.134453
17112,9.448746,-1.532107,1.882553,-0.408990,-0.051184,-0.118721
17113,9.471410,-1.530945,1.856976,-0.375453,-0.065437,-0.107890
17114,9.520397,-1.508795,1.823139,-0.308391,-0.065327,-0.101057
17115,9.509392,-1.409112,1.864412,-0.241219,-0.061609,-0.095399
17116,9.517656,-1.365558,1.900344,-0.207365,-0.060098,-0.086153
17117,9.474705,-1.342641,1.867714,-0.187793,-0.067040,-0.074200
17118,9.450363,-1.235507,1.892329,-0.125394,-0.066563,-0.063079
17119,9.432597,-1.230780,1.898208,-0.124754,-0.076190,-0.046739
17120,9.364642,-1.279646,1.756526,-0.138328,-0.076746,-0.030473
17121,9.387306,-1.258936,1.648192,-0.078751,-0.084440,-0.019527
17122,9.414217,-1.151451,1.702411,-0.038006,-0.090743,-0.009918
17123,9.454743,-1.139300,1.704644,-0.021492,-0.081158,0.002503
17124,9.541066,-1.054274,1.678362,0.012791,-0.077226,0.007106
17125,9.619379,-0.943788,1.765240,0.047190,-0.049654,0.008812
17126,9.652317,-0.830413,1.791632,0.045866,-0.032572,0.018031
17127,9.691480,-0.695236,1.825092,0.025648,-0.022671,0.025107
17128,9.703716,-0.673976,1.920831,0.003621,-0.008325,0.025500
17129,9.631632,-0.662570,1.944262,-0.042646,-0.000129,0.024919
17130,9.624857,-0.742909,1.944787,-0.072547,-0.000115,0.022960
17131,9.598371,-0.821561,1.959257,-0.070624,-0.002962,0.022901
17132,9.650700,-0.853900,1.910144,-0.051494,0.008506,0.035827
17133,9.683176,-0.830968,1.869680,-0.048148,0.019782,0.043346
17134,9.656119,-0.857289,1.879749,-0.043648,0.025846,0.051364
17135,9.713962,-0.852608,1.878427,-0.016958,0.027711,0.053116
17136,9.744579,-0.766560,1.997188,0.006362,0.042778,0.052292
17137,9.691003,-0.759574,2.011150,-0.029282,0.047436,0.056035
17138,9.664466,-0.764145,1.938264,-0.061695,0.043195,0.052414
17139,9.688899,-0.857456,1.946976,-0.060073,0.038478,0.042664
17140,9.720661,-0.959206,1.883266,-0.064338,0.043198,0.040836
17141,9.732943,-1.074786,1.795071,-0.047559,0.049445,0.044392
17142,9.680951,-1.130561,1.652270,-0.010383,0.049995,0.051710
17143,9.738337,-1.126003,1.653642,0.022231,0.047474,0.064184
17144,9.697264,-1.198144,1.654001,0.027585,0.039989,0.067557
17145,9.710932,-1.152152,1.546021,0.070462,0.031904,0.074775
17146,9.702583,-1.095067,1.615986,0.111874,0.036621,0.080427
17147,9.676143,-0.943011,1.648045,0.135226,0.040636,0.077666
17148,9.634609,-0.841596,1.792071,0.152480,0.036336,0.069032
17149,9.620113,-0.734216,1.888454,0.140496,0.039396,0.059974
17150,9.605874,-0.712885,1.913086,0.090260,0.036417,0.057606
17151,9.612885,-0.742744,1.805537,0.045512,0.032101,0.058423
17152,9.670450,-0.807718,1.773669,0.060488,0.031732,0.053378
17153,9.673837,-0.794661,1.908070,0.078404,0.041629,0.053914
17154,9.699609,-0.794389,1.865426,0.048140,0.042949,0.055350
17155,9.763168,-0.821198,1.879424,0.012855,0.037758,0.059013
17156,9.716061,-0.948105,1.795368,-0.010593,0.038721,0.063851
17157,9.648626,-1.056987,1.763815,0.000646,0.026340,0.065858
17158,9.662093,-1.049844,1.699968,0.045874,0.018175,0.063951
17159,9.667985,-0.945150,1.779677,0.092446,0.026261,0.054213
17160,9.648371,-0.805619,1.860958,0.089052,0.030906,0.050724
17161,9.626038,-0.844783,1.924376,0.048016,0.020906,0.051523
17162,9.624639,-0.919263,1.894526,0.030915,0.010965,0.049354
17163,9.665796,-0.906693,1.782269,0.044144,0.006755,0.053201
17164,9.604424,-0.957992,1.833319,0.032463,0.018119,0.049280
17165,9.643779,-0.983486,1.767949,0.023928,0.012268,0.053685
17166,9.644321,-0.933586,1.762203,0.054857,0.013489,0.047375
17167,9.642605,-0.904231,1.842569,0.069157,0.024224,0.045779
17168,9.569872,-0.891930,1.867869,0.027237,0.014359,0.048240
17169,9.608096,-0.971417,1.809131,0.004842,0.000614,0.045124
17170,9.614079,-1.039389,1.745023,0.035697,0.006697,0.040931
17171,9.607101,-0.977972,1.810881,0.065806,0.007990,0.036230
17172,9.593276,-0.938557,1.870955,0.056350,0.006459,0.032341
17173,9.600331,-0.934456,1.838448,0.040520,-0.002518,0.030463
17174,9.638251,-0.995960,1.818212,0.018141,0.002157,0.032340
17175,9.611445,-1.035281,1.788585,0.026591,0.015341,0.031064
17176,9.583657,-1.041110,1.837500,0.042106,0.013479,0.026846
17177,9.636311,-0.985900,1.861494,0.039824,0.010416,0.022883
17178,9.609620,-1.024121,1.831787,0.032965,0.001926,0.023033
17179,9.649434,-1.046988,1.765695,0.054551,0.006213,0.019216
17180,9.668075,-1.017380,1.830569,0.058759,0.003959,0.022100
17181,9.649887,-0.979016,1.798868,0.048459,0.003251,0.031858
17182,9.579658,-0.927091,1.775818,0.062665,0.000432,0.027388
17183,9.646145,-0.809780,1.849033,0.079342,0.000474,0.031128
17184,9.607284,-0.735950,1.909104,0.052062,0.009770,0.037046
17185,9.542005,-0.699927,1.938388,0.004180,0.002427,0.039964
17186,9.541738,-0.704231,1.938145,-0.045546,-0.004473,0.041838
17187,9.545623,-0.811644,1.919668,-0.072513,-0.005178,0.047837
17188,9.526213,-0.848510,1.855146,-0.077418,0.001899,0.052894
17189,9.498875,-0.874861,1.862904,-0.069386,0.000274,0.051164
17190,9.498100,-0.864726,1.900800,-0.088257,-0.006941,0.053328
17191,9.451817,-0.921864,1.843684,-0.108052,-0.007411,0.048236
17192,9.412272,-0.939392,1.831001,-0.102344,-0.009651,0.043596
17193,9.404571,-0.951058,1.862648,-0.092606,-0.002649,0.035119
17194,9.337772,-0.970654,1.897725,-0.115757,-0.000917,0.025511
17195,9.348503,-1.054951,1.883236,-0.137835,-0.014983,0.030877
17196,9.431479,-1.172557,1.805368,-0.148868,-0.021109,0.028040
17197,9.503631,-1.210656,1.739552,-0.128175,-0.023185,0.030397
17198,9.569915,-1.184352,1.738795,-0.094717,-0.024230,0.030225
17199,9.653542,-1.182160,1.809450,-0.101861,-0.022638,0.030270
17200,9.669643,-1.297826,1.805457,-0.131471,-0.032181,0.028177
17201,9.737000,-1.319741,1.685721,-0.115693,-0.044114,0.023958
