// Start Time: Unknown
// Update Rate: 100.0Hz
// Filter Profile: human (46.1)
// Firmware Version: 4.3.5
PacketCounter,Acc_X,Acc_Y,Acc_Z,Gyr_X,Gyr_Y,Gyr_Z
17517,9.564996,-1.239326,1.994768,0.006669,0.006975,-0.022673
17518,9.508169,-1.263633,1.957877,0.001704,0.011650,-0.018840
17519,9.572137,-1.283918,1.972675,0.015773,0.004893,-0.017251
17520,9.594713,-1.230892,1.951375,0.029703,0.003288,-0.017983
17521,9.596788,-1.174810,1.943195,0.035516,0.005800,-0.016202
17522,9.621767,-1.135081,1.975068,0.038670,0.006364,-0.014889
17523,9.614791,-1.084373,1.999805,0.026142,0.003961,-0.015885
17524,9.601157,-1.056808,2.018579,0.001536,0.000247,-0.016037
17525,9.603203,-1.001787,2.009570,-0.026327,0.003443,-0.014574
17526,9.606173,-1.086070,2.032872,-0.054499,0.000394,-0.012624
17527,9.590400,-1.118300,1.968495,-0.063031,0.000922,-0.012930
17528,9.568072,-1.169253,1.990192,-0.064076,0.008696,-0.012688
17529,9.534213,-1.212234,1.992047,-0.072951,0.005470,-0.011534
17530,9.545529,-1.224886,1.920297,-0.061149,0.002855,-0.006627
17531,9.548028,-1.238818,1.972868,-0.040087,0.004740,-0.005324
17532,9.552330,-1.199037,2.016916,-0.054041,0.008839,-0.003632
17533,9.545568,-1.222484,2.011350,-0.060290,0.005247,-0.007275
17534,9.575650,-1.288082,2.026655,-0.066014,0.002577,-0.004807
17535,9.509885,-1.320581,2.020847,-0.069603,0.000940,-0.007983
17536,9.526135,-1.363661,1.963099,-0.039182,-0.000144,-0.013210
17537,9.526276,-1.362871,1.962966,-0.016918,0.005364,-0.014930
17538,9.530755,-1.321228,2.007447,-0.008073,0.006294,-0.021348
17539,9.515039,-1.351291,1.944154,-0.000946,0.009769,-0.019303
17540,9.528444,-1.303374,1.956555,0.012756,0.013503,-0.026600
17541,9.519449,-1.306273,1.991094,0.019951,0.016800,-0.020273
17542,9.551513,-1.314555,1.999406,0.024552,0.006074,-0.027923
17543,9.592733,-1.317137,1.974306,0.021477,0.005340,-0.024972
17544,9.618300,-1.347858,1.976661,0.033925,0.007929,-0.028231
17545,9.588323,-1.279405,1.962237,0.051869,0.006779,-0.029213
17546,9.549322,-1.216099,1.980723,0.060409,0.006272,-0.028914
17547,9.553771,-1.172039,2.025940,0.043842,0.005916,-0.028695
17548,9.524371,-1.175330,1.981475,0.029153,0.004956,-0.023094
17549,9.485951,-1.184386,1.969791,0.025520,0.005793,-0.025278
17550,9.504280,-1.166627,1.995953,0.023297,0.002627,-0.029190
17551,9.516030,-1.171649,2.016505,0.014722,0.005626,-0.028520
17552,9.512136,-1.208791,1.973175,0.007495,0.004801,-0.033865
17553,9.542793,-1.270137,1.989689,0.014664,0.005811,-0.032815
17554,9.549657,-1.243542,1.996165,0.025301,0.008841,-0.037182
17555,9.566439,-1.275078,2.122574,0.010755,0.002704,-0.029245
17556,9.639928,-1.477805,2.236165,-0.033516,0.002590,-0.019992
17557,9.779322,-1.846679,2.303148,-0.073424,-0.012186,-0.012629
17558,9.970601,-2.352124,2.433077,-0.082683,-0.009606,0.002493
17559,9.959040,-2.854895,2.472251,-0.023583,0.002915,-0.015168
17560,9.678648,-3.122419,2.316436,0.135355,0.009675,-0.053473
17561,9.417318,-3.175606,2.151336,0.354100,0.001791,-0.087091
17562,9.232077,-3.057379,2.074070,0.537755,-0.035012,-0.082351
17563,9.123264,-3.044657,1.912312,0.711246,-0.068826,-0.042953
17564,9.103498,-2.849736,1.625577,0.975366,-0.079163,0.004506
17565,9.128143,-2.359900,1.576338,1.273561,-0.052350,0.059899
17566,9.171274,-1.588871,1.759963,1.467872,-0.023942,0.119064
17567,9.225358,-0.867868,2.048331,1.456668,-0.016465,0.180985
17568,9.335877,-0.381078,2.238453,1.254362,-0.011522,0.237672
17569,9.501970,-0.136337,2.341924,0.937572,0.011358,0.291328
17570,9.621428,-0.152478,2.305831,0.596255,0.038296,0.351508
17571,9.664934,-0.363558,2.259036,0.328025,0.074959,0.398834
17572,9.730852,-0.679138,2.289439,0.136191,0.115100,0.432315
17573,9.685862,-1.024519,2.346840,-0.035105,0.155476,0.458463
17574,9.609803,-1.345626,2.256387,-0.149191,0.177946,0.475647
17575,9.547013,-1.631188,2.226728,-0.172159,0.201158,0.492575
17576,9.399285,-1.899686,2.247547,-0.169426,0.213459,0.520471
17577,9.305803,-2.236668,2.243587,-0.173246,0.205792,0.555102
17578,9.247750,-2.576392,2.158810,-0.127531,0.188245,0.588152
17579,9.196148,-2.820056,2.100836,0.002641,0.183847,0.624434
17580,9.181695,-2.958333,2.117248,0.147234,0.172559,0.666383
17581,9.177538,-3.009930,2.216338,0.237456,0.158634,0.707110
17582,9.247873,-3.030036,2.088696,0.304201,0.152383,0.747369
17583,9.226557,-3.032928,2.044763,0.370697,0.147516,0.782159
17584,9.182797,-3.002509,1.995579,0.409885,0.127004,0.812100
17585,9.251685,-3.011504,1.905072,0.428835,0.105891,0.837149
17586,9.280133,-3.012464,1.837694,0.433279,0.097457,0.867728
17587,9.257359,-2.982422,1.863215,0.455479,0.095189,0.892369
17588,9.215370,-2.961824,2.007913,0.431418,0.088423,0.915444
17589,9.245723,-3.044743,2.081859,0.370774,0.079104,0.940595
17590,9.265270,-3.205227,2.134900,0.332250,0.096798,0.963143
17591,9.131679,-3.244480,2.159683,0.305874,0.105396,0.985394
17592,9.086903,-3.276813,2.228403,0.268019,0.095591,1.012651
17593,9.011155,-3.348699,2.267776,0.209339,0.078616,1.041257
17594,9.034405,-3.428906,2.172215,0.157398,0.063121,1.071960
17595,9.055864,-3.519285,2.129009,0.144715,0.057283,1.089012
17596,9.106739,-3.582710,2.165806,0.125370,0.058793,1.107444
17597,9.080606,-3.584677,2.230178,0.116055,0.058055,1.114815
17598,9.052896,-3.616580,2.312399,0.074031,0.060287,1.123752
17599,8.993363,-3.667385,2.456097,0.034801,0.048212,1.125587
17600,8.922950,-3.638840,2.462562,0.000055,0.031986,1.111474
17601,8.827725,-3.407498,2.356006,0.003028,0.017689,1.074972
17602,8.810027,-3.069698,2.480051,-0.042951,0.014809,1.033849
17603,8.694202,-2.866342,2.594300,-0.203983,-0.007923,1.000577
17604,8.768883,-2.943061,2.630620,-0.422911,-0.056307,0.966193
17605,8.842198,-3.193417,2.394892,-0.621294,-0.102818,0.956568
17606,8.775692,-3.798914,2.146137,-0.721467,-0.134468,0.996737
17607,8.444199,-4.521529,1.797765,-0.729731,-0.170974,1.080563
17608,8.064240,-5.185885,1.445783,-0.593225,-0.241529,1.108977
17609,8.134527,-5.641604,1.419622,-0.300136,-0.284657,1.090750
17610,8.247229,-5.549423,1.571459,-0.036446,-0.268272,1.070912
17611,8.191164,-5.403400,1.628884,0.101848,-0.252024,1.057154
17612,8.089234,-5.384877,1.596589,0.200089,-0.254356,1.037088
17613,8.145817,-5.398152,1.633594,0.295443,-0.250408,1.010428
17614,8.119504,-5.258907,1.748934,0.373178,-0.239072,0.973626
17615,8.082180,-4.981986,1.904306,0.377985,-0.247596,0.950318
17616,8.043657,-4.807801,1.953605,0.319187,-0.267294,0.930007
17617,8.037556,-4.863479,1.881205,0.249760,-0.284748,0.915214
17618,7.976744,-4.959231,1.723441,0.206563,-0.276124,0.902660
17619,7.837195,-4.905213,1.692436,0.226822,-0.281653,0.877410
17620,7.805214,-4.778688,1.680755,0.217775,-0.298870,0.857324
17621,7.826431,-4.790505,1.639982,0.215167,-0.324117,0.845581
17622,7.914492,-4.734989,1.660844,0.253978,-0.331861,0.809924
17623,7.933549,-4.613935,1.710513,0.285910,-0.338282,0.775343
17624,7.921651,-4.625854,1.766687,0.279488,-0.352350,0.745463
17625,8.043601,-4.587956,1.793028,0.302594,-0.369645,0.708685
17626,8.129877,-4.473912,1.782813,0.334125,-0.358148,0.673601
17627,8.095117,-4.407005,1.769901,0.355294,-0.343141,0.635651
17628,8.197549,-4.397455,1.706131,0.354773,-0.345900,0.605535
17629,8.264860,-4.453009,1.625439,0.370326,-0.344432,0.571702
17630,8.397320,-4.542765,1.619097,0.400194,-0.316971,0.544119
17631,8.426789,-4.637790,1.737803,0.426590,-0.301336,0.518352
17632,8.445080,-4.787931,1.865814,0.433728,-0.285484,0.493252
17633,8.359476,-4.856160,1.873380,0.449630,-0.280710,0.472721
17634,8.284825,-4.790355,1.880777,0.476284,-0.278433,0.450472
17635,8.172975,-4.678520,1.837812,0.467005,-0.271782,0.420910
17636,8.042500,-4.542723,1.839501,0.443405,-0.271648,0.389904
17637,8.007578,-4.396581,1.891441,0.416420,-0.261053,0.346666
17638,7.983473,-4.220885,2.062948,0.373473,-0.249614,0.312694
17639,7.951383,-4.138468,2.194380,0.295046,-0.244664,0.278466
17640,8.031335,-4.211730,2.211267,0.190335,-0.248800,0.249613
17641,8.047420,-4.396029,2.145813,0.117864,-0.246038,0.224235
17642,8.014885,-4.635115,2.046023,0.086498,-0.238761,0.192225
17643,8.018540,-4.912903,1.943042,0.083372,-0.231131,0.168105
17644,7.981168,-5.106876,1.837634,0.125816,-0.200179,0.144112
17645,7.942967,-5.256765,1.925292,0.193591,-0.183486,0.124219
17646,7.946998,-5.451776,1.979478,0.219288,-0.190346,0.114562
17647,7.947266,-5.646347,1.838505,0.256595,-0.206789,0.103375
17648,8.042017,-5.646954,1.801623,0.391007,-0.208310,0.078995
17649,8.128343,-5.442974,1.886510,0.501523,-0.215228,0.044825
17650,8.366414,-5.106041,2.021917,0.535775,-0.182324,0.013060
17651,8.470529,-4.762984,2.101447,0.542004,-0.117588,-0.016762
17652,8.318323,-4.503454,2.053382,0.478554,-0.100277,-0.051634
17653,8.474586,-4.293293,2.025346,0.450228,-0.070565,-0.088674
17654,8.598184,-3.998957,2.100133,0.473327,-0.004916,-0.121808
17655,8.553282,-3.692659,2.218907,0.422784,-0.006516,-0.148463
17656,8.768972,-3.777342,2.466619,0.226157,-0.040539,-0.153906
17657,9.015600,-4.248745,2.467646,0.074290,-0.011911,-0.148001
17658,9.065568,-4.565893,2.582728,0.092961,0.067529,-0.152292
17659,9.018707,-4.570830,2.972842,0.101246,0.151450,-0.151869
17660,9.043783,-4.562211,3.228613,-0.055878,0.191735,-0.154419
17661,9.254295,-4.819627,3.251579,-0.217115,0.220483,-0.160673
17662,9.415028,-5.145943,3.099035,-0.328164,0.251294,-0.181325
17663,9.337634,-5.399566,2.759936,-0.381581,0.255702,-0.224192
17664,9.574010,-5.578161,2.545101,-0.332478,0.290648,-0.275657
17665,9.792819,-5.421633,2.586717,-0.147121,0.396015,-0.336544
17666,9.791254,-4.817511,3.014074,0.102977,0.489724,-0.416174
17667,9.871441,-4.074626,3.551502,0.272633,0.525437,-0.497304
17668,10.101099,-3.490751,3.969984,0.371886,0.579948,-0.567216
17669,10.060159,-3.080839,4.370981,0.385650,0.627161,-0.633231
17670,10.028073,-2.894259,4.792017,0.220907,0.618560,-0.670184
17671,9.963731,-3.152285,4.815534,-0.057622,0.588079,-0.665269
17672,9.807952,-3.714985,4.409522,-0.152128,0.598590,-0.651881
17673,9.659125,-4.235193,4.267636,0.024857,0.663652,-0.649786
17674,9.499058,-4.419250,4.691103,0.239997,0.701873,-0.636071
17675,9.390196,-4.621196,5.174661,0.242229,0.694602,-0.591834
17676,9.373232,-5.058337,5.167674,0.135434,0.684810,-0.533614
17677,9.348081,-5.795977,4.880396,0.135721,0.710006,-0.464620
17678,9.341269,-6.378249,4.624105,0.360398,0.736516,-0.418754
17679,9.465397,-6.674266,4.653797,0.684183,0.784197,-0.373714
17680,9.697909,-6.697960,4.677626,0.910811,0.851752,-0.329584
17681,9.646942,-6.692990,4.763076,1.025244,0.910128,-0.296546
17682,9.546015,-6.744010,4.803015,1.086086,0.923146,-0.261511
17683,9.592348,-6.634909,4.717006,1.141768,0.925476,-0.224788
17684,9.690361,-6.447550,4.589989,1.177733,0.968293,-0.173300
17685,9.755277,-6.341048,4.615929,1.183581,1.058423,-0.103474
17686,9.611101,-6.293657,4.690762,1.168116,1.169791,-0.006995
17687,9.336904,-6.181672,4.813831,1.112865,1.253722,0.079417
17688,9.155407,-6.106933,5.157120,0.992999,1.314642,0.171737
17689,9.011916,-5.963179,5.165156,0.787080,1.364006,0.308768
17690,8.815501,-5.968041,4.969791,0.543972,1.436341,0.453186
17691,8.622336,-6.103005,4.668823,0.363782,1.516686,0.592944
17692,8.320817,-6.187876,4.367857,0.317613,1.584362,0.692977
17693,8.035007,-6.078715,4.624640,0.372142,1.686697,0.783336
17694,7.776879,-5.745290,4.985789,0.293654,1.716899,0.871997
17695,8.048705,-5.880641,5.245797,-0.033147,1.727847,0.987106
17696,7.951129,-6.454136,4.991435,-0.347715,1.833544,1.174532
17697,7.510465,-6.969320,4.488379,-0.486043,1.945302,1.323876
17698,7.181222,-7.530658,4.231317,-0.413032,1.998689,1.431233
17699,6.807118,-7.669150,4.301238,-0.166002,2.017007,1.559941
17700,6.616852,-7.309681,4.712750,-0.040241,1.946658,1.694780
17701,6.662390,-6.972279,5.119783,-0.173583,1.847600,1.832044
17702,6.629359,-6.765672,4.894792,-0.455028,1.810046,1.968221
17703,6.238862,-6.894039,4.446821,-0.699263,1.884966,2.095555
17704,5.612208,-7.145116,4.210605,-0.720815,1.985639,2.190214
17705,4.913476,-7.285090,4.646033,-0.633490,2.026000,2.266508
17706,4.447287,-7.205791,4.963813,-0.614106,1.973739,2.344367
17707,4.230271,-7.158998,5.404856,-0.660595,1.968981,2.432541
17708,4.163442,-7.208863,5.421366,-0.726742,1.967721,2.521077
17709,3.920003,-7.277256,5.682279,-0.699808,2.041132,2.593671
17710,3.622900,-7.089177,6.040853,-0.711581,2.079086,2.625177
17711,3.567716,-6.856197,6.084387,-0.824246,2.093180,2.646934
17712,3.530253,-6.757306,5.841319,-1.036530,2.161915,2.634056
17713,3.316308,-6.821871,5.602119,-1.198836,2.273360,2.596882
17714,3.010656,-6.787463,5.234650,-1.265296,2.391667,2.532089
17715,2.464691,-6.867026,5.536748,-1.277843,2.523520,2.470324
17716,1.936355,-6.785940,5.759484,-1.358051,2.529779,2.401319
17717,1.791585,-6.807032,5.924858,-1.459666,2.505486,2.366304
17718,1.586398,-6.853736,5.596345,-1.638258,2.506646,2.345511
17719,1.242943,-7.212285,5.313922,-1.736205,2.557537,2.329305
17720,0.980217,-7.475654,4.993942,-1.689234,2.537128,2.314026
17721,0.878704,-7.549719,4.697705,-1.572713,2.505894,2.280838
17722,0.840740,-7.630514,4.717875,-1.469535,2.536949,2.248490
17723,0.422357,-7.656470,4.734375,-1.401911,2.558754,2.204690
17724,-0.245335,-7.656507,4.541377,-1.415475,2.510624,2.127459
17725,-0.873597,-7.676279,4.525641,-1.411629,2.439116,2.055862
17726,-1.373013,-7.604459,4.893469,-1.323954,2.319080,2.001480
17727,-1.391926,-7.518813,4.749467,-1.353495,2.175052,1.977977
17728,-1.462720,-7.741919,4.234294,-1.410217,2.098592,1.962294
17729,-1.574512,-8.069932,3.769700,-1.275907,2.054660,1.954498
17730,-2.070332,-8.029832,3.588915,-0.988006,2.004628,1.926658
17731,-2.338182,-7.688532,3.832683,-0.765687,1.914810,1.867148
17732,-2.353962,-7.397689,3.975003,-0.736923,1.834924,1.788399
17733,-2.399821,-7.288141,3.697564,-0.793015,1.790139,1.713140
17734,-2.664480,-7.292986,3.282034,-0.724156,1.765505,1.664534
17735,-2.841715,-7.063976,3.157460,-0.593169,1.710404,1.616421
17736,-3.052756,-6.953323,3.023693,-0.547597,1.658395,1.582154
17737,-3.327741,-6.827072,2.825153,-0.520224,1.589118,1.519703
17738,-3.418888,-6.763505,2.738077,-0.455064,1.530200,1.457906
17739,-3.542937,-6.705625,2.682293,-0.398390,1.475004,1.394774
17740,-3.735951,-6.620498,2.507232,-0.390379,1.408587,1.342074
17741,-3.959479,-6.649111,2.186561,-0.346520,1.332560,1.287407
17742,-4.217337,-6.529972,2.017036,-0.227054,1.252104,1.219701
17743,-4.146181,-6.442466,1.866865,-0.144846,1.160333,1.144630
17744,-4.256785,-6.268846,1.797908,-0.074014,1.112365,1.063970
17745,-4.426098,-6.027340,1.985612,-0.041291,1.057915,0.964839
17746,-4.537334,-5.836364,2.050903,-0.057161,0.979630,0.879228
17747,-4.671101,-5.800831,1.810733,-0.106465,0.921061,0.809062
17748,-4.690427,-5.834160,1.612537,-0.117584,0.871842,0.727384
17749,-4.750289,-5.897898,1.544019,-0.081769,0.824863,0.656035
17750,-4.844042,-5.905839,1.458351,-0.035026,0.759606,0.578201
17751,-4.831012,-5.895182,1.364900,0.007360,0.709041,0.504113
17752,-4.967470,-5.744606,1.357047,0.038936,0.666839,0.428932
17753,-5.046695,-5.703707,1.464045,0.039540,0.611593,0.343811
17754,-4.991945,-5.734773,1.499212,0.024936,0.540786,0.256100
17755,-4.945518,-5.780715,1.377674,0.043422,0.472963,0.172161
17756,-5.006616,-5.763182,1.436837,0.095474,0.414762,0.077437
17757,-4.989190,-5.642701,1.554538,0.109859,0.351897,-0.020780
17758,-4.961964,-5.610637,1.814091,0.106915,0.286715,-0.116564
17759,-4.875320,-5.740424,1.875694,0.092715,0.244748,-0.208730
17760,-5.019065,-5.924816,1.804287,0.125003,0.219006,-0.292909
17761,-5.179108,-5.930986,1.822369,0.197191,0.172586,-0.384750
17762,-5.186851,-5.867261,2.024094,0.254895,0.110877,-0.473366
17763,-5.022999,-5.973197,2.039247,0.224169,0.055733,-0.538731
17764,-5.045356,-6.105806,2.099459,0.211841,0.015418,-0.599375
17765,-4.957456,-6.236207,2.230250,0.246693,-0.029512,-0.645418
17766,-4.682133,-6.358554,2.294081,0.248829,-0.080867,-0.695944
17767,-4.465437,-6.519283,2.323528,0.253892,-0.124395,-0.758143
17768,-4.297934,-6.612897,2.288681,0.329835,-0.163866,-0.851854
17769,-4.268440,-6.579222,2.377267,0.440016,-0.194601,-0.968651
17770,-4.244693,-6.649879,2.484575,0.516045,-0.250001,-1.093853
17771,-4.214421,-6.573748,2.362955,0.628188,-0.308226,-1.171531
17772,-4.471463,-6.363386,2.804113,0.790709,-0.311307,-1.236100
17773,-4.787353,-6.462495,2.899186,0.811741,-0.359648,-1.283691
17774,-4.568282,-6.765958,2.686401,0.890884,-0.398534,-1.324400
17775,-4.287919,-6.893016,2.784706,1.037442,-0.390625,-1.370677
17776,-4.082118,-6.978547,2.959530,1.100065,-0.431070,-1.430456
17777,-3.585323,-7.126551,3.084931,1.149694,-0.486703,-1.511958
17778,-3.381914,-7.167520,3.229869,1.209246,-0.519335,-1.586214
17779,-3.445767,-7.126568,3.514452,1.226292,-0.580638,-1.667572
17780,-3.506967,-7.214732,3.390869,1.188289,-0.674184,-1.733230
17781,-3.561870,-7.545454,3.348048,1.196954,-0.756983,-1.795361
17782,-3.707966,-8.034816,3.152516,1.219979,-0.839163,-1.818125
17783,-3.836962,-8.411763,2.981836,1.375234,-0.926390,-1.824152
17784,-3.719992,-8.532904,3.292993,1.604270,-1.032260,-1.840578
17785,-3.362499,-8.359072,3.489509,1.760111,-1.184242,-1.865378
17786,-2.810261,-8.173994,3.666276,1.828971,-1.301687,-1.922368
17787,-2.152812,-8.243655,3.780609,1.885385,-1.423714,-1.993046
17788,-1.821466,-8.255423,3.885704,1.999395,-1.524579,-2.056725
17789,-2.037481,-8.165189,3.969499,2.103681,-1.604673,-2.082504
17790,-2.434381,-8.046240,3.912884,2.181682,-1.718181,-2.102364
17791,-2.455066,-7.989691,4.208503,2.244622,-1.849536,-2.108659
17792,-2.230697,-7.925017,4.445665,2.253423,-1.994258,-2.119738
17793,-1.490747,-7.918025,4.628758,2.259064,-2.161512,-2.165818
17794,-0.539484,-8.004148,4.852530,2.303518,-2.270682,-2.195910
17795,-0.260552,-7.971200,5.156247,2.399527,-2.319572,-2.230068
17796,-0.215692,-7.671731,5.337329,2.492837,-2.418772,-2.265425
17797,0.090365,-7.092998,5.310093,2.553019,-2.461250,-2.229885
17798,-0.140960,-6.704146,5.279507,2.512846,-2.439033,-2.160941
17799,0.128461,-6.513011,5.294966,2.436898,-2.492509,-2.157659
17800,0.895126,-6.197609,5.719522,2.401047,-2.492893,-2.160972
17801,1.232015,-5.776326,6.575649,2.318963,-2.476822,-2.168980
17802,1.819914,-5.645456,7.244080,2.063534,-2.559465,-2.180209
17803,2.596291,-5.698671,7.320265,1.722943,-2.610036,-2.179630
17804,2.916376,-6.060850,6.944941,1.467924,-2.545978,-2.134482
17805,2.555599,-6.300203,6.500049,1.425792,-2.377493,-2.030497
17806,1.876373,-6.312671,6.402549,1.569835,-2.266784,-1.925373
17807,2.190698,-5.996326,6.795669,1.649288,-2.338570,-1.849024
17808,3.452118,-5.370090,6.885099,1.583932,-2.355005,-1.755168
17809,4.427143,-5.058270,7.718339,1.430225,-2.176922,-1.628240
17810,5.082064,-5.453722,8.841265,1.076174,-2.030631,-1.485525
17811,5.160002,-6.098129,8.752295,0.723747,-1.956747,-1.373238
17812,5.030287,-6.722183,8.371837,0.650433,-1.914856,-1.262342
17813,4.748672,-6.842405,7.652379,0.805616,-1.934975,-1.166425
17814,4.644487,-6.486950,6.900768,0.980241,-1.945498,-1.118434
17815,4.935393,-6.031352,6.856087,1.160800,-1.858944,-1.097233
17816,5.110808,-5.777097,7.638204,1.204556,-1.773804,-1.028428
17817,5.307151,-5.516095,7.605763,1.032355,-1.728997,-0.949245
17818,5.110743,-5.281106,7.511344,0.889441,-1.644054,-0.857941
17819,4.925742,-5.371264,7.657873,0.749804,-1.601404,-0.753321
17820,4.953766,-5.443696,7.272815,0.627376,-1.652892,-0.601917
17821,5.066253,-5.387302,6.445580,0.562099,-1.643754,-0.461812
17822,5.189054,-5.366719,5.693844,0.587708,-1.645300,-0.324442
17823,5.269591,-5.277492,5.396913,0.761993,-1.676588,-0.225510
17824,5.632873,-5.078733,5.164078,0.873321,-1.767661,-0.157661
17825,6.172393,-4.712438,5.145029,0.999184,-1.796474,-0.102654
17826,6.445216,-4.425645,5.597233,0.968364,-1.835509,-0.007232
17827,6.700198,-4.260320,5.574718,0.665456,-1.910513,0.128643
17828,6.845296,-4.359249,4.893874,0.282824,-1.963471,0.280934
17829,6.800417,-4.711743,4.353808,0.063763,-1.916422,0.365240
17830,6.912996,-5.126222,3.931021,0.016477,-1.812204,0.371839
17831,7.066643,-4.939148,3.581338,0.244955,-1.674449,0.309517
17832,7.141822,-4.369838,4.280916,0.489310,-1.516867,0.237787
17833,7.317733,-3.875733,5.170746,0.463687,-1.480479,0.189201
17834,7.693143,-3.575510,5.900123,0.203507,-1.452681,0.178425
17835,8.313256,-3.571559,6.397259,-0.290430,-1.413724,0.260377
17836,8.718316,-4.056450,5.900647,-0.825146,-1.373115,0.392394
17837,8.953188,-4.709940,5.188675,-1.043322,-1.289925,0.511067
17838,9.021108,-5.219034,4.766887,-1.007060,-1.200053,0.597618
17839,9.040861,-5.440124,4.749046,-0.925198,-1.117966,0.637948
17840,8.909684,-5.288133,4.848476,-0.938664,-1.075370,0.646093
17841,8.685943,-4.901331,4.826668,-0.985636,-1.037278,0.597539
17842,8.347603,-4.366695,5.013720,-0.923227,-0.957832,0.485311
17843,8.163290,-4.000598,5.423336,-0.901157,-0.942624,0.390100
17844,8.278002,-4.075145,5.819188,-1.045387,-0.987021,0.388458
17845,8.580720,-4.468730,5.533167,-1.279777,-1.049187,0.457705
17846,8.852517,-4.894857,4.766359,-1.365092,-1.068530,0.526989
17847,9.054056,-5.266402,4.108001,-1.213613,-1.051817,0.600104
17848,9.239800,-5.623971,3.858674,-1.000852,-1.032862,0.660235
17849,9.384462,-5.975625,4.085545,-0.742493,-1.019002,0.692802
17850,9.412058,-6.148370,4.547717,-0.523356,-0.979193,0.673160
17851,9.245026,-6.100266,4.922104,-0.407813,-0.900807,0.647268
17852,8.777214,-6.069633,5.029251,-0.381678,-0.811042,0.639826
17853,8.155289,-6.165961,4.824305,-0.321883,-0.799280,0.688990
17854,7.611012,-6.135897,4.505993,-0.216532,-0.866625,0.779103
17855,7.600964,-5.916422,3.973635,-0.176884,-0.955594,0.838112
17856,8.354997,-5.627464,3.482760,-0.105998,-0.963057,0.808653
17857,9.352203,-5.311643,3.607682,0.073902,-0.818102,0.749737
17858,10.057006,-4.954445,4.062006,0.218552,-0.608345,0.689435
17859,10.128704,-4.552363,4.303661,0.263310,-0.395361,0.659724
17860,9.737404,-4.160783,4.471967,0.273091,-0.275524,0.615163
17861,9.265228,-3.711533,4.557442,0.272096,-0.209611,0.551135
17862,8.977521,-3.260730,4.689954,0.205993,-0.185411,0.498461
17863,8.719890,-3.075879,4.951501,-0.011607,-0.207799,0.496548
17864,8.299618,-3.541266,5.005286,-0.475018,-0.286220,0.564323
17865,7.875607,-4.447907,4.409561,-0.902077,-0.437908,0.592652
17866,8.011451,-5.453151,3.583320,-0.976353,-0.555669,0.553665
17867,8.405675,-6.289549,2.881213,-0.610669,-0.529143,0.490003
17868,8.646320,-6.401072,2.469249,0.000068,-0.418595,0.430089
17869,8.604539,-5.911892,2.538903,0.426345,-0.318313,0.396916
17870,8.378352,-5.488073,2.672109,0.549077,-0.272775,0.364180
17871,8.195986,-5.302059,2.694150,0.587844,-0.262808,0.325442
17872,8.159163,-5.134501,2.660677,0.665481,-0.241422,0.304199
17873,8.055488,-4.968187,2.841507,0.723271,-0.230715,0.287617
17874,7.953382,-4.915099,2.987693,0.669089,-0.243525,0.270779
17875,7.961275,-4.912985,2.887364,0.569428,-0.254757,0.260323
17876,7.969073,-4.868430,2.821774,0.503188,-0.251051,0.246534
17877,7.996028,-4.809859,2.750001,0.413159,-0.233865,0.223472
17878,8.036864,-4.816175,2.625883,0.312966,-0.216207,0.198635
17879,8.041106,-4.875157,2.606926,0.252157,-0.184786,0.173748
17880,8.096195,-4.808440,2.549174,0.238099,-0.150196,0.143328
17881,8.125872,-4.769948,2.575559,0.223912,-0.111152,0.113790
17882,8.185631,-4.827896,2.887547,0.140033,-0.086629,0.109731
17883,8.179419,-5.130577,2.944222,0.016858,-0.062522,0.105198
17884,8.020074,-5.404981,2.795027,-0.012351,-0.056927,0.090356
17885,8.065403,-5.470178,2.785964,0.079394,-0.049724,0.055824
17886,8.085518,-5.139701,2.812217,0.138674,-0.025701,0.021782
17887,8.122068,-4.731282,2.907863,0.140774,-0.005958,-0.025059
17888,8.227329,-4.430228,3.056472,0.084644,0.007073,-0.073289
17889,8.387721,-4.331777,3.102946,-0.032599,0.012040,-0.114572
17890,8.506715,-4.296024,2.769928,-0.130517,0.012379,-0.165219
17891,8.632542,-4.156708,2.378572,-0.139286,0.030714,-0.224923
17892,8.933194,-3.885504,2.305007,-0.136922,0.062694,-0.300080
17893,9.248324,-3.737022,2.437639,-0.200555,0.108811,-0.378919
17894,9.418453,-3.744782,2.612391,-0.294992,0.154973,-0.459634
17895,9.327931,-3.833386,2.702841,-0.369565,0.179459,-0.532199
17896,9.163179,-3.848234,2.678229,-0.398502,0.195276,-0.604697
17897,8.906044,-3.756572,2.822945,-0.396664,0.203424,-0.684245
17898,8.770683,-3.639949,3.034368,-0.435317,0.181156,-0.760964
17899,8.710563,-3.502267,3.193722,-0.470871,0.169097,-0.830728
17900,8.702036,-3.268036,3.385841,-0.479551,0.189502,-0.901772
17901,8.693303,-3.127458,3.688426,-0.543658,0.215727,-0.970794
17902,8.700635,-2.996774,3.792701,-0.694394,0.218953,-1.045636
17903,8.730758,-2.995132,3.607582,-0.864127,0.227583,-1.118133
17904,8.818881,-3.204592,3.202602,-0.940554,0.229093,-1.188602
17905,8.898291,-3.390522,2.694353,-0.914126,0.230368,-1.253873
17906,9.098355,-3.486654,2.299344,-0.801099,0.250150,-1.308422
17907,9.300271,-3.550489,2.050793,-0.704391,0.285517,-1.356400
17908,9.434466,-3.728426,1.879788,-0.679283,0.332759,-1.391928
17909,9.454653,-3.986774,1.651327,-0.638511,0.378832,-1.438415
17910,9.412807,-4.206333,1.381054,-0.515203,0.388768,-1.491023
17911,9.539883,-4.227497,1.219306,-0.329645,0.414660,-1.541555
17912,9.499782,-4.029462,1.302194,-0.178110,0.418396,-1.606766
17913,9.470105,-3.769730,1.614506,-0.144831,0.362475,-1.676902
17914,9.608437,-3.514958,1.825425,-0.189671,0.324774,-1.753043
17915,9.510447,-3.473191,2.199907,-0.243888,0.339777,-1.834763
17916,9.155522,-3.610858,2.678206,-0.379262,0.332112,-1.883338
17917,8.879648,-3.785729,2.896836,-0.524077,0.326683,-1.887514
17918,8.736673,-3.767283,2.978006,-0.607284,0.340322,-1.857480
17919,8.633830,-3.759752,3.065947,-0.731577,0.341636,-1.793783
17920,8.591074,-3.910431,2.894572,-0.892471,0.326408,-1.715543
17921,8.669059,-4.183687,2.527870,-0.945661,0.294154,-1.643455
17922,8.880571,-4.386870,2.257449,-0.897835,0.270711,-1.591731
17923,9.000745,-4.559066,2.005253,-0.786325,0.270157,-1.537884
17924,9.076875,-4.579480,1.979373,-0.652860,0.262141,-1.489507
17925,9.054077,-4.604432,1.943663,-0.501994,0.260436,-1.444050
17926,8.885264,-4.533741,1.891664,-0.348482,0.256389,-1.398275
17927,8.736672,-4.316537,1.822337,-0.180773,0.224711,-1.342862
17928,8.809467,-4.022845,1.793153,-0.055518,0.180373,-1.265029
17929,8.969424,-3.818982,1.675400,0.012539,0.138239,-1.191235
17930,9.167423,-3.592551,1.681892,0.079508,0.118909,-1.124043
17931,9.305852,-3.237509,1.662638,0.154443,0.101831,-1.068670
17932,9.284528,-2.784506,1.785829,0.184980,0.106576,-1.022378
17933,9.234841,-2.413302,1.977277,0.086684,0.093779,-0.990603
17934,9.260837,-2.276935,2.021128,-0.099726,0.076184,-0.936714
17935,9.222867,-2.196294,1.966646,-0.245245,0.071375,-0.901760
17936,9.169009,-2.124757,1.996777,-0.320904,0.079075,-0.854121
17937,9.024515,-2.012197,2.101287,-0.426373,0.071475,-0.801106
17938,9.029827,-1.904852,2.166153,-0.560805,0.049524,-0.745564
17939,9.074559,-1.926120,2.263240,-0.698016,0.037138,-0.684721
17940,9.116661,-2.044641,2.226521,-0.850895,0.023185,-0.634111
17941,9.143455,-2.152414,2.086276,-0.918560,0.015218,-0.591095
17942,9.260059,-2.149993,2.069235,-0.897106,0.009566,-0.559035
17943,9.326781,-2.198522,2.142443,-0.908494,0.004633,-0.520006
17944,9.262902,-2.352606,2.105791,-0.899538,-0.021156,-0.476291
17945,9.284221,-2.655117,2.013932,-0.816342,-0.072736,-0.416454
17946,9.037956,-2.909487,1.911794,-0.633514,-0.129554,-0.342028
17947,8.853989,-2.903752,1.827664,-0.425733,-0.195017,-0.309769
17948,9.024831,-2.553828,1.878567,-0.241685,-0.232199,-0.319846
17949,9.181828,-2.039812,2.069231,-0.121825,-0.212436,-0.324211
17950,9.281919,-1.644967,2.308638,-0.144134,-0.197524,-0.333604
17951,9.306030,-1.403985,2.510227,-0.285299,-0.196970,-0.350592
17952,9.398566,-1.264315,2.287909,-0.451474,-0.172390,-0.367779
17953,9.446173,-1.310961,2.311658,-0.562634,-0.133174,-0.359500
17954,9.414331,-1.460022,2.427808,-0.639676,-0.110236,-0.344577
17955,9.322049,-1.617750,2.373607,-0.694372,-0.109176,-0.326414
17956,9.314061,-1.620956,2.325451,-0.715111,-0.128090,-0.317117
17957,9.445000,-1.607275,2.271003,-0.726797,-0.127062,-0.297919
17958,9.467081,-1.505564,2.043695,-0.752530,-0.116950,-0.284434
17959,9.449638,-1.468695,1.814359,-0.761964,-0.113317,-0.280661
17960,9.505508,-1.329744,1.754675,-0.745347,-0.102314,-0.294324
17961,9.506681,-1.229615,1.710909,-0.734854,-0.078466,-0.313007
17962,9.430826,-1.151607,1.844306,-0.745942,-0.047007,-0.325458
17963,9.427568,-1.129350,2.126121,-0.789158,-0.021707,-0.322645
17964,9.412828,-1.335501,2.476836,-0.869801,0.000958,-0.303151
17965,9.353030,-1.595808,2.541273,-0.933649,0.008045,-0.263385
17966,9.364079,-1.745371,2.406674,-0.897926,0.003309,-0.233448
17967,9.367761,-1.829357,2.503970,-0.835091,-0.000093,-0.211973
17968,9.467255,-1.789861,2.455880,-0.779684,-0.005088,-0.191337
17969,9.464388,-1.705286,2.422400,-0.730057,0.001463,-0.178598
17970,9.467268,-1.721757,2.462280,-0.693194,-0.004107,-0.178288
17971,9.422598,-1.743012,2.466286,-0.655243,-0.006075,-0.165786
17972,9.373083,-1.770173,2.411579,-0.583411,-0.005838,-0.155687
17973,9.381731,-1.818428,2.464917,-0.518148,-0.022042,-0.137806
17974,9.412195,-1.815765,2.350632,-0.452755,-0.034649,-0.121037
17975,9.505628,-1.793832,2.300702,-0.352776,-0.039769,-0.110368
17976,9.574923,-1.660873,2.256012,-0.262150,-0.024029,-0.100564
17977,9.563725,-1.538998,2.222049,-0.196315,-0.011393,-0.088788
17978,9.567476,-1.439899,2.320960,-0.191182,-0.004718,-0.075858
17979,9.530489,-1.378903,2.245058,-0.224983,-0.021588,-0.057006
17980,9.579080,-1.339520,2.172709,-0.243497,-0.023687,-0.037374
17981,9.584476,-1.301041,2.124299,-0.238146,-0.013559,-0.021468
17982,9.568237,-1.281732,2.139879,-0.229737,-0.011365,-0.009079
17983,9.515101,-1.295677,2.190387,-0.245416,-0.019406,0.012391
17984,9.539194,-1.374754,2.077329,-0.252008,-0.028484,0.026803
17985,9.512730,-1.348810,1.921327,-0.214784,-0.024982,0.042870
17986,9.519475,-1.221618,1.978513,-0.155632,-0.011881,0.046886
17987,9.527460,-1.168015,2.091959,-0.164563,0.001042,0.051304
17988,9.494520,-1.147528,2.031215,-0.185226,0.007170,0.047234
17989,9.552148,-1.161918,2.086191,-0.176642,0.021964,0.037889
17990,9.557187,-1.220510,2.149130,-0.193613,0.036471,0.032691
17991,9.515436,-1.336901,2.179507,-0.210682,0.047563,0.035103
17992,9.486474,-1.533853,2.132188,-0.203072,0.038753,0.042876
17993,9.508715,-1.631730,2.074865,-0.169616,0.031124,0.048544
17994,9.551250,-1.674440,2.003385,-0.099502,0.025969,0.053827
17995,9.573823,-1.549498,1.997353,-0.019176,0.031951,0.054553
17996,9.575012,-1.442968,2.055104,0.006812,0.030684,0.051361
17997,9.561904,-1.383433,2.036333,-0.004732,0.035758,0.051015
17998,9.545019,-1.400585,2.011472,0.022517,0.032477,0.051471
17999,9.532882,-1.414788,2.046050,0.028761,0.028469,0.052476
18000,9.516022,-1.431456,2.021316,0.056576,0.032553,0.054628
18001,9.519646,-1.393076,1.983233,0.101274,0.033491,0.053160
18002,9.531740,-1.294040,2.062052,0.116657,0.031367,0.054568
18003,9.582246,-1.198114,2.057488,0.123845,0.024432,0.057236
18004,9.622205,-1.092785,2.033206,0.112434,0.035460,0.060926
18005,9.635733,-1.010300,2.012574,0.084965,0.043733,0.062574
18006,9.601446,-0.950082,2.006890,0.039489,0.049265,0.054690
18007,9.583452,-0.931968,2.031736,0.011312,0.044224,0.050611
18008,9.656958,-0.947645,2.021115,-0.026104,0.051134,0.049064
18009,9.618005,-0.984473,2.060587,-0.042933,0.060247,0.046089
18010,9.599331,-0.986459,2.136775,-0.066245,0.055661,0.040449
18011,9.613786,-1.034108,2.172118,-0.118185,0.055944,0.034982
18012,9.599128,-1.122826,2.050941,-0.144823,0.055415,0.034170
18013,9.533667,-1.182211,2.092034,-0.114042,0.056981,0.030561
18014,9.529667,-1.191480,2.246589,-0.117316,0.058573,0.023708
18015,9.506683,-1.196182,2.261691,-0.140495,0.048658,0.020135
18016,9.512038,-1.268312,2.227019,-0.142173,0.049251,0.018833
18017,9.538140,-1.360055,2.231992,-0.128237,0.056978,0.015562
18018,9.511390,-1.420849,2.190112,-0.116511,0.063742,0.013489
18019,9.483791,-1.501019,2.199552,-0.086858,0.064717,0.015925
18020,9.510877,-1.496633,2.101989,-0.048488,0.055148,0.015037
18021,9.460986,-1.465397,2.119107,-0.003671,0.059298,0.006321
18022,9.474505,-1.399164,2.150910,0.010149,0.052636,0.004484
18023,9.475238,-1.359260,2.054150,0.010038,0.046738,0.000377
18024,9.489567,-1.346698,2.087124,0.024680,0.042528,-0.001919
18025,9.526433,-1.314025,2.058035,0.037274,0.046255,-0.002206
18026,9.562774,-1.355655,2.082175,0.041203,0.046687,-0.002153
18027,9.588396,-1.332658,2.084246,0.037020,0.039855,-0.001982
18028,9.557134,-1.355966,2.031973,0.060788,0.045844,0.001408
18029,9.510038,-1.284710,2.156945,0.083802,0.035557,0.002281
18030,9.529454,-1.248389,2.198159,0.071264,0.026436,-0.005884
18031,9.518269,-1.181716,2.179269,0.066635,0.021097,-0.006563
18032,9.528113,-1.189331,2.202142,0.072381,0.026961,-0.011814
18033,9.468763,-1.143709,2.197692,0.064033,0.033063,-0.015011
18034,9.442986,-1.143152,2.152617,0.053155,0.020409,-0.018642
18035,9.481087,-1.163342,2.123789,0.044259,0.022046,-0.016153
18036,9.487302,-1.173587,2.086566,0.053341,0.020911,-0.012390
18037,9.431890,-1.125629,2.140547,0.055226,0.020895,-0.015507
18038,9.458630,-1.155924,2.142715,0.035433,0.018247,-0.011479
18039,9.475178,-1.176715,2.124692,0.043355,0.013673,-0.009157
18040,9.473326,-1.139908,2.174867,0.036442,0.012799,-0.010837
18041,9.510501,-1.180870,2.195662,0.012938,0.004754,-0.008993
18042,9.498827,-1.262157,2.070932,0.011222,0.005276,-0.010231
18043,9.518819,-1.225724,2.108748,0.056939,0.000624,-0.010678
18044,9.514374,-1.172642,2.257352,0.064472,0.000523,-0.012500
18045,9.585378,-1.129586,2.181629,0.044224,-0.000652,-0.009320
18046,9.558979,-1.149267,2.185264,0.045650,0.009228,-0.018792
18047,9.542233,-1.123918,2.206348,0.051367,0.003712,-0.015291
