// Start Time: Unknown
// Update Rate: 100.0Hz
// Filter Profile: human (46.1)
// Firmware Version: 4.3.5
PacketCounter,Acc_X,Acc_Y,Acc_Z,Gyr_X,Gyr_Y,Gyr_Z
09359,9.710603,-1.644834,0.799669,-0.016491,0.003686,-0.002311
09360,9.747093,-1.679434,0.767657,-0.012154,0.005217,-0.003316
09361,9.747111,-1.679138,0.768073,-0.007816,0.006748,-0.004320
09362,9.780562,-1.661784,0.788126,-0.013033,0.007674,-0.004487
09363,9.778543,-1.626721,0.823521,-0.014998,0.015495,-0.009316
09364,9.712773,-1.677121,0.768242,-0.025320,0.012704,-0.011573
09365,9.729252,-1.688210,0.782412,-0.030838,0.014801,-0.018638
09366,9.729759,-1.745315,0.773408,-0.037988,0.022006,-0.024272
09367,9.645856,-1.747455,0.739887,-0.035337,0.025363,-0.028895
09368,9.629131,-1.774244,0.735266,-0.027014,0.020428,-0.029021
09369,9.627688,-1.796301,0.760960,-0.018599,0.017226,-0.024734
09370,9.647174,-1.799160,0.734099,-0.006685,0.016467,-0.023260
09371,9.645285,-1.762666,0.770234,0.011252,0.015422,-0.019163
09372,9.681392,-1.677360,0.759940,0.027072,0.006458,-0.021226
09373,9.694759,-1.635833,0.826201,0.024840,0.008016,-0.019761
09374,9.748266,-1.579896,0.811784,0.019449,0.010302,-0.023058
09375,9.800455,-1.607147,0.811276,0.005425,0.007966,-0.024998
09376,9.817164,-1.616836,0.825362,-0.005777,0.007622,-0.028434
09377,9.801066,-1.702247,0.809393,-0.013276,0.006815,-0.032195
09378,9.784568,-1.728662,0.803511,-0.013951,0.006366,-0.030878
09379,9.821760,-1.760243,0.771635,0.001751,0.002062,-0.031007
09380,9.755087,-1.732723,0.742941,0.008573,0.002422,-0.025929
09381,9.719942,-1.712894,0.758012,0.020784,-0.004327,-0.023248
09382,9.704015,-1.698231,0.744507,0.032109,-0.008616,-0.021736
09383,9.633262,-1.661444,0.773850,0.038383,-0.013348,-0.017266
09384,9.650046,-1.671670,0.786386,0.043683,-0.017354,-0.018376
09385,9.664544,-1.647483,0.833445,0.044396,-0.013612,-0.014639
09386,9.682978,-1.633499,0.821782,0.039214,-0.014243,-0.015449
09387,9.683364,-1.631438,0.821332,0.032044,-0.007055,-0.021091
09388,9.723300,-1.656625,0.747549,0.021562,-0.003682,-0.020792
09389,9.707334,-1.641952,0.734146,0.016923,-0.004055,-0.026687
09390,9.690856,-1.668765,0.728162,0.012203,0.003504,-0.025615
09391,9.677192,-1.688523,0.680666,0.013175,-0.002047,-0.025720
09392,9.676458,-1.668927,0.697615,0.015125,-0.008314,-0.020245
09393,9.693254,-1.679069,0.710405,0.021857,-0.009673,-0.019577
09394,9.694803,-1.694364,0.692592,0.033137,-0.012387,-0.017421
09395,9.724532,-1.665005,0.769969,0.033439,-0.018388,-0.016207
09396,9.740622,-1.616520,0.792282,0.036338,-0.014643,-0.013299
09397,9.724111,-1.644294,0.785199,0.030357,-0.015929,-0.016558
09398,9.672017,-1.654744,0.792887,0.024468,-0.015476,-0.015410
09399,9.671930,-1.694828,0.799089,0.018537,-0.013476,-0.013626
09400,9.635036,-1.700683,0.837233,0.010686,-0.015932,-0.009165
09401,9.672119,-1.734209,0.803677,0.002522,-0.017226,-0.011601
09402,9.741399,-1.732908,0.806292,-0.011441,-0.021169,-0.014164
09403,9.794300,-1.719561,0.794546,-0.045789,-0.028867,-0.013054
09404,9.843465,-1.695934,0.839975,-0.089214,-0.040230,-0.021224
09405,9.805615,-1.725907,0.897162,-0.137802,-0.053757,-0.030823
09406,9.694645,-1.828969,1.021093,-0.168090,-0.063300,-0.039494
09407,9.500772,-2.138298,1.102409,-0.156126,-0.073398,-0.045625
09408,9.392957,-2.459034,1.200681,-0.084263,-0.082346,-0.051462
09409,9.354610,-2.778752,1.304557,0.027909,-0.086910,-0.044570
09410,9.368109,-3.026121,1.413305,0.172527,-0.088185,-0.036224
09411,9.292221,-3.107750,1.564960,0.336333,-0.086028,-0.021431
09412,9.272091,-3.184635,1.655341,0.510777,-0.072524,-0.015106
09413,9.219790,-3.251244,1.709791,0.693926,-0.059652,-0.017700
09414,9.237503,-3.289799,1.751879,0.880198,-0.042838,-0.011643
09415,9.241269,-3.407776,1.746884,1.054103,-0.022538,-0.011251
09416,9.328903,-3.517026,1.786288,1.204563,0.001520,0.000213
09417,9.483503,-3.564983,1.846958,1.321938,0.034574,0.022184
09418,9.650577,-3.628426,1.972141,1.400769,0.073753,0.054401
09419,9.788014,-3.680792,1.977539,1.425526,0.121085,0.101086
09420,9.953715,-3.540985,2.021470,1.411808,0.173171,0.155050
09421,9.981359,-3.306047,2.006855,1.332417,0.214968,0.217761
09422,9.994691,-3.187375,1.924218,1.205792,0.253981,0.275156
09423,9.958255,-3.328044,1.796887,1.066672,0.282703,0.334816
09424,9.884006,-3.520230,1.681334,0.964423,0.303176,0.393488
09425,9.733450,-3.882185,1.615910,0.908154,0.313820,0.453417
09426,9.722314,-4.191722,1.482555,0.908261,0.319062,0.519548
09427,9.736459,-4.490898,1.415152,0.966321,0.320276,0.588236
09428,9.700568,-4.588793,1.307522,1.028494,0.315920,0.664374
09429,9.629186,-4.455729,1.237297,1.057514,0.308752,0.749103
09430,9.607236,-4.081488,1.271671,1.022140,0.294026,0.836560
09431,9.545059,-3.994811,1.273168,0.910319,0.276243,0.916687
09432,9.587178,-4.108918,1.342634,0.795022,0.256926,0.999692
09433,9.586704,-4.331490,1.381942,0.703541,0.243858,1.071066
09434,9.590233,-4.610579,1.452951,0.662124,0.237428,1.134977
09435,9.518622,-4.786100,1.581782,0.667168,0.232712,1.197418
09436,9.448164,-4.842374,1.746057,0.692429,0.243113,1.254744
09437,9.391014,-4.847649,1.966151,0.715248,0.256102,1.306480
09438,9.363627,-4.752839,2.009771,0.714701,0.280435,1.351445
09439,9.286847,-4.603548,1.955670,0.692900,0.304444,1.385628
09440,9.132952,-4.570308,1.861111,0.653477,0.325002,1.404581
09441,9.002573,-4.462912,1.827907,0.602365,0.329078,1.413369
09442,8.817039,-4.460817,1.840104,0.542503,0.323322,1.418692
09443,8.685982,-4.444672,2.123099,0.455714,0.315803,1.430727
09444,8.642504,-4.435686,2.396724,0.339697,0.314183,1.442701
09445,8.643532,-4.475735,2.533873,0.213778,0.329576,1.445639
09446,8.704103,-4.538276,2.475379,0.087450,0.338368,1.450061
09447,8.713892,-4.581468,2.432169,-0.030947,0.361146,1.461349
09448,8.762923,-4.472923,2.394673,-0.144922,0.386104,1.471603
09449,8.613972,-4.365839,2.158706,-0.264507,0.424117,1.474003
09450,8.389840,-4.274148,1.725819,-0.365378,0.427439,1.454088
09451,8.165056,-4.262763,1.400785,-0.448287,0.403577,1.425710
09452,8.083313,-4.290428,1.251379,-0.535055,0.372147,1.397020
09453,8.051264,-4.446687,1.207001,-0.622898,0.338534,1.365236
09454,7.961071,-4.749164,1.284121,-0.689632,0.314716,1.341831
09455,7.912219,-5.189024,1.321860,-0.692683,0.295311,1.320990
09456,7.823174,-5.562932,1.457789,-0.605286,0.288587,1.299785
09457,7.743286,-5.923911,1.525438,-0.447812,0.285362,1.272038
09458,7.596650,-6.082661,1.553678,-0.250962,0.290888,1.252532
09459,7.380212,-5.959447,1.477490,-0.056782,0.291133,1.236194
09460,7.190619,-5.726393,1.242502,0.106927,0.268535,1.197461
09461,7.216828,-5.597208,0.983761,0.244179,0.240400,1.157048
09462,7.370851,-5.662627,1.018477,0.377349,0.247371,1.121324
09463,7.575144,-5.626853,1.255645,0.502353,0.253550,1.080805
09464,7.809676,-5.367744,1.802683,0.586440,0.296827,1.054366
09465,7.762601,-4.901528,2.151521,0.562582,0.352125,1.038852
09466,7.657243,-4.581362,2.438038,0.457958,0.386399,0.999044
09467,7.565567,-4.751560,2.484932,0.334880,0.415209,0.949594
09468,7.454350,-5.222778,2.493568,0.280130,0.445259,0.895212
09469,7.505537,-5.657118,2.394935,0.335799,0.445308,0.827735
09470,7.700290,-5.734098,2.525814,0.471877,0.487042,0.757493
09471,7.730799,-5.274033,2.759466,0.566698,0.527876,0.689324
09472,7.671086,-4.598964,2.675431,0.569727,0.567412,0.608865
09473,7.680740,-4.297036,2.466359,0.501507,0.578165,0.518836
09474,7.759836,-4.242995,2.518990,0.403862,0.585721,0.454243
09475,7.784443,-4.112741,2.833166,0.253572,0.576524,0.395497
09476,7.887982,-4.211008,2.910392,0.082303,0.557120,0.364804
09477,7.907466,-4.478222,2.663149,-0.072101,0.532352,0.340235
09478,7.825861,-4.736756,2.165433,-0.165036,0.497118,0.336409
09479,7.677184,-4.884578,1.828428,-0.196137,0.463594,0.334258
09480,7.791497,-4.757700,1.802624,-0.209968,0.419076,0.320807
09481,8.117485,-4.723561,1.925590,-0.212086,0.373500,0.295562
09482,8.406156,-4.724663,2.031615,-0.224003,0.322509,0.264423
09483,8.532057,-4.911311,2.008854,-0.192474,0.289593,0.234825
09484,8.507548,-5.136843,2.154126,-0.119492,0.265163,0.196167
09485,8.546511,-5.272807,2.223517,-0.018108,0.245135,0.170357
09486,8.471928,-5.240372,2.076822,0.106757,0.243511,0.130401
09487,8.323090,-5.098466,2.161112,0.224743,0.216631,0.091846
09488,8.356683,-5.002432,2.254575,0.307896,0.205737,0.052776
09489,8.269066,-4.970425,2.204784,0.364047,0.193979,0.012243
09490,8.109388,-4.978950,1.984898,0.412723,0.146433,-0.020859
09491,7.990503,-5.043260,2.021919,0.456942,0.105301,-0.044130
09492,7.989049,-4.962329,2.288593,0.500384,0.061906,-0.048202
09493,8.177629,-4.949402,2.392007,0.512282,0.059225,-0.055341
09494,8.296455,-5.113715,2.538838,0.528577,0.066203,-0.057907
09495,8.241941,-5.157527,2.663677,0.556656,0.058738,-0.059771
09496,8.222184,-5.003954,2.642884,0.593142,0.025751,-0.086583
09497,8.406854,-5.051694,2.973822,0.597133,0.008548,-0.093164
09498,8.422704,-5.086052,3.200868,0.573970,-0.021103,-0.093345
09499,8.620585,-5.201418,3.383688,0.507596,-0.047283,-0.073140
09500,8.853142,-5.318588,3.794409,0.384318,-0.043955,-0.027658
09501,8.910831,-5.483147,4.185038,0.228877,-0.036182,0.026268
09502,8.921824,-6.028918,4.152370,0.095100,-0.057093,0.068662
09503,8.873337,-6.358017,4.126690,0.049129,-0.082031,0.105423
09504,9.135938,-6.293284,4.641402,0.025918,-0.114008,0.148123
09505,9.549602,-6.396809,5.005745,-0.032064,-0.140290,0.219637
09506,10.031869,-8.126266,3.290419,0.451571,-0.305900,0.191246
09507,10.249960,-9.093629,4.303512,0.932148,-0.204285,0.383594
09508,9.795313,-8.130970,4.742173,1.276291,-0.296808,0.522524
09509,10.202529,-7.528923,5.054364,1.336413,-0.287664,0.711434
09510,10.408281,-7.257689,5.381411,1.260381,-0.301752,0.909880
09511,10.890483,-7.748938,5.737250,1.089563,-0.285357,1.142291
09512,10.925502,-8.799990,5.741102,0.952632,-0.256677,1.412462
09513,10.832733,-9.422585,5.841889,0.873483,-0.224652,1.688690
09514,10.772142,-9.637704,6.066512,0.797517,-0.200732,1.950733
09515,10.796572,-9.943327,6.288053,0.703657,-0.150486,2.188628
09516,10.825351,-10.543749,6.441356,0.638835,-0.092527,2.426527
09517,10.800831,-11.113512,6.469248,0.643535,-0.030801,2.640978
09518,10.667491,-11.457987,6.520733,0.734705,0.024173,2.837045
09519,10.262875,-11.415567,6.536184,0.831661,0.088639,2.998276
09520,9.721815,-11.295157,6.591833,0.888160,0.146423,3.152431
09521,9.148807,-11.201269,6.633619,0.882485,0.195285,3.290988
09522,8.557805,-11.210148,6.586287,0.851702,0.246348,3.406593
09523,8.102069,-11.356826,6.448274,0.807836,0.292896,3.519258
09524,7.788356,-11.334926,6.248791,0.795568,0.333598,3.614390
09525,7.420570,-11.546730,5.881424,0.805511,0.354192,3.705458
09526,6.809158,-11.666185,5.593100,0.879775,0.379399,3.790041
09527,6.101419,-11.425162,5.687627,0.962560,0.400846,3.857880
09528,5.181706,-10.895485,5.833268,1.021671,0.422552,3.916015
09529,4.306654,-10.463473,6.004853,1.031409,0.430788,3.962433
09530,3.678549,-10.398558,5.970928,0.981941,0.434834,4.018262
09531,3.222392,-10.471316,5.850854,0.955893,0.445750,4.075840
09532,2.866526,-10.290465,5.708839,1.041398,0.442427,4.085739
09533,2.511017,-10.040394,5.854772,1.145872,0.468317,4.087391
09534,2.031446,-10.044457,5.830269,1.287947,0.508001,4.097545
09535,1.553970,-9.961534,5.812799,1.439502,0.543230,4.093286
09536,1.193524,-9.903821,5.785499,1.574534,0.572984,4.111069
09537,0.997045,-9.473887,5.701391,1.735355,0.618826,4.106558
09538,0.682964,-8.996874,5.620667,1.890206,0.666383,4.083831
09539,0.364365,-8.461987,5.458254,2.031792,0.712634,4.054620
09540,-0.063146,-7.792250,5.321024,2.141820,0.759711,4.034147
09541,-0.504158,-7.433115,5.191918,2.223967,0.790416,4.004400
09542,-0.924986,-7.457352,4.997721,2.322091,0.806648,3.966862
09543,-1.233473,-7.127620,4.854544,2.473685,0.812697,3.911469
09544,-1.515063,-6.672260,4.970485,2.599692,0.822127,3.854013
09545,-1.676403,-5.923444,5.030190,2.704678,0.828065,3.808864
09546,-1.939813,-4.909277,5.154469,2.749571,0.825297,3.717811
09547,-2.183813,-4.279916,5.208192,2.723627,0.830617,3.633982
09548,-2.599478,-4.005832,5.270043,2.733755,0.827244,3.536005
09549,-2.941354,-3.812920,5.302949,2.800528,0.810525,3.434848
09550,-3.107099,-3.900122,5.421471,2.865119,0.798570,3.360499
09551,-3.214054,-3.723443,5.469944,2.990685,0.809551,3.274951
09552,-3.261463,-3.411802,5.341977,3.094196,0.811078,3.166208
09553,-3.265048,-2.970689,5.172774,3.214683,0.811781,3.071634
09554,-3.385680,-2.243194,5.208709,3.295116,0.822143,2.952742
09555,-3.537115,-1.606258,5.274847,3.323662,0.817612,2.856436
09556,-3.656202,-0.991677,5.234113,3.297409,0.808936,2.759088
09557,-3.744207,-0.548062,5.161736,3.263705,0.797838,2.647989
09558,-3.787636,-0.230242,5.146966,3.179409,0.775060,2.538046
09559,-3.870814,-0.000188,5.029800,3.119301,0.754451,2.434561
09560,-3.935529,0.230754,4.996307,3.050895,0.731188,2.326928
09561,-3.855809,0.719752,4.844913,2.960914,0.706190,2.225633
09562,-3.842088,1.241306,4.794996,2.857358,0.680366,2.108615
09563,-3.834842,1.554184,4.648829,2.714769,0.637905,2.000907
09564,-3.919762,1.824852,4.512738,2.605669,0.601259,1.886767
09565,-3.876170,2.063244,4.403335,2.502013,0.540550,1.768738
09566,-3.835273,2.211748,4.184522,2.407899,0.494009,1.666697
09567,-3.819480,2.323940,4.051551,2.350095,0.444432,1.546651
09568,-3.745730,2.582284,4.068531,2.295155,0.402190,1.433166
09569,-3.721495,2.987307,4.032094,2.224039,0.358157,1.320989
09570,-3.640081,3.354186,4.124747,2.089063,0.314255,1.215178
09571,-3.588059,3.736773,3.917358,1.897274,0.269522,1.128617
09572,-3.668077,3.903516,3.715974,1.684140,0.205104,1.043230
09573,-3.871128,3.953078,3.711319,1.486809,0.152529,0.964176
09574,-4.039249,4.013472,3.840312,1.329164,0.100625,0.866161
09575,-3.938217,4.047124,3.885968,1.195544,0.060842,0.782230
09576,-3.876778,3.937825,3.906737,1.107987,0.020052,0.702905
09577,-3.827307,3.793705,3.980171,1.051618,-0.007263,0.631706
09578,-3.871358,3.767360,3.923091,1.040171,-0.030800,0.566051
09579,-3.946073,3.853390,3.857057,1.037381,-0.059081,0.483086
09580,-4.021975,4.005807,3.768936,1.030633,-0.086745,0.411997
09581,-4.019720,4.143159,3.778454,1.013128,-0.114744,0.328054
09582,-3.960040,4.397977,3.741475,0.960747,-0.146105,0.270193
09583,-3.962480,4.788481,3.785339,0.883030,-0.179347,0.187501
09584,-3.931527,5.380118,3.710548,0.740507,-0.215100,0.102354
09585,-3.849734,5.834035,3.742101,0.534829,-0.244724,0.017318
09586,-3.869310,5.965310,3.924998,0.260463,-0.265736,-0.054772
09587,-3.881311,5.813795,4.169413,-0.025178,-0.285985,-0.113611
09588,-3.824271,5.537898,4.344846,-0.282879,-0.288240,-0.182249
09589,-3.771375,5.139176,4.634824,-0.495007,-0.279373,-0.251113
09590,-3.784126,4.890550,4.808103,-0.662145,-0.265252,-0.297848
09591,-3.862189,4.698240,4.836132,-0.793981,-0.260324,-0.360094
09592,-4.023107,4.650111,4.765189,-0.916268,-0.251380,-0.417380
09593,-4.175730,4.643229,4.565249,-1.052569,-0.250685,-0.480442
09594,-4.216166,4.528218,4.392486,-1.188230,-0.259738,-0.551420
09595,-4.236959,4.454455,4.204103,-1.311681,-0.280445,-0.619231
09596,-4.341901,4.378583,4.324683,-1.454453,-0.301963,-0.696427
09597,-4.345126,4.098594,4.417372,-1.591183,-0.321776,-0.770936
09598,-4.394109,3.808079,4.582734,-1.711132,-0.338498,-0.839537
09599,-4.506877,3.660269,4.715019,-1.834035,-0.355232,-0.911220
09600,-4.509133,3.511049,4.912379,-1.969537,-0.376732,-0.978882
09601,-4.487066,3.355397,4.983077,-2.126830,-0.390478,-1.037615
09602,-4.529628,3.201645,4.976801,-2.295713,-0.406738,-1.098266
09603,-4.646401,2.877028,4.945830,-2.477910,-0.424046,-1.161029
09604,-4.641813,2.663671,4.850076,-2.651067,-0.456775,-1.237084
09605,-4.501964,2.477683,4.728864,-2.829903,-0.471473,-1.313093
09606,-4.397744,1.993218,4.503879,-2.999343,-0.497402,-1.382620
09607,-4.391771,1.251067,4.403948,-3.129892,-0.526356,-1.450120
09608,-4.614001,0.478014,4.780159,-3.184539,-0.546458,-1.516805
09609,-4.851691,-0.236764,5.677976,-3.190549,-0.564753,-1.585225
09610,-4.751501,-0.786350,6.405489,-3.138378,-0.572650,-1.667011
09611,-4.358368,-0.925600,6.787258,-3.070005,-0.532315,-1.741970
09612,-3.971854,-0.766275,6.780780,-3.041408,-0.469651,-1.822200
09613,-3.947858,-0.425056,6.363277,-3.097861,-0.401175,-1.898198
09614,-4.234776,-0.261735,5.927025,-3.254726,-0.376576,-1.972310
09615,-4.447985,-0.674741,5.942676,-3.406837,-0.395826,-2.041976
09616,-4.389172,-1.790099,5.995996,-3.499720,-0.427183,-2.105357
09617,-4.290740,-2.752283,6.329425,-3.494757,-0.454503,-2.162706
09618,-4.255476,-3.309444,6.640008,-3.451774,-0.457714,-2.206955
09619,-4.252300,-3.456491,6.746422,-3.458475,-0.445532,-2.238831
09620,-4.283299,-3.532088,6.475047,-3.483936,-0.422065,-2.279329
09621,-4.283527,-3.595572,5.957929,-3.501901,-0.403405,-2.338588
09622,-4.211183,-3.978330,5.559904,-3.429406,-0.431066,-2.414955
09623,-4.183286,-4.419827,5.222013,-3.309905,-0.486258,-2.489445
09624,-4.051827,-4.862648,5.081558,-3.170723,-0.542459,-2.561485
09625,-4.018958,-5.204190,5.170925,-3.001008,-0.590899,-2.655055
09626,-3.882351,-5.801688,5.362168,-2.861331,-0.643617,-2.729664
09627,-3.336436,-6.301262,5.826109,-2.744640,-0.654632,-2.759497
09628,-2.922396,-6.307410,6.230169,-2.601845,-0.621544,-2.784526
09629,-2.837168,-6.056839,6.094003,-2.451543,-0.632167,-2.830827
09630,-3.003638,-5.898309,5.656131,-2.269217,-0.667223,-2.923529
09631,-2.977600,-6.027010,5.204125,-2.013659,-0.704150,-3.025854
09632,-2.749282,-6.606829,4.938255,-1.683578,-0.764126,-3.137061
09633,-2.210580,-7.643719,5.002558,-1.268550,-0.806986,-3.196943
09634,-1.732653,-7.965039,5.422628,-0.768334,-0.856942,-3.249079
09635,-1.187805,-7.715355,6.179728,-0.399094,-0.916824,-3.255195
09636,-0.795968,-7.067278,6.732894,-0.266076,-0.968646,-3.238904
09637,-0.593116,-6.178095,6.834040,-0.393904,-1.012878,-3.218177
09638,-0.591897,-5.717954,6.467325,-0.657894,-1.061555,-3.257765
09639,-0.597370,-6.298385,6.073046,-0.927071,-1.133813,-3.297668
09640,-0.489336,-7.908000,5.655761,-1.036396,-1.203375,-3.318497
09641,0.027344,-9.838029,5.595400,-0.930888,-1.258300,-3.315129
09642,0.844031,-10.801206,6.117228,-0.736561,-1.303902,-3.275881
09643,1.783928,-10.395696,6.974059,-0.728007,-1.325786,-3.193595
09644,2.737784,-9.551255,7.457482,-0.956386,-1.287221,-3.102783
09645,3.238866,-9.028202,7.208002,-1.261138,-1.216913,-3.046928
09646,3.279752,-9.081082,6.619321,-1.413382,-1.140547,-3.025557
09647,3.187182,-9.629013,5.930659,-1.299227,-1.074529,-3.036513
09648,3.453504,-10.760604,5.788126,-0.969552,-1.019162,-3.029009
09649,4.000310,-11.739630,6.166332,-0.540615,-0.938858,-2.970035
09650,4.534592,-11.586946,6.882701,-0.176031,-0.866975,-2.866074
09651,5.039749,-10.899329,7.453110,-0.139363,-0.808843,-2.732081
09652,5.365367,-9.783807,7.515706,-0.321702,-0.729111,-2.579224
09653,5.635049,-8.744141,7.566021,-0.630003,-0.618631,-2.504306
09654,5.841709,-8.945832,7.309230,-0.900065,-0.496932,-2.464748
09655,5.859380,-9.642049,6.856346,-0.883241,-0.384389,-2.446353
09656,5.888430,-10.539300,6.837375,-0.676746,-0.288231,-2.388571
09657,5.852500,-11.031717,7.104256,-0.384917,-0.188428,-2.296670
09658,6.025192,-10.744822,7.506283,-0.193127,-0.092684,-2.189631
09659,6.301346,-10.005605,7.697064,-0.185706,0.010469,-2.059411
09660,6.375043,-8.930193,7.445135,-0.368446,0.107322,-1.953054
09661,6.534993,-8.138743,7.070386,-0.649935,0.189430,-1.867981
09662,6.885939,-8.218643,6.658848,-0.921399,0.284013,-1.783919
09663,7.191125,-8.868313,6.394003,-1.066085,0.377549,-1.699683
09664,7.553477,-9.277284,6.149123,-1.094850,0.469002,-1.618496
09665,7.651333,-9.067001,5.994753,-1.079956,0.552517,-1.541477
09666,7.563105,-8.594460,5.766253,-1.110940,0.620875,-1.469717
09667,7.323470,-7.978722,5.429643,-1.184243,0.663018,-1.405690
09668,7.307903,-7.556659,5.167453,-1.288683,0.695085,-1.341945
09669,7.388751,-7.567561,4.790346,-1.329573,0.713066,-1.286111
09670,7.443796,-7.850853,4.513793,-1.240187,0.739118,-1.247283
09671,7.407207,-8.277445,4.365206,-1.011199,0.741721,-1.205635
09672,7.388444,-8.117050,4.257749,-0.738597,0.733561,-1.169250
09673,7.434221,-7.407884,4.194912,-0.540688,0.721013,-1.139530
09674,7.398623,-6.744094,4.058361,-0.458938,0.706790,-1.096694
09675,7.314852,-6.300933,3.855205,-0.473983,0.665397,-1.054379
09676,7.373557,-6.127078,3.756083,-0.539246,0.635638,-1.014617
09677,7.526936,-6.002737,3.714269,-0.632922,0.596104,-0.969795
09678,7.699862,-5.883406,3.716588,-0.722277,0.556288,-0.914745
09679,7.812346,-5.903068,3.688717,-0.802326,0.533912,-0.867085
09680,7.825383,-6.106397,3.503848,-0.832444,0.526447,-0.825240
09681,7.753593,-6.353289,3.458162,-0.790070,0.498617,-0.783710
09682,7.743942,-6.349966,3.500880,-0.696935,0.471632,-0.747729
09683,7.790746,-6.314284,3.406154,-0.589179,0.452704,-0.722949
09684,7.829477,-6.423156,3.267124,-0.462551,0.431876,-0.687222
09685,7.827875,-6.560700,3.186399,-0.307864,0.430022,-0.654304
09686,7.787444,-6.496502,3.091415,-0.153643,0.404657,-0.621089
09687,7.748779,-6.010146,3.148052,-0.069201,0.373682,-0.585309
09688,7.714298,-5.434914,3.308930,-0.111570,0.334283,-0.539315
09689,7.760547,-5.230039,3.295655,-0.250057,0.300889,-0.483967
09690,7.687363,-5.410790,3.269130,-0.371149,0.283067,-0.434826
09691,7.502783,-5.720698,3.225467,-0.425730,0.258573,-0.389291
09692,7.377016,-5.812968,3.197835,-0.429888,0.230681,-0.345033
09693,7.407882,-5.728220,3.197399,-0.424643,0.209437,-0.305352
09694,7.468764,-5.775539,3.142699,-0.410377,0.193758,-0.278356
09695,7.682546,-5.861612,3.226389,-0.376004,0.177773,-0.260456
09696,7.806197,-5.885972,3.256060,-0.312676,0.167696,-0.244751
09697,7.882005,-5.889672,3.226139,-0.246016,0.156264,-0.228822
09698,7.842397,-5.824755,3.212415,-0.163736,0.147011,-0.230815
09699,7.790566,-5.844292,3.213246,-0.087141,0.130542,-0.220062
09700,7.772898,-5.846549,3.157962,-0.023254,0.101894,-0.221646
09701,7.822606,-5.802644,3.257878,0.040484,0.095991,-0.215239
09702,7.713918,-5.795528,3.381634,0.087066,0.081507,-0.202515
09703,7.661122,-5.753574,3.569572,0.125563,0.077054,-0.184840
09704,7.826543,-5.717258,3.781963,0.133093,0.080241,-0.161410
09705,8.057218,-5.516739,3.955832,0.108732,0.103912,-0.141403
09706,8.230323,-5.320751,4.056721,0.052459,0.140276,-0.125652
09707,8.290166,-5.386242,4.127069,-0.014704,0.196368,-0.115808
09708,8.246742,-5.548744,4.114523,-0.044599,0.238865,-0.109609
09709,8.230998,-5.751181,3.987505,-0.041747,0.285693,-0.114308
09710,8.063119,-5.506677,3.812699,-0.032461,0.294081,-0.126082
09711,8.112746,-4.787226,3.792819,-0.067238,0.278490,-0.147119
09712,8.143232,-3.840679,4.339514,-0.474572,0.294204,-0.069105
09713,7.685140,-3.303788,4.142721,-0.947841,0.257173,-0.086024
09714,7.880488,-4.281261,3.859059,-1.321806,0.225535,-0.071400
09715,7.718242,-5.546634,3.605887,-1.375488,0.193964,-0.062432
09716,7.802774,-6.482896,3.431316,-1.168662,0.156186,-0.048615
09717,7.850777,-6.594867,3.550591,-0.799625,0.146275,-0.075237
09718,8.034525,-5.970503,3.412083,-0.508892,0.112046,-0.081098
09719,8.172542,-5.088740,3.137773,-0.418743,0.085439,-0.065769
09720,8.322724,-4.654320,3.077249,-0.519530,0.061252,-0.048020
09721,8.654242,-4.529086,3.272870,-0.708116,0.052509,-0.016928
09722,8.951367,-4.367815,3.351340,-0.903965,0.050213,0.010484
09723,9.247692,-4.083450,3.304542,-1.081337,0.044054,0.031885
09724,9.412091,-3.855654,2.978947,-1.249357,0.042321,0.041991
09725,9.497293,-3.794294,2.487466,-1.381825,0.028474,0.059196
09726,9.462328,-3.920779,1.937797,-1.453626,-0.002374,0.076677
09727,9.310875,-4.078596,1.504234,-1.455665,-0.057074,0.094985
09728,9.114791,-4.115950,1.195859,-1.379244,-0.125748,0.099280
09729,8.990452,-4.132077,1.004542,-1.244759,-0.216670,0.094115
09730,8.827944,-4.261902,0.950507,-1.037998,-0.315547,0.075812
09731,8.716265,-4.467093,0.978055,-0.762199,-0.409197,0.042175
09732,8.704901,-4.480072,1.011071,-0.430455,-0.500938,-0.013039
09733,8.655092,-4.385308,0.986012,-0.079878,-0.583751,-0.076504
09734,8.662455,-4.175621,1.013648,0.244175,-0.661617,-0.140540
09735,8.705219,-3.964472,0.996025,0.501958,-0.730993,-0.197692
09736,8.758237,-3.690686,0.857070,0.671423,-0.794717,-0.257326
09737,8.752747,-3.563406,0.735190,0.766117,-0.860966,-0.317146
09738,8.892507,-3.367865,0.744322,0.742770,-0.931618,-0.365546
09739,8.949814,-3.125723,0.905397,0.534615,-0.979440,-0.387492
09740,8.808156,-2.890269,1.318470,0.171125,-1.012962,-0.426247
09741,8.600491,-3.069464,1.867856,-0.266450,-1.031993,-0.480229
09742,8.534058,-3.807532,2.594205,-0.666404,-0.961494,-0.559423
09743,8.553195,-4.917813,3.207422,-0.903596,-0.828952,-0.672445
09744,8.701975,-5.847723,3.170170,-0.900328,-0.668092,-0.806680
09745,8.724771,-6.197279,2.909515,-0.728196,-0.470817,-0.949143
09746,8.618567,-5.795432,2.733567,-0.581247,-0.284054,-1.059463
09747,8.464119,-5.117357,2.493397,-0.600818,-0.128077,-1.139132
09748,8.346046,-4.802236,2.049582,-0.780746,-0.012108,-1.202350
09749,8.128045,-5.060324,1.623260,-1.006849,0.056457,-1.246880
09750,7.872643,-5.473480,1.458850,-1.186293,0.094161,-1.281327
09751,7.662978,-5.689017,1.413927,-1.324163,0.093457,-1.298225
09752,7.571362,-5.723629,1.435480,-1.444730,0.074121,-1.298894
09753,7.579837,-5.701017,1.488496,-1.554950,0.045893,-1.291193
09754,7.679001,-5.778685,1.418120,-1.622104,0.003682,-1.291619
09755,7.800857,-6.008375,1.282239,-1.615442,-0.022512,-1.289765
09756,7.822849,-6.196272,1.208866,-1.537659,-0.056057,-1.313664
09757,7.837247,-6.382236,1.101658,-1.405398,-0.086415,-1.334812
09758,7.896208,-6.521558,0.974941,-1.249742,-0.112400,-1.354144
09759,7.974183,-6.527841,0.822484,-1.056901,-0.143177,-1.374563
09760,8.189323,-6.554895,0.710149,-0.845443,-0.172458,-1.406607
09761,8.420036,-6.438259,0.752349,-0.631068,-0.190836,-1.444357
09762,8.651191,-6.218686,0.745675,-0.435196,-0.199684,-1.484616
09763,8.741408,-5.941589,0.838517,-0.278082,-0.185998,-1.535155
09764,8.890769,-5.582967,0.887799,-0.158390,-0.164875,-1.586755
09765,8.967311,-5.197972,0.939801,-0.090592,-0.123317,-1.643826
09766,9.065377,-4.790560,1.118667,-0.073922,-0.074570,-1.708272
09767,9.184461,-4.371618,0.976413,-0.127265,-0.023588,-1.789409
09768,9.157084,-4.219027,0.926244,-0.240952,0.031223,-1.851270
09769,8.915191,-4.192555,0.817824,-0.402671,0.058365,-1.886153
09770,8.833862,-4.455245,0.764992,-0.585219,0.072739,-1.909660
09771,8.862351,-4.823855,0.625231,-0.726289,0.099062,-1.915727
09772,8.996086,-5.243678,0.592118,-0.779694,0.116810,-1.902709
09773,9.038877,-5.491804,0.629284,-0.741337,0.140614,-1.871058
09774,9.046367,-5.255675,0.737822,-0.706993,0.164129,-1.815989
09775,9.015082,-4.836651,0.769998,-0.704748,0.176781,-1.752038
09776,9.093404,-4.522459,0.698373,-0.758491,0.186594,-1.683460
09777,9.184862,-4.382620,0.651683,-0.850387,0.188259,-1.603571
09778,9.348324,-4.374292,0.653704,-0.955117,0.182994,-1.510577
09779,9.541002,-4.515750,0.647593,-1.074851,0.175346,-1.394100
09780,9.755194,-4.684627,0.586093,-1.165047,0.176859,-1.253424
09781,9.898287,-4.804526,0.525265,-1.211630,0.173401,-1.107248
09782,9.967499,-4.835984,0.465705,-1.211362,0.175264,-0.969818
09783,9.951631,-4.786064,0.321731,-1.161263,0.166907,-0.836535
09784,9.768225,-4.468971,0.159674,-1.114142,0.139485,-0.705144
09785,9.601608,-4.006625,0.038762,-1.112538,0.097201,-0.584081
09786,9.496226,-3.760272,0.144452,-1.174672,0.067312,-0.454198
09787,9.462931,-3.921633,0.301346,-1.254056,0.047386,-0.328561
09788,9.434642,-4.168949,0.561622,-1.272432,0.049088,-0.224864
09789,9.399619,-4.150310,0.740100,-1.244968,0.047995,-0.118154
09790,9.373044,-3.704328,0.803439,-1.246909,0.038984,-0.040723
09791,9.408925,-3.316890,0.771354,-1.295938,0.045534,0.020103
09792,9.384293,-3.219270,0.745878,-1.349249,0.051653,0.059929
09793,9.320939,-3.377261,0.670866,-1.347135,0.057244,0.083273
09794,9.348447,-3.542322,0.552551,-1.278278,0.061586,0.096576
09795,9.469439,-3.594079,0.495339,-1.163936,0.067761,0.106943
09796,9.514248,-3.581770,0.481312,-1.029782,0.078249,0.121255
09797,9.547399,-3.450783,0.546417,-0.893241,0.081349,0.126036
09798,9.519871,-3.284849,0.535788,-0.776033,0.089632,0.130583
09799,9.522480,-2.992368,0.551614,-0.670191,0.082341,0.137493
09800,9.549182,-2.852328,0.544986,-0.581459,0.067661,0.145242
09801,9.576243,-2.784871,0.551330,-0.482921,0.054486,0.146646
09802,9.689995,-2.700440,0.562647,-0.359122,0.040824,0.145849
09803,9.744093,-2.525718,0.634387,-0.220362,0.033701,0.138499
09804,9.831783,-2.379795,0.729221,-0.105888,0.030247,0.117829
09805,9.869471,-2.217435,0.812561,-0.014083,0.024334,0.114493
09806,9.892955,-2.007697,0.872038,0.041202,0.022309,0.102058
09807,9.759291,-1.802364,0.942835,0.048874,0.024898,0.095514
09808,9.750572,-1.632844,0.992540,0.038983,0.027225,0.092249
09809,9.686333,-1.590939,0.935168,0.018213,0.034551,0.084957
09810,9.716236,-1.587883,0.964626,0.006761,0.037056,0.085019
09811,9.757692,-1.556051,0.898558,0.011955,0.041054,0.080180
09812,9.780316,-1.612091,0.848237,0.011004,0.052077,0.078894
09813,9.752468,-1.652343,0.784398,0.024748,0.049043,0.069682
09814,9.724701,-1.692106,0.720734,0.036549,0.051530,0.071071
09815,9.746579,-1.705395,0.677489,0.043885,0.049672,0.071465
09816,9.681119,-1.692167,0.637621,0.055716,0.051150,0.068243
09817,9.691718,-1.669248,0.548009,0.077721,0.054132,0.053038
09818,9.698825,-1.706153,0.489894,0.104950,0.051316,0.032675
09819,9.721004,-1.672592,0.454307,0.144533,0.053478,0.009642
09820,9.740893,-1.625501,0.441093,0.166171,0.059220,-0.015859
09821,9.689957,-1.564662,0.441175,0.177745,0.060419,-0.043221
09822,9.699980,-1.519908,0.375129,0.172123,0.057650,-0.061643
09823,9.731921,-1.615955,0.413228,0.144279,0.054207,-0.071500
09824,9.744676,-1.809788,0.333550,0.130140,0.050314,-0.072945
09825,9.808414,-1.894289,0.397141,0.130370,0.047665,-0.062577
09826,9.811260,-1.857468,0.388105,0.130835,0.042110,-0.053954
09827,9.818668,-1.791525,0.474310,0.123303,0.037362,-0.040798
09828,9.780198,-1.692098,0.507723,0.103494,0.035672,-0.037675
09829,9.831060,-1.702971,0.527067,0.088384,0.025669,-0.035567
09830,9.774423,-1.733948,0.569634,0.066847,0.026016,-0.032008
09831,9.798728,-1.852702,0.529656,0.064608,0.015435,-0.023962
09832,9.789384,-1.888871,0.607255,0.068761,0.014669,-0.008524
09833,9.757937,-1.900336,0.583959,0.071626,0.010798,0.012239
09834,9.682306,-1.952213,0.630302,0.084288,-0.005056,0.036146
09835,9.567317,-2.037734,0.575511,0.115981,-0.019498,0.070294
09836,9.486767,-2.041325,0.646435,0.159653,-0.045063,0.099335
09837,9.461266,-1.928510,0.687133,0.194936,-0.067090,0.122579
09838,9.519625,-1.790001,0.750438,0.222458,-0.083510,0.139657
09839,9.649243,-1.777484,0.806488,0.257954,-0.093762,0.134893
09840,9.791298,-1.682118,0.904144,0.315374,-0.084819,0.101566
09841,9.885402,-1.550927,0.839193,0.372841,-0.058889,0.063118
09842,9.880702,-1.469482,0.737736,0.411978,-0.034917,0.008607
09843,9.799263,-1.305606,0.697411,0.413508,-0.006432,-0.043748
09844,9.755750,-1.191844,0.637224,0.369780,0.016823,-0.082120
09845,9.720512,-1.112437,0.514235,0.286878,0.030255,-0.104446
09846,9.667503,-1.204360,0.403100,0.172442,0.048264,-0.108036
09847,9.647017,-1.327286,0.312973,0.065058,0.041341,-0.095992
09848,9.598835,-1.519120,0.170879,-0.010402,0.031572,-0.074050
09849,9.629772,-1.702975,0.088265,-0.050933,0.018858,-0.052552
09850,9.736998,-1.751821,0.077038,-0.047479,0.006901,-0.040512
09851,9.769081,-1.735698,0.101655,-0.026393,-0.009111,-0.034122
09852,9.831614,-1.665204,0.154806,-0.003819,-0.015273,-0.034725
09853,9.818109,-1.601156,0.257698,0.005753,-0.025658,-0.030521
09854,9.826467,-1.576077,0.329025,0.016733,-0.025845,-0.037051
09855,9.760708,-1.527618,0.433248,0.006332,-0.032209,-0.026393
09856,9.742534,-1.482171,0.573120,-0.016682,-0.029944,-0.022480
09857,9.734591,-1.443902,0.632647,-0.046538,-0.030666,-0.017831
09858,9.774294,-1.408303,0.728083,-0.074642,-0.024807,-0.018100
09859,9.732276,-1.485373,0.792352,-0.103988,-0.023090,-0.017571
09860,9.725344,-1.490225,0.847619,-0.118422,-0.020997,-0.019362
09861,9.748585,-1.570580,0.808769,-0.127921,-0.011265,-0.016030
