// Start Time: Unknown
// Update Rate: 100.0Hz
// Filter Profile: human (46.1)
// Firmware Version: 4.3.5
PacketCounter,Acc_X,Acc_Y,Acc_Z,Gyr_X,Gyr_Y,Gyr_Z
31220,9.700671,-1.557671,0.386498,0.022821,-0.000550,-0.024190
31221,9.647942,-1.542833,0.384838,0.019414,-0.000685,-0.018919
31222,9.665717,-1.519593,0.352860,0.016362,-0.001379,-0.021894
31223,9.677124,-1.563353,0.365720,0.018456,-0.005308,-0.018291
31224,9.671111,-1.545402,0.335807,0.016652,-0.000685,-0.019180
31225,9.700721,-1.561242,0.340304,0.020642,0.000841,-0.019025
31226,9.654286,-1.562583,0.368734,0.025565,0.001310,-0.022795
31227,9.649078,-1.537416,0.362676,0.021571,-0.000223,-0.022943
31228,9.644580,-1.505805,0.379531,0.016271,-0.007695,-0.015330
31229,9.679754,-1.544858,0.389417,0.004301,-0.012285,-0.015784
31230,9.703782,-1.538224,0.386286,-0.004237,-0.005400,-0.014900
31231,9.704819,-1.529908,0.408802,-0.014978,-0.010348,-0.016571
31232,9.734476,-1.545894,0.411921,-0.019835,-0.006423,-0.020438
31233,9.767247,-1.534288,0.508866,-0.020134,-0.007130,-0.023140
31234,9.817683,-1.583717,0.648983,-0.009928,-0.001081,-0.035616
31235,9.894920,-1.516251,0.806439,0.005201,0.007334,-0.050760
31236,9.955950,-1.531319,0.864385,0.026047,0.042167,-0.080562
31237,9.900121,-1.543200,0.751735,0.064893,0.073495,-0.109398
31238,9.709338,-1.671115,0.527534,0.125221,0.077609,-0.123464
31239,9.633650,-1.736413,0.332806,0.185612,0.059761,-0.117304
31240,9.531042,-1.675610,0.150570,0.236063,0.027090,-0.101355
31241,9.416701,-1.572080,-0.048230,0.243024,-0.012273,-0.078928
31242,9.403166,-1.376831,-0.282883,0.196881,-0.050409,-0.057960
31243,9.245064,-1.230961,-0.555615,0.104988,-0.086687,-0.024009
31244,9.117956,-1.077995,-0.735448,-0.031767,-0.126550,0.026715
31245,9.045894,-0.832496,-0.644724,-0.222327,-0.168736,0.069775
31246,9.267085,-0.449097,-0.329258,-0.462512,-0.204576,0.104868
31247,9.762694,-0.076637,0.183108,-0.720850,-0.179772,0.107953
31248,10.060934,0.145749,0.650721,-0.943171,-0.093504,0.071052
31249,10.113374,0.126049,1.154569,-1.108868,0.001940,-0.002571
31250,10.220701,-0.322830,1.774484,-1.161294,0.062091,-0.088359
31251,10.549090,-0.885377,2.888037,-1.101077,0.120885,-0.195997
31252,11.447945,-1.333063,3.675195,-0.977840,0.216079,-0.343938
31253,11.858931,-1.935047,3.331355,-0.770515,0.475873,-0.525649
31254,10.908188,-2.710214,2.599784,-0.345243,0.800666,-0.707986
31255,9.678520,-3.317446,1.755359,0.208605,0.896958,-0.760751
31256,9.242945,-4.002643,0.847794,0.717729,0.773064,-0.651329
31257,8.990266,-4.549807,0.011801,1.182678,0.584516,-0.523126
31258,8.401674,-4.002701,-0.721515,1.555276,0.386150,-0.456422
31259,8.157088,-2.939542,-1.649920,1.752192,0.140479,-0.397228
31260,8.394997,-2.038721,-2.539277,1.720774,-0.135578,-0.282033
31261,8.589126,-1.197746,-2.840508,1.438518,-0.398438,-0.088723
31262,8.851376,-0.167093,-2.719466,0.897429,-0.654741,0.108287
31263,9.477071,0.608897,-2.450613,0.158129,-0.776356,0.289472
31264,10.025965,1.259318,-1.840864,-0.663130,-0.683867,0.412151
31265,9.990969,1.635235,-0.805935,-1.535858,-0.453587,0.457580
31266,9.677171,1.509202,1.230865,-2.359682,-0.237418,0.454037
31267,10.830017,0.743945,3.050650,-3.003266,-0.039368,0.485085
31268,12.551540,0.125122,4.242095,-3.390695,0.441732,0.522224
31269,12.785254,-0.352546,5.134346,-3.615976,1.133775,0.392003
31270,12.020612,-1.794363,4.810130,-3.542925,1.639330,0.155866
31271,10.431064,-4.564100,3.220054,-2.891379,1.858256,0.073972
31272,8.458723,-7.095002,1.893271,-1.611766,1.705055,0.149012
31273,7.099497,-8.635746,0.472822,-0.115249,1.232422,0.252693
31274,6.438421,-9.238930,-1.554901,1.321445,0.613079,0.337532
31275,6.086725,-8.788483,-3.549927,2.601389,-0.076462,0.399695
31276,6.202451,-7.668418,-5.104512,3.606490,-0.820804,0.446841
31277,7.166404,-5.887950,-5.940547,4.245094,-1.545105,0.514319
31278,8.956306,-3.205267,-5.589962,4.401375,-2.074762,0.609699
31279,10.841103,0.384958,-3.833962,3.977019,-2.122679,0.719043
31280,11.797002,3.665323,-1.477864,2.974372,-1.706207,0.787084
31281,11.720766,6.038633,0.420897,1.551832,-1.133617,0.833357
31282,11.026136,7.220682,2.246103,-0.116148,-0.618517,0.865995
31283,11.343788,7.069333,4.351104,-1.771511,-0.256635,0.890406
31284,13.545345,6.013302,5.871067,-3.250825,0.315169,0.873626
31285,14.943605,4.611761,6.190180,-4.535141,1.276492,0.677043
31286,13.784676,2.109351,3.900091,-5.461853,2.167505,0.338049
31287,10.507948,-2.282233,0.774284,-5.484092,2.566659,0.056143
31288,7.754150,-7.347927,-0.864361,-4.429885,2.339530,0.021479
31289,5.945046,-11.889456,-2.141568,-2.632872,1.697312,0.219099
31290,4.477865,-14.349765,-3.173224,-0.509089,0.790469,0.405063
31291,3.741336,-14.157424,-4.358571,1.548865,-0.283136,0.512769
31292,4.519814,-12.290942,-5.543038,3.301538,-1.320502,0.603451
31293,6.795449,-9.608765,-5.797263,4.621301,-2.141944,0.712679
31294,9.917842,-6.107479,-5.240364,5.411397,-2.533196,0.846142
31295,12.017602,-1.860267,-3.734603,5.527083,-2.394919,0.947276
31296,12.310960,2.421750,-1.562188,4.867949,-1.944602,0.942999
31297,11.886817,5.886114,1.048123,3.572214,-1.471576,0.885247
31298,11.677881,8.021627,4.864844,1.792890,-1.013722,0.799938
31299,13.633758,8.460256,7.754683,-0.211629,-0.335463,0.762821
31300,15.131687,7.921982,8.076909,-2.152729,0.826370,0.612094
31301,13.654285,5.986910,5.164884,-3.795142,1.896432,0.356564
31302,10.499408,2.059643,1.376518,-4.690258,2.396786,0.167040
31303,8.459683,-2.809073,-0.634597,-4.666563,2.290897,0.197954
31304,7.982325,-8.056167,-1.858313,-3.928160,1.865234,0.406873
31305,7.137956,-12.476433,-3.508887,-2.578010,1.326040,0.550654
31306,5.390730,-14.603425,-5.004515,-0.797413,0.615396,0.537055
31307,3.898563,-14.247149,-6.166553,1.090856,-0.323160,0.495566
31308,4.080395,-12.229414,-6.373346,2.729184,-1.335382,0.522243
31309,6.298266,-9.363601,-5.391682,3.889757,-2.146595,0.656279
31310,9.904140,-5.980998,-3.919556,4.420164,-2.477910,0.889597
31311,12.637096,-2.347291,-2.195115,4.354704,-2.221263,1.085045
31312,12.608536,1.431875,-0.094428,3.767212,-1.691391,1.095535
31313,11.490681,4.675214,3.719164,2.759067,-1.279546,0.914975
31314,12.883970,6.332271,7.693273,1.218394,-0.813268,0.739027
31315,15.395880,6.491343,8.976510,-0.584562,0.205795,0.590881
31316,14.407682,5.019560,6.501014,-2.171253,1.381575,0.381153
31317,10.841888,1.800676,2.544679,-3.023236,2.023362,0.201958
31318,8.042875,-2.173397,-0.101101,-3.087008,2.017387,0.250216
31319,6.786241,-6.740657,-1.984559,-2.566643,1.612836,0.479717
31320,5.735308,-10.877698,-4.010173,-1.586983,1.004296,0.652768
31321,4.355276,-12.863456,-6.025882,-0.319959,0.189289,0.681858
31322,3.287143,-13.366966,-7.686689,1.002735,-0.792309,0.643559
31323,3.770580,-11.904331,-7.764685,2.241879,-1.754545,0.609899
31324,6.238230,-8.883245,-6.285765,3.080469,-2.411015,0.660958
31325,9.578687,-5.313237,-4.331220,3.367739,-2.542171,0.843475
31326,12.123736,-1.377080,-2.219085,3.063075,-2.211286,1.056709
31327,12.367849,2.320820,1.241407,2.204415,-1.675646,1.162409
31328,12.066714,4.947176,6.479838,0.804020,-1.178368,1.075908
31329,14.809587,6.192670,10.281913,-1.030857,-0.402889,0.915468
31330,16.271080,6.149510,9.920022,-2.904222,0.899547,0.623122
31331,13.551168,3.512525,5.535580,-4.255111,1.928204,0.270789
31332,9.929140,-1.008107,1.314694,-4.638046,2.346206,0.131441
31333,7.315672,-6.189996,-0.844849,-4.123442,2.203886,0.288398
31334,5.796733,-11.680445,-2.754324,-2.982078,1.739898,0.532905
31335,4.099153,-16.078010,-4.843773,-1.231787,1.065632,0.637376
31336,2.064618,-17.936117,-6.936089,0.889993,0.123447,0.600478
31337,0.919938,-17.099045,-8.385434,2.971742,-1.050427,0.550764
31338,1.746822,-14.109048,-8.554362,4.614658,-2.212809,0.546676
31339,4.899452,-10.153724,-7.098596,5.548587,-3.007437,0.654399
31340,9.827958,-5.578789,-4.622916,5.755812,-3.170748,0.883001
31341,14.749060,-0.027073,-1.732770,5.179426,-2.580017,1.110732
31342,15.265723,5.122067,1.826720,3.882091,-1.534808,1.084550
31343,12.525044,8.323573,6.536871,1.987741,-0.746396,0.777001
31344,13.001082,8.705995,9.484212,-0.301942,-0.114218,0.462742
31345,14.260460,7.279294,8.590680,-2.528919,0.951218,0.215331
31346,12.588771,4.010908,4.517649,-4.268566,1.920804,0.079384
31347,9.587566,-0.643299,0.027271,-5.069196,2.328965,0.137590
31348,7.126091,-5.913888,-2.525789,-4.820352,2.257933,0.353825
31349,5.304368,-11.659515,-4.483357,-3.823259,1.853759,0.594418
31350,3.292920,-16.231244,-6.242446,-2.182092,1.154336,0.686892
31351,1.234058,-18.462651,-7.515313,-0.133995,0.105048,0.622749
31352,0.601853,-17.396921,-7.767908,1.837833,-1.183071,0.527845
31353,2.546067,-13.886771,-6.663875,3.278914,-2.298846,0.516297
31354,6.603887,-9.596765,-4.422730,4.072058,-2.809564,0.621637
31355,11.600802,-4.554981,-1.544931,4.182919,-2.570025,0.809858
31356,14.944064,0.948526,2.162248,3.572915,-1.719866,0.898323
31357,14.381657,4.722641,5.918411,2.227150,-0.712935,0.725974
31358,13.021723,5.361879,7.419093,0.422217,0.130408,0.439492
31359,11.389477,3.685621,5.614204,-1.162274,0.819235,0.161789
31360,9.644978,0.593130,2.601445,-2.275598,1.256013,0.072296
31361,7.979543,-3.462502,-0.386200,-2.688167,1.416067,0.214752
31362,6.535705,-7.350269,-2.307014,-2.444126,1.312265,0.446483
31363,5.361809,-10.782581,-3.643249,-1.856378,0.980057,0.607857
31364,4.300133,-13.383266,-4.671316,-1.026390,0.441294,0.650262
31365,3.707245,-13.942445,-4.936349,-0.031049,-0.243238,0.577708
31366,4.515815,-12.332991,-4.000068,0.946204,-0.849640,0.450909
31367,6.355892,-9.477820,-2.140718,1.676979,-1.140429,0.411578
31368,8.583386,-6.478397,-0.080607,2.006041,-1.113839,0.482973
31369,10.364313,-3.661472,1.888395,1.922751,-0.860047,0.566018
31370,11.243213,-1.663584,3.069437,1.469832,-0.504809,0.570602
31371,10.951837,-1.037077,3.201421,0.879058,-0.137018,0.457802
31372,10.324482,-1.474035,2.810187,0.297072,0.163341,0.310413
31373,9.730609,-2.914120,1.663974,-0.191881,0.402305,0.267851
31374,8.810082,-4.506389,0.354814,-0.424518,0.538643,0.280091
31375,7.596576,-6.016537,-0.714221,-0.408315,0.508322,0.278421
31376,6.787702,-7.450942,-1.603592,-0.190210,0.332544,0.256895
31377,6.321440,-8.405473,-1.856112,0.177264,0.113822,0.196839
31378,6.176770,-8.597465,-1.742482,0.601659,-0.098998,0.123256
31379,6.558086,-8.216584,-1.364496,1.039647,-0.292313,0.090999
31380,7.215144,-7.086629,-0.896265,1.410036,-0.428719,0.103063
31381,8.028668,-5.552175,-0.310470,1.584134,-0.501313,0.125683
31382,8.772012,-3.878318,0.247983,1.490686,-0.501829,0.100746
31383,9.329112,-2.340288,0.263177,1.119643,-0.448144,0.047442
31384,9.552772,-1.156791,0.040944,0.527384,-0.369701,-0.027231
31385,9.509987,-0.449548,-0.158593,-0.193258,-0.302437,-0.108892
31386,9.447425,-0.336356,-0.605572,-0.940446,-0.229076,-0.159666
31387,9.265722,-0.599570,-1.140089,-1.684133,-0.183100,-0.153548
31388,9.204446,-1.291959,-1.396201,-2.433144,-0.133791,-0.106290
31389,9.238652,-2.463182,-1.223868,-3.047340,-0.056458,-0.119251
31390,9.542771,-3.835083,-0.191921,-3.416959,0.057252,-0.246969
31391,10.400746,-5.023533,1.353149,-3.584617,0.303974,-0.428926
31392,10.937688,-5.830988,2.135112,-3.513565,0.700864,-0.642617
31393,10.553675,-6.856067,2.184838,-3.143230,1.053141,-0.841128
31394,9.736802,-8.352697,2.055899,-2.427499,1.232754,-0.983999
31395,8.970206,-10.143708,2.025282,-1.449315,1.225464,-1.041124
31396,8.447387,-11.719833,1.492641,-0.315187,1.065691,-1.047261
31397,7.828908,-12.787397,-0.534568,1.032972,0.812991,-1.056680
31398,6.500051,-12.700870,-2.949633,2.601265,0.453768,-1.097455
31399,5.032986,-11.506331,-4.349602,4.011041,-0.102793,-1.116022
31400,4.476195,-9.778160,-4.762706,4.892510,-0.806746,-1.064433
31401,5.396225,-7.487772,-4.899394,5.091918,-1.427805,-0.937448
31402,7.689426,-4.171286,-4.326655,4.723438,-1.711998,-0.797567
31403,10.695584,-0.438592,-2.542216,3.841915,-1.561704,-0.672980
31404,12.391893,2.488185,-0.385014,2.525984,-1.041841,-0.621095
31405,11.934410,4.303594,1.764534,0.939705,-0.458834,-0.717826
31406,11.173948,4.756776,4.130097,-0.760820,-0.015688,-0.951633
31407,12.081441,4.026170,6.052275,-2.385600,0.494008,-1.182502
31408,13.542068,2.552856,6.176441,-3.745321,1.224194,-1.330443
31409,13.760270,0.071246,4.459817,-4.637852,1.963633,-1.364218
31410,12.781846,-3.700903,2.022976,-4.870044,2.429059,-1.271042
31411,10.817219,-8.784080,-0.986799,-4.301357,2.610287,-1.065314
31412,7.523728,-13.617448,-3.262460,-2.715477,2.364850,-0.898616
31413,4.696506,-16.360457,-4.202066,-0.612498,1.613480,-0.837653
31414,3.159641,-16.615285,-4.983383,1.453226,0.583395,-0.839911
31415,2.961470,-14.333281,-5.984900,3.275251,-0.437229,-0.865538
31416,4.181397,-10.906189,-6.253477,4.642150,-1.250668,-0.862433
31417,6.455085,-7.349079,-5.515576,5.450179,-1.701415,-0.840437
31418,9.329883,-3.571429,-3.710796,5.641916,-1.827578,-0.791356
31419,12.213820,0.599818,-0.953109,5.077996,-1.649580,-0.731095
31420,13.599863,4.299367,2.076746,3.875826,-1.195522,-0.759031
31421,13.334722,6.647987,4.882731,2.348889,-0.650269,-0.953674
31422,13.549553,7.368995,6.717363,0.648818,-0.055723,-1.172839
31423,13.689139,6.340206,6.472145,-1.004561,0.675427,-1.302160
31424,12.783972,3.924479,4.452291,-2.267076,1.333013,-1.301291
31425,11.446748,0.641185,2.161678,-3.016742,1.785402,-1.211335
31426,9.951361,-3.025556,-0.228143,-3.277113,1.967441,-1.046955
31427,8.305854,-6.309826,-2.093792,-3.042685,1.859503,-0.874363
31428,6.952724,-8.958591,-3.026363,-2.415739,1.488964,-0.714254
31429,6.114222,-10.637437,-4.082693,-1.453407,0.958394,-0.600789
31430,5.864660,-10.920051,-4.651376,-0.228905,0.361158,-0.551057
31431,6.004139,-9.864636,-4.498756,0.952904,-0.197471,-0.565872
31432,6.504846,-7.914873,-3.693861,1.836643,-0.711953,-0.569612
31433,7.683458,-5.388919,-2.284150,2.315759,-1.158385,-0.522626
31434,9.384402,-2.461206,0.238453,2.297310,-1.423636,-0.449647
31435,11.546849,0.494239,3.362374,1.776439,-1.359897,-0.359619
31436,13.489334,3.041806,5.981844,0.856599,-0.817770,-0.316890
31437,14.203663,4.245580,6.935399,-0.233883,-0.016147,-0.356600
31438,13.583130,3.529393,6.558481,-1.200400,0.774021,-0.400006
31439,11.839947,1.402315,5.135868,-1.927562,1.346615,-0.393485
31440,10.232777,-1.336946,3.521786,-2.306885,1.634688,-0.332732
31441,9.131446,-4.240928,1.887475,-2.360099,1.712645,-0.263649
31442,8.191060,-6.772094,0.406649,-2.031035,1.665246,-0.203591
31443,6.996406,-8.649053,-1.118114,-1.348447,1.473398,-0.161386
31444,5.755185,-9.512441,-2.118455,-0.402504,1.090808,-0.152423
31445,4.987579,-9.372483,-3.069420,0.633861,0.494881,-0.160650
31446,5.242399,-8.388263,-3.768773,1.618884,-0.186557,-0.150128
31447,6.261540,-6.577946,-3.846460,2.308244,-0.735587,-0.134792
31448,7.404622,-4.253009,-3.053060,2.634503,-1.074213,-0.132911
31449,8.267392,-1.705089,-0.920615,2.518243,-1.221015,-0.134686
31450,9.453993,0.727266,1.446145,1.956811,-1.176370,-0.077780
31451,10.875982,2.554076,3.476630,1.047505,-0.896486,0.016569
31452,11.949563,3.751637,5.426657,-0.097861,-0.420911,0.095978
31453,12.116338,3.485660,6.031443,-1.226946,0.179348,0.121045
31454,11.898508,2.272106,5.983799,-2.183512,0.764618,0.129996
31455,11.358598,-0.007365,4.975750,-2.867334,1.275952,0.166784
31456,10.533228,-2.680615,3.913632,-3.187576,1.631971,0.227009
31457,9.624704,-5.603942,2.788918,-3.096598,1.769454,0.309480
31458,8.623085,-8.580640,1.278662,-2.485420,1.735314,0.394062
31459,7.410243,-10.988973,-0.058450,-1.440452,1.510178,0.469568
31460,5.975787,-12.122766,-1.160068,-0.144066,1.044083,0.484300
31461,5.293401,-11.540888,-1.417453,1.162999,0.431113,0.479150
31462,5.682626,-9.673598,-1.458325,2.261910,-0.156377,0.515859
31463,7.130149,-7.073587,-1.251555,3.003353,-0.526614,0.615478
31464,8.711306,-4.472111,-0.928221,3.261789,-0.679750,0.763884
31465,9.737640,-2.232881,-0.127481,3.042515,-0.668528,0.912278
31466,10.049444,-0.386106,1.481924,2.340558,-0.531752,1.007132
31467,10.152359,0.981671,3.106907,1.327809,-0.318576,1.102319
31468,10.660962,1.871838,4.403308,0.139246,0.019708,1.224863
31469,11.248510,1.904153,5.305924,-1.094724,0.508262,1.360005
31470,11.819818,0.690364,5.609599,-2.204798,0.990802,1.537225
31471,11.973379,-1.541271,5.191264,-2.997251,1.411072,1.732549
31472,11.395109,-4.572940,4.073048,-3.289056,1.710187,1.888612
31473,10.414828,-7.555430,3.198544,-3.087527,1.850858,1.982252
31474,8.875438,-10.221590,2.556590,-2.474717,1.819697,2.036730
31475,7.307213,-12.134089,2.150600,-1.438961,1.601220,2.057875
31476,5.955256,-13.126202,1.749888,-0.093619,1.231982,2.058471
31477,5.172691,-12.615306,1.250938,1.339303,0.791803,2.045115
31478,5.365605,-10.685600,1.048315,2.527626,0.389223,2.023527
31479,6.188100,-8.229623,0.993706,3.246789,0.099891,2.006782
31480,7.465137,-5.630788,0.938230,3.487343,-0.080806,2.030361
31481,8.637232,-3.286698,0.973331,3.249208,-0.059912,2.004282
31482,9.614534,-1.521296,0.570631,2.654531,0.049900,1.932493
31483,9.858631,-0.162210,0.806646,1.705977,0.161317,1.827573
31484,9.164162,0.594712,1.867900,0.421003,0.227365,1.731028
31485,8.696916,0.806202,3.304811,-1.020916,0.387273,1.708812
31486,8.159617,0.029775,4.128099,-2.280356,0.731531,1.749720
31487,7.231361,-1.446407,4.711141,-3.181359,1.116948,1.818695
31488,6.492028,-3.456063,4.884243,-3.716825,1.390116,1.906097
31489,6.141042,-6.270678,4.751783,-3.850398,1.499373,1.963882
31490,6.136148,-9.108971,4.060276,-3.437096,1.429976,2.013895
31491,5.920622,-11.710930,3.333475,-2.556220,1.252881,1.954757
31492,5.719053,-13.504197,2.661652,-1.348565,0.956051,1.856404
31493,5.187951,-14.058747,1.952161,0.036149,0.582350,1.717487
31494,4.852214,-12.975563,1.608039,1.383858,0.188322,1.584528
31495,4.677823,-10.563025,1.661968,2.414125,-0.102286,1.444096
31496,4.829948,-7.944811,1.614357,3.065405,-0.288050,1.307827
31497,5.336365,-5.311567,1.663673,3.304842,-0.355570,1.165499
31498,5.624565,-3.047332,1.830606,3.133495,-0.333330,1.002044
31499,5.747356,-1.339183,2.068224,2.542402,-0.262756,0.808381
31500,6.034031,-0.159311,2.582284,1.558999,-0.172800,0.627351
31501,6.298309,0.607984,3.259059,0.317620,-0.040851,0.469094
31502,6.307226,0.558260,4.102515,-1.030733,0.154351,0.322732
31503,6.707942,-0.209520,4.726698,-2.258799,0.431043,0.271017
31504,6.870440,-2.261992,4.766392,-3.092460,0.814200,0.211096
31505,6.446971,-5.014431,4.634020,-3.484116,1.094540,0.131291
31506,5.903694,-8.152363,4.213549,-3.324092,1.153658,0.048881
31507,5.410949,-11.103109,3.480542,-2.642882,1.068559,-0.034111
31508,4.735720,-13.082047,2.821637,-1.551785,0.867423,-0.081385
31509,4.094108,-13.771957,2.277118,-0.224643,0.575198,-0.097606
31510,3.909397,-12.750741,1.844564,1.049565,0.231989,-0.054486
31511,4.025310,-11.150855,1.256608,2.030673,-0.068847,-0.013528
31512,4.137638,-9.025197,1.004868,2.617052,-0.259515,-0.022132
31513,3.959595,-6.883816,1.016209,2.776396,-0.323878,-0.081865
31514,3.938172,-4.709531,1.353005,2.506707,-0.369585,-0.120232
31515,4.300311,-2.998105,1.585676,1.867087,-0.399111,-0.135705
31516,4.664276,-2.079058,1.861491,0.948221,-0.402955,-0.151626
31517,4.907136,-1.908617,2.261426,-0.147895,-0.411539,-0.158279
31518,5.276160,-2.614248,2.463678,-1.251473,-0.390654,-0.127849
31519,6.006375,-4.238764,2.448681,-2.118836,-0.276946,-0.090692
31520,6.236027,-5.868701,3.092273,-2.643248,-0.089880,-0.090204
31521,6.031919,-7.459206,3.807569,-2.796152,0.055454,-0.146085
31522,5.538083,-9.137341,4.558946,-2.551908,0.104832,-0.256192
31523,5.021736,-10.922176,5.068819,-1.925773,0.060567,-0.364830
31524,4.780296,-12.184957,5.106720,-0.932723,-0.026374,-0.383683
31525,4.634338,-12.604148,4.864248,0.264354,-0.073021,-0.308524
31526,4.790292,-11.830677,4.227492,1.419216,-0.182735,-0.216915
31527,5.663518,-9.756947,3.705822,2.208878,-0.327430,-0.200279
31528,6.348213,-7.420326,3.351863,2.531043,-0.374488,-0.302887
31529,6.490707,-5.340232,2.920189,2.490322,-0.337040,-0.462452
31530,6.074811,-3.769840,2.264717,2.179963,-0.330249,-0.609827
31531,5.745038,-2.611182,1.642044,1.628648,-0.428748,-0.728591
31532,5.968566,-1.560355,1.879277,0.790584,-0.508786,-0.853571
31533,6.510739,-0.897909,2.844819,-0.285145,-0.398928,-0.967986
31534,6.659566,-1.209305,3.563532,-1.377115,-0.121991,-1.041527
31535,6.409003,-2.772630,3.813448,-2.206461,0.160128,-1.021449
31536,6.266167,-5.109502,3.698580,-2.577105,0.296577,-0.984847
31537,6.319971,-7.694717,3.471807,-2.430494,0.304481,-0.978225
31538,6.474349,-10.148281,3.321778,-1.803009,0.250428,-1.047199
31539,6.474742,-11.798670,3.481676,-0.837801,0.238485,-1.182228
31540,5.759606,-12.655457,3.729975,0.237589,0.261264,-1.310839
31541,4.607214,-12.517436,3.396824,1.252555,0.126387,-1.358259
31542,3.536627,-11.279649,2.675330,2.062240,-0.169742,-1.318724
31543,3.276743,-9.356046,1.871349,2.581394,-0.533907,-1.259846
31544,3.631504,-7.170337,1.543248,2.692474,-0.790606,-1.192066
31545,4.075699,-4.924914,1.268454,2.364189,-0.899816,-1.140320
31546,4.485059,-3.346894,0.188583,1.736089,-0.957699,-1.097857
31547,5.325668,-2.733402,-1.419501,0.965576,-1.145216,-1.055276
31548,6.708228,-3.092248,-2.579877,0.121339,-1.523868,-0.964543
31549,9.024202,-3.358481,-1.833106,-0.780984,-1.907536,-0.824516
31550,11.545034,-3.034297,0.671175,-1.876978,-1.885511,-0.692376
31551,12.408614,-2.955034,3.396332,-2.956023,-1.368121,-0.699792
31552,11.550246,-3.295953,5.807971,-3.696098,-0.689200,-0.855297
31553,10.093885,-4.060321,7.574786,-4.013491,-0.074959,-1.072826
31554,8.590516,-5.839868,8.151108,-3.874571,0.361332,-1.259056
31555,7.735257,-8.513578,7.410025,-3.181266,0.597856,-1.312310
31556,7.140187,-11.347215,5.852594,-1.984628,0.648104,-1.237615
31557,6.825519,-13.199908,3.905825,-0.468228,0.454389,-1.086844
31558,6.581128,-13.706986,1.947759,1.087366,0.169423,-0.958041
31559,6.317358,-13.231943,-0.000384,2.542649,-0.210423,-0.885524
31560,6.273284,-12.071247,-1.744793,3.762277,-0.683334,-0.884920
31561,6.341768,-9.979304,-2.842789,4.641043,-1.153658,-0.941957
31562,6.590346,-6.767453,-2.907107,4.981818,-1.520153,-1.008682
31563,7.308330,-3.019910,-1.839912,4.674453,-1.688608,-1.028969
31564,7.940373,0.505451,-0.369058,3.756989,-1.617142,-1.021045
31565,8.367645,2.884382,0.695945,2.444391,-1.431517,-0.989245
31566,9.037898,4.259238,1.560705,0.928894,-1.241122,-0.941573
31567,9.982356,4.487457,2.371696,-0.674853,-1.008358,-0.887323
31568,10.888008,3.657369,3.260680,-2.190046,-0.661632,-0.884506
31569,11.698574,1.967026,4.053814,-3.438888,-0.201984,-0.901057
31570,12.187505,-0.219277,4.691675,-4.258941,0.321814,-0.931674
31571,12.168850,-3.128835,4.878901,-4.565594,0.836779,-0.990300
31572,11.550525,-6.737262,4.437659,-4.302052,1.250187,-1.066528
31573,10.041638,-10.600632,3.485136,-3.413260,1.415230,-1.100300
31574,7.856414,-13.718427,1.762825,-1.883555,1.220751,-1.067701
31575,5.652431,-14.973948,0.074699,0.027063,0.706992,-0.995592
31576,4.427785,-14.327839,-1.450081,1.902461,-0.072403,-0.886149
31577,4.737721,-12.333561,-2.542075,3.363335,-0.906737,-0.743309
31578,6.122723,-9.618221,-2.916391,4.227232,-1.504901,-0.617722
31579,7.569048,-6.278023,-2.795571,4.531962,-1.771649,-0.528653
31580,8.541043,-2.765099,-2.124769,4.246914,-1.785570,-0.470973
31581,9.255520,0.802738,-1.046147,3.436816,-1.664199,-0.414365
31582,10.088653,3.854090,0.669344,2.210289,-1.417128,-0.335320
31583,11.231530,6.076375,2.723849,0.685267,-1.067095,-0.270568
31584,12.459618,6.837074,4.539109,-0.970922,-0.567971,-0.251973
31585,13.110621,6.162746,5.700505,-2.540928,0.086117,-0.294872
31586,12.964297,4.074926,6.032724,-3.840344,0.797199,-0.342107
31587,11.976215,0.481360,5.320793,-4.601076,1.385931,-0.335205
31588,10.570866,-4.470281,3.952677,-4.628348,1.648691,-0.300066
31589,9.343755,-9.570000,2.322392,-3.882476,1.581407,-0.319376
31590,7.810691,-13.908022,0.283037,-2.359009,1.287200,-0.447914
31591,5.931041,-16.186800,-1.514740,-0.318830,0.752631,-0.636072
31592,4.527570,-15.393512,-2.644770,1.647589,0.024019,-0.761882
31593,4.348394,-12.268579,-3.157796,3.089806,-0.686210,-0.728476
31594,5.077659,-8.355064,-3.150473,3.930269,-1.239643,-0.561276
31595,6.339030,-4.564431,-2.689576,4.203244,-1.614700,-0.328618
31596,8.048873,-1.326105,-1.858442,3.948193,-1.797949,-0.060263
31597,9.541406,1.240153,-0.804042,3.139573,-1.724130,0.185160
31598,10.356493,3.095648,0.390265,1.910949,-1.481542,0.364053
31599,11.164603,4.168220,2.263879,0.424996,-1.173953,0.467132
31600,12.584294,4.488856,4.422196,-1.147766,-0.724995,0.508011
31601,14.065084,4.042659,5.487287,-2.632992,-0.048842,0.493565
31602,14.602167,2.480977,5.297569,-3.767294,0.751038,0.386747
31603,13.976128,-0.360212,4.556321,-4.397009,1.473944,0.231657
31604,12.187151,-3.900636,3.507604,-4.451942,1.960011,0.106680
31605,9.775321,-7.235263,2.595587,-3.894838,2.076501,0.051928
31606,7.575593,-9.849122,1.558054,-2.861181,1.851584,0.026180
31607,5.898854,-11.451310,0.132290,-1.448231,1.398932,0.032671
31608,4.754991,-11.952772,-1.357394,0.148137,0.763705,0.088443
31609,3.831869,-11.481532,-2.975616,1.718924,0.044981,0.137819
31610,3.168464,-10.231158,-4.454824,3.099897,-0.751253,0.171428
31611,3.602880,-8.307766,-5.181811,4.098123,-1.533567,0.217969
31612,5.008827,-5.825190,-5.109151,4.569232,-2.149171,0.299334
31613,7.459618,-2.871818,-4.322842,4.504001,-2.463265,0.432816
31614,10.428153,0.335377,-1.934502,3.906160,-2.376832,0.582196
31615,13.205417,3.427933,1.641090,2.697725,-1.951797,0.754887
31616,15.209316,6.385363,5.379715,1.001796,-1.193805,0.835495
31617,15.479278,8.257803,7.282282,-0.920236,-0.254917,0.662753
31618,14.871530,8.373128,8.019712,-2.646635,0.686955,0.273804
31619,14.066370,6.679569,7.883336,-4.192635,1.604318,-0.095180
31620,12.952683,3.422569,6.080409,-5.359823,2.395056,-0.278591
31621,11.249215,-1.255302,3.094814,-5.809522,2.940325,-0.223437
31622,9.072491,-6.646280,-0.066445,-5.377596,3.065749,-0.009559
31623,6.454173,-11.896782,-2.816031,-4.126456,2.686484,0.235049
31624,3.962184,-16.153469,-4.706627,-2.261965,1.814237,0.332326
31625,1.874033,-18.372752,-5.829929,-0.047199,0.588990,0.289231
31626,0.926200,-17.550348,-6.207668,2.182686,-0.758698,0.211852
31627,2.046876,-14.411861,-5.919262,3.999998,-1.942497,0.203156
31628,4.721706,-10.570003,-5.164571,5.281123,-2.675819,0.328548
31629,7.682204,-6.454144,-3.761058,5.952911,-2.827305,0.509795
31630,10.345337,-2.207110,-1.550055,5.861064,-2.548574,0.681775
31631,12.564010,2.237004,0.998855,5.005493,-2.009596,0.823610
31632,13.762121,5.894800,3.401924,3.471704,-1.354026,0.876129
31633,13.776094,8.060577,5.202259,1.618759,-0.701619,0.797045
31634,13.626503,8.576047,6.100206,-0.363058,-0.019081,0.646496
31635,13.345792,6.986987,5.378056,-2.232744,0.763759,0.448977
31636,12.348383,4.208421,3.755110,-3.737394,1.456514,0.274863
31637,11.155347,0.565745,1.627865,-4.709956,1.896084,0.218434
31638,9.830891,-3.504213,-0.529701,-4.996463,2.066620,0.284940
31639,7.973530,-7.567144,-2.203642,-4.633315,1.956219,0.389630
31640,5.597809,-11.261051,-3.633937,-3.627524,1.494207,0.452096
31641,3.377280,-13.784714,-4.552810,-2.093674,0.656011,0.436221
31642,2.189013,-14.238537,-4.945367,-0.315828,-0.405860,0.378800
31643,2.557627,-12.943733,-4.877304,1.330212,-1.456886,0.387481
31644,4.404343,-10.787449,-4.773295,2.614554,-2.266039,0.526724
31645,7.052394,-8.035791,-4.124743,3.423824,-2.702015,0.778919
31646,10.028153,-4.612327,-2.500349,3.540479,-2.708642,1.075337
31647,12.642705,-0.691096,0.082801,2.988608,-2.351320,1.316127
31648,13.841712,3.515958,4.092107,1.832084,-1.740842,1.327610
31649,14.829468,7.112445,8.604264,0.090337,-0.951278,1.103019
31650,16.184813,8.719485,10.349900,-1.854660,0.119425,0.676244
31651,16.101622,6.935863,8.785617,-3.521384,1.354934,0.220367
31652,13.970322,2.305850,4.944903,-4.658437,2.303571,-0.012367
31653,10.845623,-3.334559,0.279177,-4.913726,2.610803,0.068580
31654,7.722240,-9.102265,-2.853752,-4.127001,2.289571,0.279004
31655,4.994097,-14.291991,-4.369084,-2.642780,1.502359,0.453724
31656,2.733630,-17.502749,-5.520290,-0.849383,0.476506,0.417257
31657,1.295448,-17.332486,-6.278726,1.095545,-0.586585,0.232827
31658,1.301070,-14.497829,-6.110425,2.822757,-1.515668,0.077205
31659,2.895427,-10.936453,-4.931044,4.057316,-2.154260,0.075861
31660,6.135049,-7.432593,-2.924954,4.681902,-2.412542,0.285074
31661,10.675808,-3.653584,-0.298316,4.633049,-2.135814,0.597541
31662,14.449009,0.618447,2.098799,3.976571,-1.384433,0.824088
31663,14.807171,4.065514,3.881141,2.771644,-0.506372,0.805385
31664,12.584231,5.345459,4.868050,1.230071,0.144303,0.530081
31665,10.677327,4.584145,4.498968,-0.271371,0.484677,0.189897
31666,10.261821,2.240668,3.009537,-1.639517,0.751563,0.014086
31667,9.267292,-0.812266,0.492895,-2.587592,1.005509,0.042381
31668,7.548601,-4.064300,-1.946570,-2.913127,1.032993,0.188076
31669,5.823724,-7.029785,-3.524690,-2.747401,0.826348,0.388282
31670,4.234002,-9.566451,-3.980023,-2.250244,0.424113,0.528793
31671,4.058573,-11.016867,-3.019000,-1.585807,-0.087080,0.593879
31672,5.389391,-11.144174,-1.521726,-0.892709,-0.466513,0.596110
31673,7.333899,-9.926683,-0.285032,-0.216733,-0.652565,0.577322
31674,9.062080,-7.966584,0.800062,0.379440,-0.703763,0.533081
31675,10.444017,-5.845970,1.721991,0.807500,-0.696807,0.452857
31676,11.226366,-3.907845,2.198729,1.000137,-0.584201,0.295406
31677,11.019527,-2.686094,1.977304,0.988726,-0.380464,0.099267
31678,10.174366,-2.359610,1.309727,0.788487,-0.193982,0.008211
31679,9.032383,-2.447334,0.542220,0.540058,-0.078665,-0.020162
31680,8.544852,-2.813107,-0.129741,0.319331,-0.075265,-0.001144
31681,9.101609,-3.508517,-0.729364,0.201507,-0.100063,0.065639
31682,10.014406,-4.045040,-0.673798,0.139440,-0.093690,0.136281
31683,11.087053,-4.333198,-0.088024,0.071738,-0.070935,0.152692
31684,11.242833,-4.465824,0.005769,0.062587,-0.008910,0.050104
31685,10.396639,-4.351487,-0.263601,0.163307,-0.002022,-0.167042
31686,9.426990,-3.608404,-0.577390,0.255754,-0.082830,-0.420966
31687,8.882634,-2.353735,-0.736675,0.204357,-0.194934,-0.588593
31688,8.951333,-1.335219,-0.733952,-0.065884,-0.217452,-0.662900
31689,8.984646,-0.604836,-0.948913,-0.498906,-0.115471,-0.668042
31690,8.626369,-0.251696,-1.106200,-1.012606,-0.002626,-0.668189
31691,8.640950,-0.396933,-1.045154,-1.601739,0.034284,-0.665273
31692,9.199139,-1.112537,-0.964787,-2.223748,0.027458,-0.656553
31693,9.859027,-2.272049,-1.224342,-2.747184,0.067787,-0.681196
31694,10.063287,-3.600191,-1.617554,-3.087015,0.076590,-0.737644
31695,10.124339,-4.805172,-1.675822,-3.220123,0.054019,-0.818972
31696,10.159726,-5.686568,-1.066433,-3.169360,0.041051,-0.938974
31697,10.713156,-6.301813,0.674007,-3.018179,0.093332,-1.034895
31698,12.117827,-6.845262,2.963581,-2.855758,0.415185,-1.043726
31699,12.206664,-7.235233,4.255026,-2.556822,0.945186,-1.030469
31700,11.460057,-7.704803,4.352068,-2.018380,1.372406,-1.046672
31701,9.899104,-8.901559,2.916199,-1.176917,1.557610,-1.049955
31702,7.946647,-10.387577,0.613778,0.034565,1.334291,-1.015025
31703,6.803898,-11.718817,-2.078069,1.427182,0.809430,-0.966030
31704,5.995789,-12.224557,-4.756596,2.887983,0.163602,-0.930382
31705,5.378495,-11.844362,-7.020532,4.228311,-0.520286,-0.921428
31706,5.119240,-10.153147,-8.221260,5.196618,-1.088613,-0.907695
31707,5.697142,-7.025049,-7.926278,5.579454,-1.495042,-0.810474
31708,7.602029,-2.869821,-6.052026,5.263201,-1.599177,-0.603060
31709,9.503524,1.600099,-3.279970,4.255205,-1.388979,-0.370818
31710,10.451645,5.491125,-0.423245,2.678174,-1.019915,-0.198071
31711,10.854267,8.220278,1.448173,0.634498,-0.624886,-0.151440
31712,10.937244,8.936314,1.786635,-1.637268,-0.254686,-0.269921
31713,10.996504,7.311160,1.624918,-3.727895,0.099605,-0.486214
31714,11.563494,4.351009,1.652863,-5.266453,0.464077,-0.714524
31715,12.727746,1.527786,1.481276,-6.190241,0.951064,-0.845725
31716,13.398807,-1.162199,0.955741,-6.564356,1.504353,-0.908158
31717,13.242175,-4.060498,0.239124,-6.485364,1.978675,-0.936872
31718,12.005153,-7.791694,-0.452517,-5.814060,2.279625,-0.957956
31719,10.190096,-11.914638,-0.208927,-4.376247,2.221748,-0.939564
31720,8.643053,-15.300531,0.077109,-2.340033,1.839039,-0.892122
31721,7.047126,-16.551942,-1.382627,0.077283,1.290591,-0.815533
31722,5.065615,-15.281768,-3.816853,2.569540,0.597803,-0.750234
31723,4.317642,-12.647494,-6.025671,4.762826,-0.254182,-0.663460
31724,5.101248,-9.907887,-7.075735,6.285940,-1.108637,-0.526503
31725,7.123235,-6.983515,-7.359351,7.016844,-1.770956,-0.379743
31726,9.975360,-3.128383,-6.826440,6.937270,-2.041253,-0.204628
31727,12.300700,1.341108,-4.619794,6.109427,-1.815664,-0.055023
31728,12.738668,5.425519,-1.169947,4.657974,-1.266362,-0.066629
31729,12.177241,8.328025,1.623248,2.758282,-0.757012,-0.145828
31730,11.553987,9.640117,2.918043,0.518514,-0.321062,-0.258097
31731,11.447311,9.225745,2.730230,-1.764616,0.096178,-0.396691
31732,11.462659,7.141747,1.962948,-3.665193,0.547949,-0.543253
31733,11.712637,4.340242,1.150964,-4.960280,0.987736,-0.670428
31734,12.014365,1.560157,0.309644,-5.669304,1.439773,-0.716470
31735,11.894695,-1.017292,-0.400005,-5.881968,1.834392,-0.678397
31736,11.628746,-3.500580,-0.704989,-5.674409,2.116385,-0.614414
31737,11.370725,-6.087500,-0.639150,-5.085597,2.251865,-0.577866
31738,10.852696,-8.786925,-0.309285,-4.057588,2.214771,-0.597933
31739,9.710757,-11.073744,-0.058966,-2.496245,1.984134,-0.637627
31740,8.264483,-12.095740,-0.012626,-0.550895,1.529473,-0.644675
31741,7.321766,-11.554991,-0.325141,1.452090,0.938588,-0.622468
31742,7.146389,-9.957913,-1.518514,3.215671,0.354077,-0.581030
31743,7.095672,-7.836524,-3.524850,4.694756,-0.119221,-0.517658
31744,6.548233,-5.637291,-5.122601,5.861244,-0.540768,-0.499605
31745,6.034798,-3.695025,-6.178981,6.635119,-1.062097,-0.513177
31746,6.282231,-2.084402,-6.279756,6.809988,-1.676646,-0.491782
31747,7.731686,-0.059340,-5.439679,6.246665,-2.191544,-0.372868
31748,9.982073,2.652223,-3.563094,5.078602,-2.240962,-0.225516
31749,11.375881,5.221341,-1.490830,3.598897,-1.780124,-0.144674
31750,11.028497,7.593884,0.275061,1.937426,-1.169262,-0.138099
31751,10.197773,8.734176,1.614046,0.060100,-0.772958,-0.185888
31752,10.835350,8.182219,2.787667,-1.833144,-0.427386,-0.219824
31753,12.585473,6.709832,3.491551,-3.483313,0.189371,-0.294115
31754,13.548261,5.022823,3.053083,-4.861345,1.036396,-0.436891
31755,12.997185,3.051202,1.640233,-5.852938,1.734472,-0.598429
31756,12.092630,0.358872,0.133982,-6.304934,2.065093,-0.737329
31757,11.209632,-3.130290,-0.892202,-6.116378,2.112925,-0.820544
31758,10.286368,-7.050874,-1.247258,-5.241288,1.999133,-0.885997
31759,8.736901,-10.505931,-1.964407,-3.706969,1.760791,-0.888394
31760,5.918233,-12.182776,-3.017561,-1.621333,1.305513,-0.854712
31761,3.404020,-11.507230,-3.557902,0.613029,0.498194,-0.815431
31762,3.101349,-9.201425,-3.228330,2.424079,-0.547978,-0.718591
31763,5.494389,-6.899136,-2.348969,3.507535,-1.492329,-0.494829
31764,9.111647,-4.484637,-1.674469,3.911672,-1.921506,-0.218286
31765,11.257633,-1.298013,-1.664109,3.935785,-1.768241,-0.093692
31766,10.792330,1.708263,-1.696625,3.659998,-1.413752,-0.166115
31767,9.719419,3.331384,-1.363554,3.107304,-1.276747,-0.219392
31768,9.958844,4.411649,0.385991,2.186884,-1.249972,-0.124493
31769,11.983872,5.137795,2.936625,0.819885,-1.017081,0.087667
31770,13.937659,5.360099,4.502397,-0.707113,-0.287245,0.187803
31771,13.353471,5.434392,4.274182,-2.098352,0.586338,0.022743
31772,11.373412,4.550545,2.396253,-3.105229,1.022129,-0.293291
31773,10.311897,1.434885,0.381819,-3.563458,1.042845,-0.501208
31774,9.874804,-2.686252,-1.181600,-3.369942,0.924553,-0.550939
31775,8.456371,-5.840831,-2.352093,-2.551395,0.744575,-0.537247
31776,6.675302,-7.158249,-3.084977,-1.397603,0.319349,-0.526988
31777,6.271114,-7.001356,-3.490933,-0.290291,-0.341487,-0.436493
31778,7.412417,-5.590081,-2.461411,0.412176,-0.912482,-0.252806
31779,9.102051,-2.798649,-1.264760,0.639073,-1.164009,-0.076898
31780,10.236148,-0.033896,-0.674935,0.452428,-1.079390,-0.016260
31781,10.188894,1.852208,-0.928150,0.066184,-0.916030,-0.036572
31782,9.548860,2.426956,-1.301245,-0.461883,-0.804632,-0.049666
31783,9.792681,1.630422,-0.745643,-1.050616,-0.733354,0.045288
31784,11.102762,0.001811,0.577567,-1.531739,-0.529580,0.219624
31785,11.639972,-1.452443,1.785720,-1.812942,-0.129445,0.334800
31786,10.933275,-2.376492,2.073548,-1.754827,0.175564,0.326152
31787,10.068796,-3.066153,1.846163,-1.439071,0.205153,0.263886
31788,9.857793,-3.480462,1.438676,-1.001180,0.125900,0.160237
31789,9.878852,-3.601510,0.819881,-0.570889,0.099235,0.026271
31790,9.724056,-3.263269,-0.138863,-0.129608,0.137938,-0.114403
31791,9.487031,-2.376125,-0.956371,0.276680,0.189260,-0.193143
31792,9.320771,-1.195779,-1.342576,0.506677,0.207529,-0.169827
31793,9.356276,-0.228304,-1.313381,0.488442,0.199367,-0.071761
31794,9.513519,0.589037,-0.974523,0.294580,0.211041,0.045564
31795,9.671759,0.980905,-0.619502,-0.066896,0.252774,0.137691
31796,9.667189,0.551159,-0.701148,-0.465128,0.276548,0.189752
31797,9.529141,-0.040077,-1.007124,-0.742437,0.286454,0.188774
31798,9.336291,-0.838936,-1.392544,-0.797896,0.255927,0.192950
31799,8.986093,-1.452291,-1.402622,-0.662514,0.167534,0.185280
31800,8.973505,-1.743655,-0.923773,-0.414138,0.023482,0.170594
31801,9.467487,-1.779257,-0.283718,-0.165142,-0.097459,0.147924
31802,10.305921,-1.865778,0.017671,0.042550,-0.124978,0.149059
31803,10.830684,-2.274612,-0.058637,0.258192,-0.059371,0.165045
31804,10.747868,-2.568119,0.056115,0.523622,0.016562,0.152914
31805,10.531479,-2.154596,0.508048,0.730913,0.022391,0.111522
31806,10.618146,-1.243433,0.495727,0.806519,0.000119,0.089969
31807,10.554173,-0.312736,0.096290,0.743656,0.050038,0.095779
31808,10.222850,0.135908,-0.215552,0.561001,0.103002,0.123925
31809,10.077871,-0.090981,0.100419,0.363398,0.135560,0.156748
31810,10.021974,-0.265902,0.538317,0.188181,0.192544,0.168387
31811,9.640720,-0.225568,0.595757,0.077634,0.250451,0.153161
31812,9.172588,-0.270632,0.319075,0.008237,0.220885,0.141833
31813,9.067131,-0.703876,-0.067090,0.000439,0.140044,0.152964
31814,9.089622,-1.188404,-0.250378,0.069539,0.088578,0.161681
31815,9.080870,-1.332925,-0.220589,0.163374,0.063484,0.162190
31816,9.159738,-1.112560,-0.077891,0.229011,0.041573,0.142017
31817,9.379094,-0.852063,0.009590,0.253608,0.031667,0.127471
31818,9.505617,-0.613369,0.147190,0.244050,0.032853,0.124312
31819,9.805367,-0.672622,0.190771,0.195152,0.029307,0.119951
31820,9.915369,-0.800222,0.070143,0.155997,0.051755,0.110094
31821,9.846652,-1.001780,0.011648,0.132047,0.078629,0.082217
31822,9.811898,-1.241868,-0.185488,0.166628,0.082722,0.052536
31823,9.835962,-1.328325,-0.233766,0.245446,0.083192,0.039971
31824,9.845044,-1.057097,-0.298262,0.301458,0.078668,0.051665
31825,9.893365,-0.593183,-0.376274,0.295338,0.058098,0.059962
31826,10.001069,-0.217685,-0.341328,0.225123,0.038237,0.056315
31827,10.143734,-0.087879,-0.160680,0.108006,0.043376,0.045153
31828,10.104416,-0.205590,-0.133759,-0.012025,0.070452,0.034348
31829,9.867949,-0.363894,-0.250554,-0.096979,0.094454,0.009265
31830,9.712098,-0.591119,-0.202726,-0.158870,0.081863,0.000004
31831,9.742741,-1.003175,-0.216419,-0.164758,0.065534,-0.007002
31832,9.723497,-1.246926,-0.091051,-0.124269,0.068938,0.002807
31833,9.673900,-1.400145,0.017435,-0.064128,0.088599,-0.001896
31834,9.607605,-1.418074,0.176636,0.003228,0.097912,-0.006483
31835,9.692927,-1.444967,0.169782,0.069177,0.104211,-0.004202
31836,9.685240,-1.421838,0.176908,0.127355,0.107440,0.000447
31837,9.886491,-1.412024,0.168996,0.161826,0.104578,0.011733
31838,9.958163,-1.404349,0.109071,0.198657,0.126301,0.015914
31839,9.881400,-1.329274,0.107423,0.236046,0.130591,0.006975
31840,9.913362,-1.193193,0.096976,0.255994,0.113179,0.002440
31841,9.912462,-1.269079,0.124977,0.257666,0.084562,0.006645
31842,10.004474,-1.396049,0.140008,0.281455,0.065106,0.017473
31843,9.980697,-1.324962,0.159453,0.324494,0.059513,0.030329
31844,9.926077,-1.158521,0.181617,0.363844,0.045154,0.029042
31845,9.898566,-1.004717,0.105149,0.395511,0.025876,0.028979
31846,9.928801,-0.861042,0.130427,0.399510,0.012745,0.028477
31847,9.934134,-0.874826,0.188578,0.397232,0.022746,0.017154
31848,9.848401,-0.847490,0.210183,0.407320,0.034556,0.016275
31849,9.761762,-0.894694,0.249688,0.421592,0.038042,0.007275
31850,9.731982,-0.965147,0.222050,0.430988,0.027524,-0.000773
31851,9.740358,-1.073251,0.204800,0.448610,0.018867,0.002673
31852,9.698749,-1.197139,0.089605,0.486108,0.020099,0.000636
31853,9.587333,-1.264465,-0.016809,0.540982,0.005836,0.019850
31854,9.703147,-1.230274,-0.014868,0.612262,-0.019080,0.039774
31855,9.796552,-1.130501,-0.032693,0.665399,-0.023974,0.051865
31856,9.892493,-1.103168,0.069200,0.699009,-0.020507,0.053008
31857,9.872548,-0.949117,0.182453,0.729787,-0.019028,0.043515
