// Start Time: Unknown
// Update Rate: 100.0Hz
// Filter Profile: human (46.1)
// Firmware Version: 4.3.5
PacketCounter,Acc_X,Acc_Y,Acc_Z,Gyr_X,Gyr_Y,Gyr_Z
32094,9.566023,-2.072934,1.720012,0.000817,-0.006243,-0.021818
32095,9.571047,-2.052111,1.690795,0.003784,-0.008148,-0.018566
32096,9.559016,-2.066649,1.677465,0.001258,-0.002569,-0.022148
32097,9.530350,-2.013100,1.685727,0.001096,-0.004137,-0.020227
32098,9.555702,-2.046854,1.707210,-0.000360,-0.005269,-0.024210
32099,9.514550,-2.043899,1.700198,-0.003594,-0.010672,-0.028332
32100,9.524330,-1.968823,1.644064,-0.001318,-0.006898,-0.033236
32101,9.533009,-2.037037,1.680822,-0.002368,-0.010601,-0.031385
32102,9.508890,-2.032687,1.655859,-0.005046,-0.011799,-0.032321
32103,9.547269,-2.014295,1.691269,-0.002758,-0.013230,-0.036501
32104,9.603309,-1.988897,1.608365,-0.003149,-0.015860,-0.041615
32105,9.633681,-2.001991,1.600206,-0.008406,-0.012520,-0.040694
32106,9.625926,-2.035957,1.655944,-0.015278,-0.011884,-0.041833
32107,9.610142,-2.033043,1.672114,-0.017796,-0.011510,-0.044693
32108,9.548189,-2.048485,1.710802,-0.010762,-0.010565,-0.045485
32109,9.557404,-1.977794,1.754682,-0.011804,-0.014268,-0.043638
32110,9.595260,-1.860765,1.896268,-0.018699,-0.008428,-0.045500
32111,9.645677,-1.549443,1.960508,-0.077974,0.007798,-0.050793
32112,9.628857,-1.059760,1.905550,-0.197143,0.033984,-0.053730
32113,9.673021,-0.667982,2.008710,-0.364592,0.067310,-0.058173
32114,9.787736,-0.823092,2.183668,-0.608823,0.121861,-0.021377
32115,9.815327,-1.054926,2.070335,-0.868400,0.188850,0.015352
32116,9.814317,-1.240027,2.138823,-1.169594,0.247596,0.050258
32117,9.728898,-1.845452,2.153229,-1.345659,0.300135,0.064024
32118,9.800479,-3.237794,1.707753,-1.294752,0.319863,0.074414
32119,9.819237,-4.811597,1.540572,-0.971360,0.335789,0.112748
32120,9.673151,-5.966824,1.259643,-0.406003,0.305104,0.176357
32121,9.361556,-7.247950,0.654021,0.365715,0.202570,0.271765
32122,9.160282,-8.252540,0.784642,1.385848,0.004489,0.390156
32123,9.693213,-7.937145,2.542042,2.593965,-0.220594,0.505155
32124,10.747520,-5.688918,3.412444,3.506847,-0.298416,0.651844
32125,10.855694,-2.978622,3.443528,3.851437,-0.289079,0.849354
32126,10.554306,-1.368819,3.633236,3.641628,-0.247854,1.037660
32127,10.291078,-1.168655,3.870107,3.173398,-0.174011,1.171965
32128,10.234953,-0.680646,5.021666,2.707040,-0.030554,1.228051
32129,10.577539,1.078584,6.146503,2.016937,0.212408,1.202805
32130,10.731719,3.244348,5.991474,0.957262,0.544465,1.118864
32131,10.679219,4.018483,4.132389,-0.433490,0.924905,0.989994
32132,9.819800,2.441419,1.816517,-1.911817,1.308880,0.852501
32133,8.914537,-0.493093,1.248417,-3.049225,1.545031,0.683919
32134,8.677973,-3.280125,1.871439,-3.646856,1.732285,0.549987
32135,8.554753,-4.781123,2.551971,-3.861623,1.858117,0.491364
32136,8.367232,-5.498873,2.488853,-3.869870,1.907218,0.531283
32137,7.811887,-7.007257,0.948598,-3.702271,1.838171,0.658094
32138,7.008776,-9.380094,0.861518,-3.039278,1.582535,0.763102
32139,6.543611,-11.782501,1.592562,-1.685139,1.194653,0.827253
32140,6.740852,-12.782984,2.554399,0.127774,0.620917,0.972333
32141,7.909571,-11.954908,1.913556,1.830820,0.080993,1.183745
32142,9.074487,-9.953286,1.735062,3.166390,-0.238257,1.381720
32143,9.865984,-6.980740,2.014491,3.857873,-0.385913,1.520016
32144,10.021599,-4.017067,1.838976,3.812743,-0.383827,1.643471
32145,9.549009,-1.946047,1.229464,3.233585,-0.319268,1.701233
32146,8.886232,-0.980957,1.995757,2.449170,-0.224444,1.647890
32147,9.098138,-0.969172,4.000514,1.725720,0.028609,1.431431
32148,8.519232,-1.563374,3.329105,1.035179,0.416683,1.213733
32149,7.572766,-1.197664,2.973777,0.477760,0.701018,0.977430
32150,7.036050,-0.269692,2.604399,-0.214052,0.905440,0.737730
32151,6.742021,-0.214807,2.344299,-1.104741,1.013223,0.605358
32152,6.821783,-0.930588,1.946338,-1.940171,1.017417,0.494499
32153,7.277961,-2.443367,1.649359,-2.546443,0.980730,0.432419
32154,7.542818,-4.441863,0.963319,-2.774878,0.844382,0.416616
32155,6.908563,-7.200982,-0.283894,-2.368066,0.546105,0.485418
32156,5.880743,-10.746725,-1.180046,-1.158259,0.013004,0.569494
32157,5.662886,-12.598531,-0.639011,0.745289,-0.654521,0.639403
32158,6.922191,-11.289363,0.692294,2.633725,-1.204074,0.676596
32159,7.737572,-7.962434,1.010851,3.886594,-1.461700,0.741770
32160,8.160089,-3.815083,2.850100,4.411489,-1.569770,0.776417
32161,8.741615,0.205611,5.208267,4.129108,-1.392441,0.722312
32162,8.882632,2.055986,5.764974,3.128286,-0.954607,0.604923
32163,8.618809,1.952301,4.738535,1.830036,-0.455760,0.379630
32164,7.985551,1.196819,3.362962,0.510036,0.094367,0.128656
32165,7.305041,0.179256,3.620291,-0.688256,0.506805,-0.101458
32166,7.365325,-0.893660,4.964779,-1.758664,0.809736,-0.252864
32167,8.033873,-1.790176,5.879703,-2.756375,1.063506,-0.277773
32168,8.460908,-3.136577,6.000670,-3.574837,1.237121,-0.208552
32169,8.679489,-5.615807,4.265952,-4.090796,1.317338,-0.064412
32170,7.028290,-9.445261,1.165360,-4.009041,1.125723,0.159772
32171,5.491759,-13.872491,1.221474,-2.710609,0.598963,0.283451
32172,5.840324,-17.050302,1.933696,-0.585172,-0.121467,0.424856
32173,7.337417,-16.940201,2.640272,1.797804,-0.763139,0.602208
32174,9.259514,-13.371812,4.157533,3.813898,-1.115117,0.788081
32175,10.181984,-8.118458,5.670880,4.861692,-1.135272,0.973606
32176,9.987061,-3.112818,7.422508,4.898028,-0.902829,1.120433
32177,8.956800,0.785619,8.302790,4.125189,-0.523442,1.125496
32178,7.510820,2.805805,6.792067,2.816620,-0.169264,1.025188
32179,6.962191,2.254517,5.286069,1.354385,0.178293,0.836438
32180,7.180603,-0.362700,4.521472,0.037522,0.627072,0.594461
32181,7.167084,-2.558617,4.203785,-0.925749,1.013878,0.362194
32182,7.377203,-3.013809,5.411220,-1.625375,1.342541,0.144729
32183,7.412192,-2.733160,6.370648,-2.405828,1.625842,0.064852
32184,7.606722,-2.851776,6.471194,-3.222507,1.787223,0.112843
32185,7.359730,-4.340953,3.630675,-4.033707,1.816287,0.280777
32186,5.840173,-8.060412,1.185722,-4.196977,1.566468,0.491557
32187,4.287931,-13.337310,0.934972,-3.148420,1.057553,0.643335
32188,3.960864,-17.968091,1.274150,-0.935713,0.298638,0.810461
32189,5.603912,-18.796325,1.545785,1.804706,-0.489752,0.957156
32190,8.054185,-14.990123,1.589254,4.095625,-0.961477,1.105385
32191,8.937692,-8.945017,1.356249,5.353120,-1.132462,1.241707
32192,8.839045,-3.624279,1.167319,5.404743,-1.138784,1.352795
32193,8.502575,-0.114843,2.282697,4.674793,-1.059510,1.354705
32194,8.811868,1.076065,4.205904,3.594973,-0.833700,1.210145
32195,8.576539,0.192546,4.901032,2.489318,-0.415674,1.022130
32196,8.013249,-0.099699,5.866309,1.665610,0.035712,0.738706
32197,7.238983,1.401997,5.989913,0.747002,0.523666,0.422287
32198,6.510060,2.626719,5.090273,-0.561344,0.936011,0.124670
32199,6.288200,2.038194,4.364809,-2.088495,1.203799,-0.070438
32200,7.179186,-0.491558,4.592449,-3.401509,1.404142,-0.156393
32201,8.258755,-4.280900,4.058592,-4.184778,1.561817,-0.156773
32202,7.449216,-9.065193,0.035883,-4.306930,1.534916,-0.025367
32203,4.751133,-14.198224,-1.417436,-3.251032,1.110675,0.180277
32204,3.255435,-17.378282,0.262311,-1.138319,0.333954,0.360946
32205,3.386840,-17.857610,1.094400,1.389098,-0.539622,0.597259
32206,5.623455,-15.076650,2.428976,3.682178,-1.230279,0.836324
32207,7.826762,-10.185576,3.734322,5.163583,-1.530737,1.020373
32208,8.872667,-4.432022,5.948602,5.590853,-1.376747,1.094631
32209,8.435263,0.627105,6.932337,4.908114,-0.922333,0.983129
32210,7.294289,3.208545,6.060284,3.472251,-0.370620,0.725364
32211,5.988534,3.266197,5.711315,1.749278,0.176849,0.357556
32212,5.724587,2.985052,7.363654,0.061851,0.678792,-0.104875
32213,6.414761,3.021607,7.837506,-1.729013,1.113150,-0.409360
32214,7.305811,2.618316,8.191382,-3.614601,1.520679,-0.512779
32215,7.954340,0.483231,7.004597,-5.382498,1.868203,-0.434416
32216,8.026092,-3.939679,4.256346,-6.568072,2.090258,-0.290960
32217,5.372883,-10.214096,-1.064834,-6.859620,2.052850,0.005419
32218,1.409055,-16.768359,-1.240515,-5.523455,1.544521,0.148412
32219,-0.142131,-22.088678,1.957065,-2.600155,0.613994,0.279969
32220,2.251650,-22.922050,2.986716,1.023214,-0.563324,0.468545
32221,6.325754,-17.835725,2.260200,4.198912,-1.241820,0.595061
32222,7.749445,-9.472018,3.273211,5.866226,-1.412432,0.762347
32223,7.797186,-2.519516,5.186922,5.974856,-1.289459,0.882583
32224,7.298032,1.871000,6.023209,4.888116,-0.889997,0.807168
32225,6.788791,2.626360,6.401909,3.325515,-0.427628,0.595744
32226,6.341886,1.678061,6.477863,1.670113,0.092239,0.295415
32227,6.548664,1.491711,7.756609,0.155255,0.558430,-0.045450
32228,6.883962,2.574672,8.281988,-1.423458,1.032785,-0.372345
32229,7.428235,2.379693,8.453262,-3.138198,1.437123,-0.516087
32230,7.258595,-0.887411,5.842680,-4.592895,1.714927,-0.481375
32231,5.766685,-6.292994,2.322244,-5.160393,1.743499,-0.353119
32232,3.490799,-11.102471,1.273897,-4.616313,1.503401,-0.288882
32233,1.820826,-15.429084,1.331171,-3.103406,0.943743,-0.119322
32234,1.910565,-17.779634,2.162821,-0.795475,0.148608,0.070383
32235,3.885252,-16.332456,2.207647,1.573008,-0.535423,0.220996
32236,5.650615,-12.218974,2.371404,3.311555,-0.929265,0.340537
32237,6.404774,-7.717044,3.181438,4.107564,-1.063509,0.437322
32238,6.074240,-4.194814,3.992131,4.024915,-1.042464,0.546974
32239,5.777520,-1.920200,5.512916,3.416319,-0.928538,0.547260
32240,6.017866,-1.295767,6.825028,2.492551,-0.668491,0.453525
32241,6.680527,-1.193076,7.525730,1.555469,-0.328538,0.304584
32242,6.716925,-0.174066,7.637676,0.483808,0.038483,0.134466
32243,6.401593,0.453234,7.196284,-0.803917,0.355180,0.008442
32244,6.336573,-1.187140,6.355295,-2.042763,0.602086,-0.094228
32245,5.788463,-4.889049,4.082442,-2.803000,0.708814,-0.128771
32246,4.646949,-8.197458,3.288413,-2.719614,0.605574,-0.104557
32247,3.878172,-10.315173,3.394739,-2.022929,0.313504,-0.019552
32248,4.325247,-11.350886,2.888958,-0.937821,-0.087727,0.077348
32249,5.077795,-11.143430,2.159070,0.209432,-0.461197,0.165107
32250,5.371961,-9.967815,1.735463,1.075158,-0.800347,0.289113
32251,5.417422,-9.220968,1.830975,1.724158,-1.095682,0.391826
32252,5.613748,-9.128087,2.697164,2.388945,-1.370843,0.467264
32253,6.516346,-7.829159,3.566871,3.082245,-1.500274,0.468720
32254,7.950827,-4.992552,5.663075,3.441523,-1.440401,0.408070
32255,8.947302,-0.553796,6.785857,2.927828,-1.109301,0.330755
32256,9.197772,3.728525,7.593374,1.411579,-0.659097,0.186294
32257,8.704397,3.517865,7.012138,-0.521504,-0.231921,0.046473
32258,7.806342,-1.474313,5.217579,-1.793526,0.025135,-0.066107
32259,7.164667,-5.218518,4.542953,-2.096187,0.134323,-0.178530
32260,7.090207,-6.148784,5.333876,-1.956416,0.132364,-0.172411
32261,8.305072,-5.702660,7.388776,-1.788537,0.164962,-0.133057
32262,8.533771,-6.145222,5.608936,-1.604542,0.175017,-0.089378
32263,8.312923,-6.121874,4.746458,-1.416725,0.256946,-0.066280
32264,6.396008,-5.768705,4.173109,-1.427489,0.238230,0.026536
32265,5.761521,-7.164923,4.704244,-1.330296,0.092296,0.049473
32266,6.178528,-8.910961,4.585730,-0.877177,-0.065327,0.073945
32267,7.006123,-9.082551,5.460629,-0.207330,-0.159825,0.100452
32268,7.657901,-7.521109,6.095055,0.243057,-0.122677,0.121035
32269,7.886919,-5.975705,5.378471,0.169603,-0.014491,0.178829
32270,6.507362,-6.398941,3.996980,-0.179685,0.034086,0.298484
32271,5.247946,-8.040946,3.560962,-0.347721,-0.087254,0.407198
32272,5.132180,-9.791267,3.749137,-0.075488,-0.254710,0.513501
32273,5.843356,-10.381886,4.707683,0.494877,-0.416265,0.620903
32274,6.908582,-9.069574,5.603911,1.025973,-0.508056,0.699427
32275,7.336863,-6.961961,6.301248,1.227872,-0.485106,0.760834
32276,7.168740,-5.215423,6.730473,1.066157,-0.389100,0.796761
32277,6.856012,-4.257011,6.557666,0.678732,-0.258794,0.782247
32278,6.479964,-3.763009,6.164583,0.188313,-0.054920,0.733054
32279,5.996898,-4.093668,5.864845,-0.281769,0.160632,0.634235
32280,6.405226,-4.485082,6.492232,-0.692596,0.395800,0.491407
32281,7.185099,-4.610862,6.625446,-1.159774,0.725541,0.355674
32282,7.235973,-4.388810,5.646342,-1.837579,1.057135,0.251285
32283,5.653725,-5.504998,3.396861,-2.594283,1.191039,0.279604
32284,3.477283,-7.650232,3.139825,-3.002766,1.024035,0.374158
32285,3.269991,-10.396508,3.779752,-2.690326,0.706465,0.480633
32286,4.566728,-12.562987,4.020813,-1.626017,0.373274,0.554065
32287,5.521837,-13.186135,3.617329,-0.253130,0.073759,0.632527
32288,5.516814,-11.603795,3.645076,0.814930,-0.159268,0.755993
32289,5.569375,-9.326573,3.472986,1.261235,-0.365911,0.922777
32290,6.079340,-8.271664,3.060479,1.299870,-0.450684,1.048651
32291,6.682573,-7.399140,4.405026,1.226329,-0.360560,1.099976
32292,6.615220,-6.322096,5.379210,0.934568,-0.100449,1.124187
32293,6.583838,-5.147823,6.041594,0.414157,0.198027,1.077646
32294,6.198794,-4.401583,6.488050,-0.325886,0.582249,0.983059
32295,5.710174,-5.029968,5.490319,-1.040115,0.890548,0.882195
32296,4.627989,-7.028717,3.822197,-1.546942,1.075469,0.865260
32297,2.942713,-8.849894,3.166807,-1.721796,1.014132,0.920281
32298,2.015998,-10.326889,3.144124,-1.526168,0.766890,1.020748
32299,2.019804,-11.610325,2.862810,-0.993990,0.404123,1.128954
32300,2.021721,-12.262565,2.060685,-0.292510,-0.039266,1.251101
32301,2.180074,-12.392789,1.898603,0.435985,-0.554725,1.382324
32302,2.983222,-11.589362,2.179033,1.124880,-1.026309,1.474012
32303,3.907661,-10.175072,3.118925,1.701341,-1.293598,1.510574
32304,4.148398,-8.756461,4.698463,2.080149,-1.281445,1.498997
32305,4.098921,-6.396821,6.378957,2.130549,-1.008496,1.432186
32306,3.518071,-4.901037,6.828144,1.724680,-0.595840,1.333417
32307,2.927370,-4.072278,6.775507,1.121364,-0.183831,1.179331
32308,2.796311,-3.118160,7.369259,0.351865,0.223319,1.004985
32309,2.903026,-3.157316,7.611342,-0.524329,0.628779,0.845859
32310,2.560435,-4.726298,7.175882,-1.163787,0.980706,0.671686
32311,2.439575,-6.554650,6.307582,-1.436972,1.227069,0.529381
32312,2.160649,-8.093247,4.421240,-1.447387,1.351110,0.458558
32313,1.150918,-9.781121,1.986123,-1.279803,1.299225,0.493788
32314,0.230487,-11.132706,1.261555,-0.892474,0.974328,0.619755
32315,0.926401,-11.963564,1.997888,-0.289101,0.530221,0.767742
32316,2.458951,-11.803415,2.772437,0.395869,0.121736,0.906173
32317,3.829449,-10.569650,3.282256,0.911909,-0.187828,1.011825
32318,4.266160,-9.371033,2.916652,1.032029,-0.430829,1.132786
32319,3.817304,-8.977837,2.629057,0.957847,-0.673464,1.205136
32320,3.535137,-8.321861,4.123904,0.961982,-0.805885,1.198672
32321,3.233782,-7.625477,5.605951,0.988221,-0.734560,1.186767
32322,2.746103,-7.727318,6.071745,0.976726,-0.533796,1.124947
32323,2.189582,-7.165461,6.533947,0.948690,-0.274400,0.998937
32324,2.063554,-6.226035,7.222867,0.750821,0.051555,0.859886
32325,1.972028,-5.520463,7.603986,0.329463,0.392718,0.711499
32326,1.993305,-5.594784,7.289702,-0.190548,0.740539,0.577996
32327,1.425366,-6.526258,6.501194,-0.720450,1.013740,0.520827
32328,0.403046,-7.848465,5.082671,-1.187186,1.107708,0.540137
32329,-0.709874,-9.537876,3.191537,-1.515638,0.957017,0.671882
32330,-1.710763,-11.501818,2.216783,-1.520000,0.547837,0.877635
32331,-1.575762,-13.119032,2.463852,-1.076704,-0.040384,1.081763
32332,-0.833401,-13.277604,3.160161,-0.387456,-0.616982,1.303599
32333,-0.765106,-11.894261,3.626533,0.200763,-1.105346,1.552572
32334,-0.799641,-11.640322,3.811336,0.624194,-1.523621,1.763828
32335,-0.298480,-11.849292,4.447514,1.124089,-1.823494,1.927188
32336,0.454021,-10.074580,5.927374,1.599935,-1.873076,2.020124
32337,1.094059,-7.921863,7.432037,1.647192,-1.704815,2.098887
32338,1.051926,-6.580367,7.832012,1.383154,-1.344247,2.057080
32339,0.264620,-5.744722,7.941107,1.022955,-0.919894,1.942088
32340,-0.390280,-4.915025,8.321606,0.568444,-0.514655,1.795742
32341,-0.523022,-4.486068,8.513433,0.026768,-0.112145,1.619860
32342,-0.857208,-4.830556,8.166101,-0.525310,0.265553,1.460130
32343,-1.484871,-5.825343,6.962411,-0.961186,0.551368,1.341362
32344,-2.410976,-7.356701,5.037406,-1.288560,0.679415,1.311134
32345,-3.525943,-8.619192,2.798946,-1.561651,0.605732,1.403280
32346,-4.556146,-8.988361,1.210326,-1.836725,0.282329,1.593618
32347,-4.957794,-9.245833,0.185779,-2.082192,-0.209115,1.809844
32348,-5.317625,-10.453963,-0.505034,-2.242050,-0.820469,2.012624
32349,-5.488311,-11.247033,-0.489962,-2.288446,-1.515783,2.225665
32350,-4.921748,-12.193578,0.156292,-2.144795,-2.191387,2.388031
32351,-3.467932,-13.522457,0.763313,-1.625399,-2.710501,2.463841
32352,-2.028189,-13.481177,1.472852,-0.812839,-3.034928,2.506932
32353,-1.225648,-12.188535,2.842728,0.006579,-3.166693,2.543010
32354,-0.255228,-10.694172,4.755789,0.688986,-3.088151,2.545519
32355,0.243072,-9.223944,6.642161,1.260292,-2.773969,2.506645
32356,0.232898,-7.548604,8.542643,1.661942,-2.270404,2.425072
32357,-0.173343,-5.966384,9.702139,1.904060,-1.659011,2.286117
32358,-0.663307,-5.144358,10.191843,1.982906,-1.024080,2.124735
32359,-1.343911,-3.952457,10.303911,1.765102,-0.401155,1.965649
32360,-2.496145,-2.966301,10.138123,1.147308,0.122386,1.841412
32361,-3.475791,-2.107785,9.692772,0.260310,0.521750,1.748776
32362,-3.869206,-3.704547,9.017873,-0.693772,0.779522,1.743570
32363,-4.237293,-6.168315,7.185935,-1.398362,0.918172,1.802927
32364,-5.188382,-9.143008,4.719504,-1.624124,0.842020,1.910264
32365,-6.834753,-12.476296,1.983513,-1.401153,0.533241,2.079762
32366,-8.386933,-15.065586,1.230308,-0.707142,-0.050848,2.202882
32367,-8.060526,-15.929439,2.093508,0.247587,-0.780025,2.366067
32368,-5.584215,-13.787514,3.763469,1.146520,-1.347008,2.567008
32369,-3.440902,-11.239665,4.733856,1.687209,-1.597667,2.757267
32370,-2.656489,-10.062836,4.947885,2.001414,-1.659341,2.916227
32371,-2.312704,-8.999226,5.407466,2.302602,-1.625765,3.002570
32372,-2.072633,-7.696746,5.813139,2.451797,-1.496270,3.067088
32373,-1.727465,-6.411067,6.888166,2.388670,-1.263403,3.025264
32374,-1.607525,-5.508576,7.993573,2.361991,-0.917217,2.874705
32375,-1.283679,-4.033980,9.647418,2.314252,-0.517465,2.702305
32376,-1.102621,-2.302768,10.991072,2.110160,-0.027860,2.506698
32377,-1.538354,-1.141523,10.648537,1.724599,0.534290,2.294795
32378,-3.385468,-1.249412,9.494344,1.229159,1.003316,2.134618
32379,-5.174315,-2.697418,7.678038,0.785967,1.241013,2.032304
32380,-6.441481,-3.802012,6.370121,0.558244,1.278658,1.930603
32381,-6.468183,-4.415834,6.219865,0.470867,1.159774,1.873009
32382,-5.690935,-5.740215,5.983928,0.531830,0.986361,1.902328
32383,-5.394161,-7.064911,5.032137,0.797059,0.765560,2.002700
32384,-5.933326,-7.742032,4.248571,1.195158,0.488949,2.110890
32385,-6.382831,-7.913880,4.513083,1.607412,0.149166,2.195633
32386,-5.545758,-7.169018,4.811139,2.043605,-0.160333,2.239049
32387,-4.251870,-6.078823,5.351753,2.463584,-0.325693,2.234461
32388,-3.453205,-4.722773,6.160595,2.822201,-0.345060,2.175809
32389,-2.976932,-3.362194,7.249650,3.073866,-0.208486,2.083859
32390,-3.019467,-2.211214,8.230081,3.202154,0.009264,1.934760
32391,-2.987792,-1.113977,9.216664,3.289783,0.300749,1.735710
32392,-2.865873,0.150236,9.806752,3.351344,0.654071,1.477857
32393,-2.811317,1.530197,9.894568,3.332132,1.049986,1.185933
32394,-3.210018,3.251636,9.146787,3.064273,1.456915,0.862026
32395,-4.368122,4.653242,7.181503,2.374511,1.745906,0.651502
32396,-5.876773,4.527126,5.154623,1.440256,1.863601,0.529839
32397,-7.107610,3.123131,3.774730,0.573212,1.843988,0.417878
32398,-7.879957,0.896987,2.224598,-0.030601,1.640622,0.397216
32399,-7.986740,-1.565234,1.440637,-0.236709,1.325713,0.408920
32400,-7.887247,-3.812767,0.992885,0.014400,0.980888,0.446892
32401,-7.997600,-4.406349,0.517432,0.510822,0.568341,0.534408
32402,-8.259537,-3.192819,0.964489,0.942720,0.189844,0.625749
32403,-8.119920,-1.927385,1.516460,1.121207,-0.181297,0.703121
32404,-7.343063,-1.370338,2.751673,1.165541,-0.423141,0.764264
32405,-6.590757,-1.042076,4.629612,1.226828,-0.537675,0.774847
32406,-5.798325,-0.518278,6.184614,1.330473,-0.534164,0.753587
32407,-5.595261,0.102537,7.252659,1.375382,-0.388471,0.716078
32408,-5.785879,0.792042,8.083515,1.440613,-0.181819,0.620696
32409,-6.154275,1.409683,8.548053,1.516945,0.119738,0.482063
32410,-6.625189,2.038583,9.098972,1.599506,0.463823,0.280012
32411,-6.809049,2.759771,9.098111,1.528129,0.813982,0.094766
32412,-6.709908,3.511100,8.372249,1.225575,1.126995,-0.063684
32413,-6.703339,3.785500,6.975058,0.631561,1.339962,-0.127214
32414,-6.842803,3.492438,5.910038,-0.051750,1.405008,-0.120115
32415,-6.918384,2.297275,4.815079,-0.664739,1.328655,-0.071391
32416,-7.428924,0.535464,3.963569,-1.028942,1.181693,0.012461
32417,-7.996642,-1.125266,2.913745,-0.976903,0.904144,0.086861
32418,-8.080283,-2.062465,2.399146,-0.560589,0.569404,0.105756
32419,-7.769313,-1.809676,2.673274,-0.059209,0.250207,0.113972
32420,-7.523759,-0.416475,2.702398,0.288935,-0.023010,0.111331
32421,-7.464762,0.974121,3.176264,0.447846,-0.233678,0.069290
32422,-7.132483,1.689762,4.372923,0.467312,-0.383945,-0.019161
32423,-6.437565,2.097771,6.017736,0.542959,-0.432559,-0.159246
32424,-5.550830,2.341132,7.502879,0.727358,-0.334841,-0.355113
32425,-4.967553,2.244873,8.286917,0.953560,-0.047469,-0.588105
32426,-5.303099,2.452290,8.140620,1.078387,0.287015,-0.808433
32427,-6.105974,2.936955,6.627968,0.931684,0.556476,-0.970390
32428,-7.114231,3.350080,5.548782,0.478006,0.718521,-1.073683
32429,-7.499020,3.693235,4.733318,-0.225203,0.755681,-1.136166
32430,-7.348708,2.582578,3.757776,-1.045079,0.730300,-1.137413
32431,-7.463989,-0.042372,2.013285,-1.594159,0.612130,-1.086340
32432,-7.784734,-2.645209,0.716946,-1.640492,0.364316,-1.044690
32433,-7.842572,-3.961711,0.045937,-1.317100,0.009518,-0.989651
32434,-7.573507,-3.678906,-0.010706,-0.950221,-0.387841,-0.910560
32435,-7.065026,-2.316553,1.002112,-0.696055,-0.768823,-0.860096
32436,-6.096399,-0.998018,2.478341,-0.591107,-1.084222,-0.832023
32437,-4.993811,-0.327954,4.178436,-0.573760,-1.284465,-0.861256
32438,-4.309092,0.270308,5.822694,-0.516309,-1.378165,-0.957241
32439,-4.099949,0.569063,6.958915,-0.482767,-1.298297,-1.096720
32440,-4.951041,0.140313,7.475008,-0.473689,-1.071387,-1.282527
32441,-6.363195,0.039955,7.869784,-0.411048,-0.763670,-1.541998
32442,-7.256906,0.066436,8.188772,-0.353805,-0.450076,-1.836493
32443,-7.180474,0.442628,8.207451,-0.387654,-0.109545,-2.135971
32444,-6.703832,0.592517,7.751615,-0.656935,0.256508,-2.354019
32445,-6.601298,-0.315689,6.022324,-1.121937,0.547303,-2.474557
32446,-7.413986,-1.655997,4.092912,-1.634766,0.647216,-2.475105
32447,-8.290793,-3.470273,1.929365,-2.121825,0.520890,-2.393507
32448,-8.905489,-5.629156,0.229286,-2.361542,0.179350,-2.234061
32449,-8.999458,-7.270034,-0.084103,-2.253010,-0.283095,-2.024386
32450,-8.650071,-7.425802,1.013032,-1.881516,-0.810511,-1.822610
32451,-7.834151,-6.398796,2.587731,-1.497691,-1.268210,-1.645222
32452,-7.063639,-5.032057,4.438756,-1.175884,-1.569200,-1.515370
32453,-6.701296,-4.520530,5.824788,-0.903662,-1.722931,-1.418118
32454,-6.427452,-4.400060,7.358149,-0.621455,-1.757118,-1.391463
32455,-5.961418,-3.822727,8.481157,-0.341469,-1.666517,-1.421132
32456,-5.145679,-2.464334,10.006964,-0.066785,-1.439865,-1.524325
32457,-4.357451,-1.512357,11.789162,0.138612,-1.054816,-1.676393
32458,-4.233602,-1.178922,12.947403,0.272774,-0.536431,-1.840655
32459,-4.451666,-0.923845,13.674956,0.381277,0.025786,-2.075759
32460,-4.815023,-0.740261,13.189828,0.358878,0.610315,-2.332386
32461,-5.784851,-1.570177,11.494686,0.146788,1.147607,-2.549029
32462,-6.706394,-2.961882,8.842934,-0.171636,1.550747,-2.719281
32463,-7.422812,-3.923756,6.189191,-0.527030,1.744162,-2.800702
32464,-7.616072,-4.900249,3.205743,-0.948014,1.703504,-2.745579
32465,-7.705371,-6.386257,1.082728,-1.284630,1.406756,-2.563582
32466,-7.409474,-8.181538,0.699678,-1.255999,0.892683,-2.330274
32467,-6.934966,-9.760487,1.192194,-0.844888,0.289228,-2.058136
32468,-6.982201,-9.853384,1.582899,-0.247888,-0.360531,-1.806046
32469,-6.809817,-8.162531,2.317187,0.249537,-0.961010,-1.584231
32470,-6.177052,-6.992512,3.218595,0.444116,-1.440021,-1.433444
32471,-5.508389,-6.327607,4.244440,0.510183,-1.744741,-1.359326
32472,-5.067088,-5.826124,6.071541,0.514813,-1.781429,-1.363956
32473,-5.034177,-4.583697,7.453486,0.452953,-1.648334,-1.437419
32474,-4.880286,-3.439012,8.524052,0.241633,-1.328628,-1.557381
32475,-4.638116,-3.235468,8.904932,0.038704,-0.924476,-1.744557
32476,-4.105712,-3.479374,9.226353,-0.090343,-0.480517,-1.880023
32477,-4.129149,-3.665251,9.394966,-0.186840,-0.037442,-2.030406
32478,-3.981440,-3.396446,9.535131,-0.324235,0.333263,-2.168814
32479,-3.530628,-4.142229,8.901056,-0.521300,0.642408,-2.251206
32480,-3.422128,-5.327425,7.630549,-0.771410,0.894708,-2.269372
32481,-4.401543,-6.017929,5.138502,-1.140565,0.961654,-2.129600
32482,-5.511891,-6.749986,3.576235,-1.429888,0.764245,-1.961880
32483,-5.680211,-8.361272,3.303814,-1.487811,0.394431,-1.820339
32484,-5.229977,-10.285893,3.467315,-1.174921,-0.052917,-1.667676
32485,-4.666520,-11.097429,3.991729,-0.563310,-0.488735,-1.565403
32486,-3.920836,-9.690973,4.654039,0.033075,-0.867865,-1.465078
32487,-3.044256,-8.029764,4.965105,0.269056,-1.116496,-1.414519
32488,-2.293566,-7.668692,5.399607,0.347897,-1.175425,-1.441794
32489,-1.720441,-7.279042,6.417501,0.428030,-1.118006,-1.495088
32490,-0.967695,-6.310880,7.848551,0.405897,-0.907000,-1.579414
32491,-0.323452,-5.485040,9.157131,0.254118,-0.554057,-1.699875
32492,0.260313,-5.157418,10.311384,-0.100562,-0.082460,-1.822884
32493,0.769275,-5.410840,10.629205,-0.552828,0.462662,-1.934915
32494,0.854451,-6.906659,9.691825,-0.894321,1.013219,-2.010829
32495,0.199383,-9.045687,8.285771,-1.036523,1.464884,-2.042200
32496,-0.882424,-10.161910,6.654569,-1.050314,1.708353,-2.029605
32497,-2.179864,-10.152848,4.040884,-1.086776,1.680744,-1.933668
32498,-2.900641,-9.447023,2.529334,-1.119485,1.419797,-1.815643
32499,-3.257460,-8.911922,1.497036,-1.182142,1.040667,-1.674904
32500,-3.452677,-8.577026,0.930155,-1.187760,0.559063,-1.532459
32501,-3.251345,-8.827575,0.796240,-0.908543,0.011358,-1.431140
32502,-2.521007,-10.059097,1.638738,-0.333422,-0.488059,-1.344834
32503,-1.533413,-11.009110,2.946629,0.498579,-0.905820,-1.291577
32504,-0.466964,-10.660908,4.511664,1.341643,-1.133479,-1.283694
32505,0.193194,-9.443656,5.571863,1.940372,-1.130148,-1.319399
32506,0.275544,-7.409945,6.338886,2.126647,-0.988256,-1.376919
32507,0.119666,-4.749786,7.745947,1.811890,-0.711998,-1.456163
32508,0.169859,-2.879704,8.808059,1.025383,-0.319607,-1.558917
32509,0.190693,-2.148657,8.909209,0.018786,0.153114,-1.670533
32510,0.190381,-2.948316,8.508661,-0.997211,0.686029,-1.784996
32511,0.204852,-4.893142,7.859419,-1.750264,1.175356,-1.884474
32512,0.326043,-7.645661,6.503645,-2.030240,1.543991,-1.974503
32513,0.328599,-10.072664,4.941157,-1.954771,1.822524,-2.007900
32514,-0.519453,-11.672474,2.454637,-1.748866,1.780464,-1.922483
32515,-1.540322,-12.367314,1.055087,-1.452241,1.427020,-1.736535
32516,-1.748708,-12.419568,1.332347,-1.099010,0.832849,-1.532764
32517,-1.049806,-12.425087,1.829311,-0.666343,0.189515,-1.305353
32518,-0.196121,-12.195745,2.188353,-0.201312,-0.439947,-1.079068
32519,0.410928,-11.754298,2.387081,0.233522,-0.982833,-0.833607
32520,0.898257,-12.020221,2.891550,0.743878,-1.400125,-0.678740
32521,1.963683,-12.000380,3.852319,1.367645,-1.616129,-0.603413
32522,2.820140,-11.230042,4.963381,1.851632,-1.551444,-0.555942
32523,3.393640,-9.017325,6.453607,2.038928,-1.265430,-0.606315
32524,3.478704,-6.026403,7.745179,1.799648,-0.821198,-0.726247
32525,3.321560,-3.637881,8.432906,1.079238,-0.265979,-0.838440
32526,2.922410,-2.388425,8.826954,0.009763,0.259365,-0.934498
32527,2.257950,-2.960949,8.358465,-1.070052,0.753301,-1.027282
32528,1.903239,-4.645362,7.799493,-1.813359,1.108284,-1.115399
32529,1.875285,-6.589024,6.911866,-2.121044,1.378052,-1.190425
32530,2.129868,-8.419479,6.014187,-2.105836,1.545599,-1.251456
32531,1.745059,-10.186553,4.351632,-1.884948,1.602413,-1.281284
32532,0.717473,-11.242630,2.160119,-1.585301,1.403262,-1.205375
32533,-0.261526,-11.614431,1.534325,-1.197587,0.928332,-1.085806
32534,-0.080079,-11.778901,1.530619,-0.731774,0.304799,-0.935463
32535,0.489348,-11.527199,2.445209,-0.142185,-0.272849,-0.796787
32536,1.199344,-10.649859,3.406095,0.466209,-0.743370,-0.685578
32537,1.935642,-9.775477,3.897449,1.012961,-1.060022,-0.628709
32538,2.546883,-9.113109,4.176341,1.470464,-1.173686,-0.635004
32539,2.951521,-8.347629,4.708952,1.784152,-1.099017,-0.704174
32540,3.267157,-6.720990,5.333785,1.853385,-0.849550,-0.847030
32541,3.628798,-4.961211,6.538715,1.535459,-0.505963,-0.973961
32542,4.069300,-3.332772,7.615437,0.843335,-0.082467,-1.135794
32543,4.554260,-1.957896,8.963686,-0.088821,0.396740,-1.321941
32544,4.767222,-1.796371,9.152025,-1.155680,0.958071,-1.526258
32545,4.836585,-3.198363,8.044795,-2.066027,1.472170,-1.745182
32546,5.120908,-5.752576,5.712453,-2.725171,1.813837,-1.895842
32547,4.349442,-8.823743,2.535395,-3.147860,1.969200,-1.903061
32548,2.536010,-11.209654,1.211335,-3.156804,1.718178,-1.817353
32549,1.839334,-13.161408,0.512573,-2.708962,1.202075,-1.682512
32550,1.822082,-14.529451,0.470182,-1.802257,0.521608,-1.476032
32551,2.437625,-15.181279,0.901993,-0.580169,-0.200530,-1.268381
32552,3.377335,-14.161290,1.365273,0.720140,-0.847883,-1.080749
32553,4.594508,-12.453043,2.097169,1.749667,-1.339596,-0.875768
32554,5.419028,-10.686855,2.837525,2.502949,-1.530446,-0.758149
32555,5.637739,-8.606368,3.459175,2.811600,-1.475015,-0.602506
32556,5.588521,-6.996114,4.344070,2.701543,-1.261591,-0.533620
32557,5.766381,-5.171647,4.590993,2.281108,-0.827538,-0.614815
32558,5.453700,-3.670114,4.507839,1.494020,-0.316451,-0.711116
32559,5.212598,-2.923159,5.096875,0.439288,0.066147,-0.770521
32560,5.022715,-3.947586,4.873855,-0.649101,0.382870,-0.787536
32561,4.492444,-4.666939,5.508076,-1.374699,0.608838,-0.847436
32562,4.353415,-5.319479,6.159100,-1.824830,0.779103,-0.867182
32563,4.254216,-7.469053,4.652819,-1.947331,0.844490,-0.856336
32564,3.479960,-10.811612,2.722258,-1.660618,0.741968,-0.805634
32565,2.341757,-13.322581,1.750963,-0.875551,0.388790,-0.733225
32566,2.085629,-13.262082,2.339920,0.110063,-0.125968,-0.642410
32567,3.091397,-11.008823,3.733350,0.983143,-0.552498,-0.576560
32568,4.513218,-9.326462,4.514040,1.580364,-0.764732,-0.520967
32569,5.415911,-9.007546,4.871853,2.067970,-0.804152,-0.503811
32570,5.368643,-8.443581,4.788474,2.439431,-0.732296,-0.526517
32571,5.391576,-6.773946,4.996610,2.477531,-0.623563,-0.568774
32572,5.621581,-5.048633,5.196324,2.058805,-0.493253,-0.615834
32573,5.838297,-4.148048,5.486525,1.421216,-0.329445,-0.670482
32574,5.774181,-3.635418,5.953718,0.726230,-0.138694,-0.713739
32575,5.533111,-3.073408,6.480859,0.019110,0.077475,-0.796296
32576,5.452071,-3.170384,6.121910,-0.650521,0.283319,-0.873760
32577,6.148524,-4.646620,5.528442,-1.363556,0.405964,-0.813128
32578,5.960005,-8.332025,3.454650,-1.684269,0.407047,-0.772814
32579,5.985384,-12.905917,3.443576,-1.271541,0.275822,-0.584886
32580,6.374663,-14.361164,3.967492,-0.192223,-0.011344,-0.469900
32581,7.499579,-11.378879,4.286391,0.876089,-0.255796,-0.333203
32582,8.737349,-8.152174,4.737738,1.324210,-0.362353,-0.138547
32583,9.760020,-7.207668,4.866442,1.352185,-0.389063,0.043427
32584,10.328040,-6.597282,5.347331,1.333299,-0.288197,0.139176
32585,10.120293,-5.484766,5.320560,1.202561,-0.145972,0.172798
32586,9.360392,-3.250816,5.242983,0.891751,0.062451,0.130804
32587,8.788815,-1.759375,5.493450,0.294041,0.287883,0.046784
32588,8.562949,-1.481519,5.820160,-0.384606,0.580258,-0.098493
32589,8.213451,-1.493548,7.109457,-1.059308,0.786708,-0.159044
32590,8.287864,-2.047748,7.068176,-1.573604,0.991993,-0.234278
32591,7.866225,-2.570047,6.388902,-1.888496,1.165039,-0.322603
32592,7.567152,-3.165057,5.212232,-2.096653,1.282245,-0.438110
32593,7.349726,-3.937494,4.264255,-2.165150,1.370963,-0.555379
32594,7.151751,-4.898573,3.720583,-2.171331,1.390005,-0.633950
32595,6.476376,-6.260951,2.138853,-2.166212,1.340859,-0.611112
32596,4.461314,-8.291794,1.479780,-1.963276,1.128234,-0.458984
32597,3.065316,-10.222517,1.872507,-1.462758,0.707884,-0.251477
32598,2.985135,-12.061044,1.430939,-0.603281,0.210979,-0.039889
32599,3.744473,-12.512782,1.629825,0.536675,-0.331702,0.160157
32600,5.313507,-11.918036,1.826011,1.679282,-0.784302,0.342718
32601,6.371449,-10.495070,1.956600,2.519895,-1.046067,0.492989
32602,6.682795,-8.323599,2.678776,2.961266,-1.208623,0.624335
32603,6.811026,-5.834244,3.926810,2.953040,-1.208676,0.693820
32604,6.684500,-4.100315,5.223001,2.598916,-1.049971,0.643476
32605,6.703121,-3.273524,6.219113,2.053720,-0.791324,0.526977
32606,6.647321,-2.312406,7.295786,1.417859,-0.471764,0.336003
32607,6.763351,-0.892862,8.298012,0.587671,-0.093769,0.114638
32608,6.742633,-0.054674,8.452023,-0.497925,0.303982,-0.098992
32609,6.706020,-0.440582,8.015300,-1.625265,0.667139,-0.304276
32610,6.489277,-1.909199,7.116163,-2.595354,0.950114,-0.454582
32611,6.510887,-3.759620,6.263292,-3.253050,1.124718,-0.555773
32612,6.789401,-5.576137,5.547545,-3.566315,1.221187,-0.621232
32613,6.931794,-7.066209,4.658530,-3.531937,1.253233,-0.651010
32614,6.595994,-8.367328,3.378782,-3.281823,1.223484,-0.622161
32615,5.320197,-9.546532,1.613533,-2.947811,1.046870,-0.471527
32616,3.636454,-10.620124,0.793604,-2.431855,0.670864,-0.269714
32617,2.717908,-11.916820,0.460365,-1.645850,0.126274,-0.051224
32618,2.839437,-12.830044,1.269877,-0.445574,-0.474029,0.124593
32619,3.716248,-12.802387,1.390846,0.963256,-0.979917,0.242925
32620,4.382627,-11.862885,0.676849,2.213745,-1.415279,0.351597
32621,5.254855,-9.926027,1.149474,3.142312,-1.780096,0.415157
32622,6.595120,-6.983758,3.330440,3.642014,-1.906820,0.367773
32623,7.518363,-4.551040,5.225719,3.576851,-1.745013,0.268635
32624,7.783668,-2.757113,6.660689,3.073064,-1.407613,0.074347
32625,7.492610,-1.506858,7.319982,2.240196,-0.942624,-0.179727
32626,6.762895,-0.758381,7.425963,1.176691,-0.480825,-0.474958
32627,6.414270,-0.055122,7.687754,-0.036334,-0.087876,-0.781835
32628,6.607908,-0.295777,7.471526,-1.321465,0.257131,-1.021750
32629,6.890553,-1.749500,6.717031,-2.478999,0.512160,-1.141262
32630,7.062071,-3.880105,5.605247,-3.262540,0.694669,-1.205167
32631,6.582425,-6.982640,3.142229,-3.525560,0.733287,-1.187495
32632,5.583385,-10.192706,1.873440,-3.052812,0.539036,-1.148403
32633,4.621870,-12.311234,1.233041,-1.970230,0.194199,-1.076388
32634,3.291269,-13.081881,1.189394,-0.536876,-0.323007,-0.923987
32635,3.083814,-12.056419,2.056600,0.975370,-0.937103,-0.749094
32636,4.128272,-10.362513,2.538951,2.237721,-1.462177,-0.594757
32637,5.785821,-8.592344,2.505737,3.133015,-1.771776,-0.443995
32638,6.653622,-6.952548,3.412642,3.695077,-1.967421,-0.327830
32639,8.230305,-4.032951,6.814608,3.953921,-1.852918,-0.386946
32640,8.907492,-1.574622,7.931661,3.531874,-1.368599,-0.531204
32641,8.535298,-0.741534,6.777391,2.607638,-0.864886,-0.661659
32642,7.889099,-0.317277,5.441781,1.453440,-0.352163,-0.830474
32643,7.251572,0.122885,4.896048,0.128499,0.057804,-1.062076
32644,7.475354,0.376112,5.030803,-1.278755,0.392039,-1.278183
32645,8.009377,-0.491985,5.147450,-2.657348,0.677202,-1.350922
32646,8.238313,-2.572754,4.431939,-3.701107,0.874097,-1.298778
32647,8.159382,-4.950067,3.380017,-4.250316,0.960620,-1.213716
32648,7.693507,-7.423004,2.011867,-4.316639,0.915765,-1.116059
32649,6.938519,-10.391021,1.222259,-3.546142,0.662163,-1.069721
32650,6.512573,-12.392456,1.140499,-2.123136,0.217823,-1.039786
32651,6.726471,-12.561432,1.383712,-0.376568,-0.290371,-0.991100
32652,7.435523,-11.066657,1.400860,1.244622,-0.704783,-0.888599
32653,7.665377,-9.061344,0.784074,2.393560,-1.025288,-0.744985
32654,7.658247,-7.316607,0.908325,3.103493,-1.307451,-0.619021
32655,8.250847,-5.067588,2.738374,3.352288,-1.416228,-0.574354
32656,8.670283,-2.775090,4.337092,3.099869,-1.247725,-0.599077
32657,8.700001,-0.513306,5.633929,2.457470,-0.885065,-0.723378
32658,8.096482,0.563075,5.218078,1.418209,-0.406693,-0.879317
32659,7.312246,0.774666,4.477520,0.187570,0.007788,-1.078434
32660,6.959065,0.999011,4.212074,-1.184938,0.342135,-1.284141
32661,7.070846,0.679284,4.279833,-2.607174,0.626641,-1.456280
32662,7.599206,-0.909678,3.942404,-3.883036,0.848737,-1.513400
32663,7.948679,-3.767914,2.601295,-4.716365,0.964652,-1.516706
32664,7.416766,-7.577709,0.120504,-4.881484,0.919889,-1.438285
32665,6.221215,-11.248138,-0.765622,-4.103063,0.612522,-1.377905
32666,5.114954,-13.943416,-1.414499,-2.516341,0.090084,-1.352654
32667,4.658372,-14.420597,0.072560,-0.289861,-0.669786,-1.322996
32668,6.328862,-12.449264,1.746888,1.878530,-1.331561,-1.249190
32669,7.861091,-10.627508,1.636084,3.576243,-1.768066,-1.107784
32670,8.690361,-8.675298,1.735208,4.809600,-2.048590,-0.940396
32671,9.482543,-5.051960,4.737906,5.387749,-2.100029,-0.800787
32672,10.320170,-1.158574,6.483547,4.995660,-1.730799,-0.750599
32673,10.325151,0.687921,6.005603,3.841769,-1.221174,-0.795118
32674,9.616946,0.943086,4.145856,2.197718,-0.698630,-0.830105
32675,8.454948,2.221107,3.206687,0.327377,-0.211919,-0.978656
32676,8.191900,3.848552,3.689510,-1.738087,0.183760,-1.215516
32677,8.824142,2.874972,3.957498,-3.804260,0.487885,-1.289952
32678,9.259162,-0.280777,3.477040,-5.302402,0.713054,-1.212012
32679,9.356022,-4.023092,2.450696,-5.988322,0.801017,-1.076310
32680,9.001332,-7.518084,0.575608,-5.700423,0.778577,-0.977056
32681,7.904610,-11.026675,-0.279680,-4.311448,0.518656,-0.979639
32682,6.734942,-12.633544,0.166951,-2.117302,0.072368,-1.000070
32683,6.544075,-12.394991,0.079339,0.337852,-0.499115,-1.034430
32684,7.660592,-10.931083,0.959794,2.613818,-1.000469,-1.014499
32685,8.513583,-8.159352,1.993879,4.214647,-1.221648,-0.952133
32686,8.814591,-3.693560,3.947465,4.826808,-1.300472,-0.819515
32687,9.849391,1.202683,5.984521,4.257389,-1.140101,-0.722091
32688,9.994964,3.919239,5.084615,2.670999,-0.787755,-0.660412
32689,9.210624,2.376244,2.233423,0.848117,-0.530124,-0.681069
32690,8.518582,0.131936,1.108794,-0.440686,-0.257040,-0.893943
32691,8.063229,-0.287848,2.298107,-1.211391,0.025060,-1.241299
32692,7.857203,0.265262,3.522842,-1.896876,0.269846,-1.493986
32693,8.275093,1.101258,4.541638,-2.772390,0.418348,-1.576766
32694,8.705049,0.706583,4.431151,-3.761313,0.531670,-1.557934
32695,8.956392,-0.780139,3.612651,-4.606842,0.582434,-1.539117
32696,8.811436,-2.702906,2.084174,-5.158082,0.603875,-1.525580
32697,8.138586,-6.186917,-0.326028,-5.078904,0.447532,-1.478112
32698,8.405220,-9.974758,0.305937,-4.010592,0.094146,-1.512406
32699,9.838656,-12.033921,2.482788,-2.159161,-0.217886,-1.553826
32700,11.004712,-11.013413,3.403294,-0.179266,-0.467452,-1.518150
32701,11.444423,-7.728403,3.238126,1.416077,-0.635897,-1.378555
32702,11.270272,-3.766737,3.018837,2.304435,-0.677612,-1.177112
32703,10.580651,-0.542512,2.417644,2.512541,-0.667297,-0.980006
32704,10.399319,1.577749,2.677326,2.157416,-0.565951,-0.796976
32705,10.604856,1.911851,2.349600,1.317312,-0.405967,-0.623612
32706,10.671665,0.160691,1.766738,0.372048,-0.250881,-0.411417
32707,10.566953,-2.188102,1.558932,-0.308063,-0.095683,-0.280679
32708,9.867001,-3.141319,1.733463,-0.731732,0.037096,-0.226917
32709,9.432868,-2.330773,2.043331,-1.099211,0.096000,-0.201331
32710,9.686944,-1.228972,2.157282,-1.505485,0.168456,-0.143455
32711,9.902091,-0.969080,2.093302,-1.873670,0.266094,-0.074143
32712,9.527532,-1.779727,1.688954,-2.004342,0.305549,-0.012196
32713,9.015846,-3.141214,1.440527,-1.761554,0.169604,0.022787
32714,8.885193,-4.469170,1.511695,-1.159139,0.008529,0.030287
32715,9.094596,-4.970763,1.635750,-0.376235,-0.145622,0.027794
32716,9.319872,-4.675515,1.499105,0.392391,-0.264158,0.045681
32717,9.500016,-4.106215,1.494267,1.015535,-0.358590,0.095982
32718,9.637184,-3.285544,1.713242,1.456467,-0.424520,0.134473
32719,9.853540,-2.587448,1.848728,1.691039,-0.462769,0.182505
32720,10.095532,-1.844496,2.416031,1.772955,-0.455711,0.231259
32721,10.461514,-0.888638,3.041975,1.680894,-0.391363,0.266093
32722,10.566283,-0.029859,3.006515,1.342708,-0.256976,0.310760
32723,10.244798,0.595163,2.602708,0.814712,-0.125867,0.353094
32724,9.692760,0.602210,2.047790,0.239861,-0.024308,0.359137
32725,9.299492,0.096423,1.723797,-0.309084,0.012438,0.347281
32726,9.191992,-0.619842,1.673461,-0.772785,0.015010,0.333319
32727,9.382708,-1.387835,1.702927,-1.057846,0.010380,0.316869
32728,9.694159,-1.981391,1.671621,-1.193177,0.001319,0.314843
32729,9.839059,-2.201687,1.741209,-1.223313,0.009164,0.330617
32730,9.837280,-2.104776,1.760095,-1.210673,0.015033,0.354231
32731,9.864001,-2.048051,1.796968,-1.188950,0.017085,0.380947
32732,9.958325,-2.087758,1.707096,-1.146055,0.010825,0.419081
32733,9.852416,-2.154449,1.606626,-1.064653,0.021510,0.454549
32734,9.652352,-2.286562,1.602063,-0.908644,0.009811,0.480765
32735,9.488837,-2.559354,1.646681,-0.698134,-0.018190,0.489132
32736,9.490593,-2.812328,1.659868,-0.430789,-0.058685,0.499392
32737,9.554753,-3.007346,1.703412,-0.140576,-0.071254,0.494004
32738,9.539637,-2.986049,1.813283,0.167160,-0.066314,0.456613
32739,9.522223,-2.780730,1.815470,0.419758,-0.062852,0.416670
