// Start Time: Unknown
// Update Rate: 100.0Hz
// Filter Profile: human (46.1)
// Firmware Version: 4.3.5
PacketCounter,Acc_X,Acc_Y,Acc_Z,Gyr_X,Gyr_Y,Gyr_Z
19150,9.339136,-2.884678,1.598533,0.047167,-0.011109,-0.027276
19151,9.356983,-2.873603,1.560454,0.040886,-0.015503,-0.034808
19152,9.374090,-2.850643,1.602460,0.031917,-0.007022,-0.035264
19153,9.363920,-2.900235,1.602877,0.027038,-0.006857,-0.036106
19154,9.394330,-2.913874,1.628131,0.027762,-0.007431,-0.031334
19155,9.453990,-2.944939,1.678617,0.035987,-0.007604,-0.029437
19156,9.453220,-2.963441,1.690296,0.060927,-0.000592,-0.025477
19157,9.422923,-2.964768,1.677961,0.074458,0.003899,-0.022299
19158,9.339356,-2.932082,1.727815,0.093587,0.005624,-0.022569
19159,9.259009,-2.855185,1.757012,0.096742,0.014014,-0.026544
19160,9.297820,-2.724587,1.802268,0.088276,0.021066,-0.033128
19161,9.354863,-2.564554,1.798790,0.048608,0.035173,-0.039509
19162,9.439256,-2.444002,1.831624,-0.029305,0.062260,-0.042751
19163,9.388040,-2.496916,1.882041,-0.105976,0.087343,-0.047344
19164,9.395308,-2.484969,1.909052,-0.167347,0.113507,-0.056206
19165,9.404495,-2.497174,1.776977,-0.240594,0.145706,-0.062963
19166,9.376460,-2.569124,1.743246,-0.317959,0.179448,-0.056729
19167,9.362350,-2.890913,1.760070,-0.372086,0.205069,-0.050734
19168,9.355635,-3.204760,1.796476,-0.386756,0.217788,-0.040101
19169,9.414440,-3.430636,1.627921,-0.355041,0.217494,-0.030610
19170,9.261682,-3.976377,1.198214,-0.239993,0.179720,-0.006789
19171,9.072386,-5.112211,0.590013,0.038205,0.079199,0.027824
19172,8.800325,-6.424401,0.012992,0.558681,-0.084002,0.093066
19173,8.855989,-6.997112,0.820610,1.295826,-0.303213,0.165079
19174,9.612174,-6.352912,1.994628,2.042108,-0.447511,0.239302
19175,10.193287,-4.917833,2.349169,2.548043,-0.460042,0.318149
19176,10.061351,-3.121338,2.067650,2.702517,-0.438071,0.420316
19177,9.895292,-1.236626,2.599640,2.471156,-0.392167,0.513903
19178,10.024159,0.755632,3.986641,1.832706,-0.251983,0.592438
19179,10.276969,1.888250,4.324108,0.759924,0.023238,0.623409
19180,10.177060,1.627237,3.656080,-0.507881,0.358469,0.666527
19181,10.288707,0.465313,3.508896,-1.698076,0.697237,0.693706
19182,10.163058,-1.363020,2.613896,-2.763654,1.042005,0.750609
19183,9.366027,-3.308218,1.883189,-3.493749,1.275978,0.829506
19184,8.724176,-5.259083,1.649060,-3.730008,1.353497,0.892317
19185,8.565619,-7.089413,2.178132,-3.554718,1.326676,0.969430
19186,8.862176,-8.054962,3.219680,-3.068744,1.277901,1.015558
19187,8.285128,-8.378696,2.034359,-2.440994,1.165969,1.089997
19188,7.347575,-9.136476,1.441535,-1.534933,0.829419,1.154139
19189,6.992137,-9.695177,0.623968,-0.419879,0.451995,1.162075
19190,6.604182,-10.401781,0.211631,0.875357,0.011390,1.134535
19191,7.677565,-10.147863,1.421363,2.148454,-0.379531,1.119044
19192,9.043712,-8.239985,2.116204,3.058018,-0.520173,1.108529
19193,9.290379,-5.685546,1.902790,3.358047,-0.517905,1.146938
19194,8.963123,-3.376132,2.611224,3.182655,-0.486947,1.155992
19195,9.215706,-1.470065,4.365320,2.617093,-0.324270,1.122620
19196,9.441124,-0.393094,4.324423,1.679380,0.024045,1.063924
19197,9.161863,-0.580623,3.293349,0.612234,0.373259,0.972370
19198,9.318316,-1.415157,2.504267,-0.341145,0.722470,0.859765
19199,9.203728,-2.264568,1.354407,-1.123079,1.046783,0.777233
19200,8.745914,-2.905790,1.254903,-1.719335,1.275604,0.709506
19201,8.699835,-3.136622,1.813906,-2.255330,1.440445,0.685967
19202,8.780831,-3.450356,2.082126,-2.815594,1.590973,0.746919
19203,8.068386,-4.618339,0.532933,-3.335309,1.639869,0.870613
19204,6.148700,-7.310752,-1.046288,-3.228731,1.376853,0.983020
19205,5.098296,-10.580325,-0.010787,-2.234085,0.837125,1.018410
19206,5.641283,-13.111750,0.383276,-0.600753,0.183131,1.062346
19207,6.816361,-13.047211,0.134396,1.132605,-0.353327,1.130515
19208,7.817972,-10.644137,0.711304,2.513825,-0.703129,1.205351
19209,8.290548,-7.125412,1.797203,3.153300,-0.830256,1.265414
19210,8.208116,-4.085405,2.565135,3.024999,-0.797881,1.301183
19211,7.993740,-1.811806,3.313979,2.398786,-0.681207,1.253660
19212,7.676787,-1.277156,3.714498,1.454238,-0.397734,1.172640
19213,6.909822,-2.769587,2.956574,0.582287,-0.053401,1.056432
19214,6.703205,-4.648026,2.599398,0.052553,0.239932,0.911761
19215,6.917667,-5.143020,2.563744,-0.286740,0.560937,0.775804
19216,6.671817,-4.417434,2.963151,-0.695489,0.826995,0.678763
19217,6.669709,-3.872382,4.034188,-1.265041,1.013058,0.624496
19218,6.825065,-4.511219,3.995507,-1.840212,1.150669,0.591163
19219,6.223264,-6.325252,2.067144,-2.209937,1.116453,0.613625
19220,4.969079,-8.848327,0.839051,-2.036059,0.807009,0.656623
19221,4.312656,-11.568662,0.624940,-1.182599,0.274110,0.680797
19222,4.947415,-13.525778,0.745048,0.230260,-0.365657,0.694014
19223,6.881414,-13.015275,1.840932,1.794039,-0.877497,0.721866
19224,8.418866,-10.200454,2.049096,2.985738,-1.145067,0.779062
19225,8.602610,-6.503637,2.075829,3.483654,-1.245291,0.857694
19226,8.365106,-3.548443,2.815843,3.385402,-1.228772,0.889637
19227,8.643288,-1.997091,4.223885,2.926281,-1.015698,0.858260
19228,8.889869,-1.891959,5.008628,2.207156,-0.591089,0.782456
19229,8.504459,-2.510469,4.442604,1.383310,-0.127802,0.715459
19230,7.749215,-2.787063,4.408517,0.554032,0.261316,0.641428
19231,7.120663,-2.544313,4.436047,-0.341960,0.580072,0.550341
19232,6.618061,-2.588612,4.443775,-1.315694,0.787694,0.502127
19233,6.428158,-3.324568,4.211879,-2.204721,0.910204,0.480040
19234,6.647334,-5.144039,4.047310,-2.747233,0.959055,0.481011
19235,6.242810,-7.789216,1.794033,-2.753716,0.926658,0.461289
19236,4.697849,-10.720676,-0.176351,-2.060596,0.605084,0.446182
19237,3.863483,-12.858017,-0.544734,-0.773274,0.062659,0.400856
19238,4.299048,-13.167556,0.119247,0.751981,-0.524349,0.365459
19239,5.851249,-11.635372,1.376191,2.068301,-0.955770,0.376998
19240,6.856555,-9.179683,2.206262,2.881056,-1.162200,0.442783
19241,7.143691,-6.541394,3.678066,3.139010,-1.178826,0.499329
19242,7.216428,-4.303562,4.381748,2.936435,-1.034895,0.482360
19243,7.230025,-2.716995,4.208557,2.398768,-0.763253,0.438691
19244,7.024097,-2.025587,3.910074,1.550640,-0.394515,0.393118
19245,6.931054,-2.355023,3.964956,0.568068,0.013761,0.341644
19246,6.902716,-2.903388,3.810036,-0.429534,0.423165,0.267255
19247,6.532592,-3.503228,3.633873,-1.396697,0.776691,0.210446
19248,6.163224,-4.126689,4.157875,-2.240494,1.034394,0.181503
19249,6.193743,-5.225715,4.380950,-2.878791,1.212067,0.169898
19250,5.613097,-7.310883,2.216926,-3.178244,1.226726,0.200065
19251,4.109517,-10.194454,0.345166,-2.824190,0.939841,0.235087
19252,3.163924,-12.950094,-0.272801,-1.778468,0.407774,0.251927
19253,3.202515,-14.903668,0.060693,-0.209791,-0.262421,0.265051
19254,4.502911,-14.900563,0.797163,1.511253,-0.879139,0.339297
19255,6.297974,-12.712622,2.174789,2.998704,-1.278837,0.429195
19256,7.147270,-9.135564,3.627678,3.771457,-1.360032,0.536338
19257,7.400577,-5.996315,5.151394,3.764442,-1.259267,0.621466
19258,7.260927,-3.809787,6.284528,3.144179,-0.948556,0.673723
19259,6.170459,-2.608575,5.801989,2.151792,-0.581097,0.625926
19260,5.288161,-2.812184,4.355579,1.163525,-0.292446,0.512583
19261,5.234500,-3.903420,4.212157,0.388950,-0.001937,0.369581
19262,5.801450,-4.443671,4.636794,-0.230385,0.339846,0.238974
19263,5.975722,-4.227122,4.601383,-0.918458,0.705859,0.166021
19264,5.795209,-4.359957,5.007990,-1.704573,1.006902,0.152396
19265,6.009597,-5.321257,5.444757,-2.433017,1.217624,0.155435
19266,6.243145,-7.158357,4.410245,-2.877085,1.337654,0.154002
19267,4.884843,-9.569584,0.410423,-3.007758,1.228545,0.287114
19268,2.484812,-12.624764,-1.154254,-2.348910,0.744057,0.377180
19269,1.704316,-15.782418,-0.011821,-0.874829,-0.022692,0.431544
19270,2.960238,-17.436882,0.496469,1.114790,-0.841416,0.516554
19271,5.426611,-15.284998,0.482202,3.091369,-1.451524,0.643280
19272,6.449967,-10.899109,0.876967,4.304432,-1.740841,0.784674
19273,7.069614,-6.365949,3.081047,4.728490,-1.829134,0.856750
19274,7.401212,-3.569663,5.467690,4.382774,-1.623367,0.845099
19275,7.651115,-2.568253,6.165453,3.592952,-1.211732,0.767988
19276,7.338239,-2.166294,5.336809,2.607794,-0.710015,0.660193
19277,6.726744,-1.208633,5.518235,1.507983,-0.213951,0.506766
19278,6.421038,-0.041547,6.846880,0.235746,0.279937,0.287196
19279,6.364537,0.149417,6.950871,-1.209082,0.766472,0.132138
19280,6.062436,-1.136645,6.506942,-2.604829,1.143671,0.094203
19281,5.998495,-3.853905,5.369072,-3.590527,1.377622,0.087665
19282,5.094323,-7.946370,2.943839,-3.890193,1.409473,0.125953
19283,3.725568,-11.984810,1.483952,-3.283428,1.160943,0.141474
19284,2.476371,-14.659972,0.416902,-1.946891,0.659016,0.170790
19285,2.020014,-15.197317,0.825911,-0.182300,0.003737,0.207578
19286,3.094534,-13.999342,1.325189,1.454891,-0.624137,0.289092
19287,4.815161,-11.020050,2.409059,2.699290,-0.988509,0.353313
19288,5.774696,-8.094060,3.571803,3.306520,-1.096892,0.395099
19289,6.000512,-5.672923,3.826539,3.303415,-1.014761,0.423906
19290,5.868956,-3.879347,4.217960,2.813644,-0.840121,0.424098
19291,6.005760,-3.033083,4.828280,1.996751,-0.582219,0.370477
19292,6.134770,-3.130080,5.578349,1.116099,-0.252001,0.274505
19293,5.810274,-3.377487,6.127245,0.319502,0.101796,0.145078
19294,5.011194,-4.094533,5.579282,-0.365528,0.358363,0.075448
19295,4.001085,-5.573811,4.517848,-0.855249,0.444505,0.020952
19296,3.262392,-7.424530,3.509875,-0.975332,0.375607,-0.029191
19297,3.219005,-9.206442,2.968065,-0.707250,0.159700,-0.033062
19298,3.826387,-10.001238,2.749964,-0.141014,-0.114935,-0.030120
19299,4.503369,-9.806969,2.058150,0.511440,-0.377800,-0.000807
19300,4.034502,-10.037671,1.070618,1.175554,-0.626534,0.041058
19301,2.929881,-11.294377,1.676395,2.035809,-0.924206,0.022050
19302,3.324531,-12.196602,2.408943,3.271159,-1.284547,-0.051177
19303,4.798738,-10.391043,3.159508,4.505315,-1.539637,-0.074541
19304,6.790283,-5.522170,5.069152,5.091705,-1.624894,-0.037752
19305,8.529050,-0.659555,7.462431,4.604645,-1.383175,0.015363
19306,9.236031,2.183023,8.573378,3.313516,-0.926716,0.033139
19307,8.670480,2.391141,7.655329,1.688490,-0.424687,0.035439
19308,7.554633,1.776384,6.699433,0.153897,-0.006168,-0.014235
19309,7.205974,-0.849724,6.002221,-1.023823,0.296860,-0.054290
19310,7.244463,-4.703556,5.553512,-1.452747,0.479366,-0.091914
19311,7.118784,-7.044997,5.274583,-1.269651,0.540127,-0.081431
19312,6.698568,-7.136845,5.285613,-0.854735,0.481652,-0.035537
19313,6.742693,-6.090508,5.790436,-0.547857,0.371511,0.040171
19314,7.150503,-5.698419,5.283874,-0.383660,0.279564,0.129244
19315,7.427919,-5.823269,4.722484,-0.317352,0.165708,0.223789
19316,7.282489,-5.076083,5.271445,-0.426871,0.192160,0.278828
19317,6.818904,-5.290529,4.461605,-0.496598,0.134568,0.231064
19318,6.993543,-5.552085,4.588648,-0.419779,0.163675,0.179037
19319,7.466144,-5.739188,5.561485,-0.290031,0.194853,0.116987
19320,8.045410,-5.324477,6.390756,-0.293438,0.348397,0.076171
19321,8.212797,-4.012204,6.409492,-0.578120,0.566926,0.003719
19322,8.202970,-2.849283,6.135069,-1.147594,0.794613,-0.054265
19323,8.125190,-3.375431,4.870963,-1.827807,0.983406,-0.073533
19324,7.513912,-5.309212,3.775741,-2.326529,1.103502,-0.064633
19325,6.134026,-8.108156,2.735671,-2.496443,1.087054,0.024527
19326,4.841641,-10.564693,3.256207,-2.182956,0.859414,0.128735
19327,4.565652,-12.242424,3.690414,-1.464447,0.527705,0.259994
19328,5.088695,-12.906015,3.830507,-0.521184,0.154665,0.414745
19329,5.897208,-12.511714,3.817043,0.432749,-0.196678,0.578492
19330,6.460463,-11.447067,4.014859,1.187915,-0.467734,0.756705
19331,6.739535,-9.629935,4.573609,1.655849,-0.652878,0.916387
19332,6.943672,-7.704754,5.369147,1.805700,-0.684970,1.024904
19333,7.026071,-6.113089,6.057079,1.652887,-0.605794,1.091297
19334,6.938638,-4.819594,6.714531,1.270879,-0.382913,1.081947
19335,6.447908,-4.104254,6.815290,0.719765,-0.080165,1.003508
19336,5.749647,-3.947380,6.580613,0.148626,0.219258,0.888756
19337,5.347940,-4.114127,6.342740,-0.349495,0.479740,0.768954
19338,5.174114,-4.513750,6.325359,-0.773750,0.695457,0.674379
19339,5.360501,-5.173782,6.439671,-1.120508,0.877306,0.603051
19340,5.721130,-6.932417,5.640476,-1.400591,1.014340,0.592570
19341,4.749297,-8.703777,4.339471,-1.466945,1.030425,0.665878
19342,3.496643,-10.240713,4.022446,-1.215689,0.824203,0.732062
19343,2.934177,-11.839188,3.877104,-0.634268,0.470277,0.819086
19344,3.005194,-12.818305,3.762199,0.213271,0.041454,0.929965
19345,3.598822,-12.541360,3.513883,1.084765,-0.374688,1.068559
19346,4.499370,-10.789637,3.984460,1.720584,-0.691940,1.199891
19347,5.155943,-8.782070,4.913613,1.952377,-0.814373,1.295295
19348,5.524641,-7.360509,5.775300,1.834523,-0.747492,1.343775
19349,5.506441,-6.478970,6.087981,1.479872,-0.544927,1.368613
19350,5.345310,-6.084093,6.511127,1.059263,-0.265228,1.322026
19351,5.098430,-5.623600,7.175141,0.631068,0.039646,1.240859
19352,5.043317,-5.156782,7.792023,0.177135,0.379093,1.147992
19353,4.959164,-5.346091,7.807634,-0.284195,0.733859,1.052950
19354,4.685431,-6.030786,7.454051,-0.669519,1.045704,0.965217
19355,4.348222,-6.782774,6.675833,-0.982849,1.282488,0.914547
19356,3.841132,-7.765341,5.189783,-1.225053,1.426998,0.929194
19357,2.349809,-8.782022,4.086906,-1.338831,1.420401,0.994511
19358,1.081751,-10.188750,3.744373,-1.247902,1.205487,1.105957
19359,0.403046,-11.490298,4.066468,-0.936974,0.855455,1.220360
19360,0.268556,-11.963399,4.196406,-0.419286,0.430115,1.326381
19361,0.656913,-11.663795,4.302339,0.160160,0.021208,1.425177
19362,1.103899,-11.031423,4.626366,0.638082,-0.290354,1.516604
19363,1.562736,-9.943144,4.946820,0.933595,-0.470809,1.591358
19364,1.825971,-8.521536,5.805646,1.036615,-0.506581,1.629784
19365,1.830250,-7.165029,6.380175,0.912413,-0.397766,1.608324
19366,1.642885,-6.723446,6.570704,0.686817,-0.210565,1.548591
19367,1.621311,-6.720358,7.067274,0.486994,0.028110,1.438031
19368,1.898302,-6.210270,7.681683,0.352123,0.302587,1.296012
19369,2.030900,-5.453997,8.304747,0.167169,0.659250,1.139593
19370,1.901337,-5.774083,8.331658,-0.095858,1.017368,1.008816
19371,1.541897,-6.142473,7.565981,-0.381582,1.334021,0.913323
19372,0.806682,-6.575377,6.286126,-0.685927,1.532088,0.885830
19373,-0.540147,-7.054238,4.899270,-0.948382,1.600972,0.884724
19374,-1.794472,-7.864392,4.054134,-1.096976,1.464560,0.939773
19375,-2.453017,-8.825998,4.225183,-1.063794,1.186993,1.004624
19376,-2.311275,-9.628902,4.712536,-0.862525,0.846370,1.085730
19377,-2.200786,-10.122783,4.054190,-0.499150,0.481475,1.159365
19378,-2.481915,-10.220783,3.696677,-0.061342,0.088628,1.258815
19379,-2.211731,-10.387884,3.740228,0.388509,-0.310064,1.365808
19380,-1.568761,-9.802029,4.185396,0.845594,-0.590001,1.444121
19381,-1.093020,-8.591530,5.156819,1.171787,-0.701115,1.485506
19382,-0.761728,-7.337475,6.355382,1.288923,-0.656427,1.464559
19383,-0.431252,-6.360055,7.431953,1.192895,-0.475659,1.404200
19384,-0.223431,-5.503808,8.146604,0.954469,-0.185321,1.299115
19385,-0.154552,-5.420130,8.485198,0.645624,0.153152,1.184273
19386,-0.108261,-5.588861,8.702160,0.331653,0.505437,1.091823
19387,-0.054748,-6.187703,8.510374,0.069104,0.846278,1.002480
19388,-0.277127,-6.944321,7.781993,-0.119742,1.155293,0.965260
19389,-1.111303,-7.676798,6.623928,-0.223545,1.383782,0.949823
19390,-1.910024,-8.399562,5.534014,-0.288063,1.445339,0.985245
19391,-2.683453,-8.685117,4.801223,-0.355512,1.368487,1.078568
19392,-3.120964,-8.937149,4.622829,-0.419695,1.168811,1.230767
19393,-3.371994,-9.684885,4.110811,-0.402153,0.874366,1.407994
19394,-3.722101,-10.100234,3.817942,-0.231138,0.513614,1.590243
19395,-3.668207,-10.323911,3.862037,0.041981,0.133318,1.774534
19396,-3.298515,-9.957654,4.095137,0.354539,-0.187017,1.932693
19397,-2.919322,-8.908872,4.976805,0.608671,-0.396208,2.059834
19398,-2.672943,-7.731127,5.987727,0.756721,-0.444174,2.124371
19399,-2.569010,-6.992817,6.970892,0.802618,-0.339883,2.119500
19400,-2.557522,-6.662254,7.528479,0.753173,-0.140293,2.109197
19401,-2.681690,-6.170092,8.025412,0.693067,0.147389,2.051835
19402,-2.919555,-5.282611,8.342562,0.647853,0.477696,1.961592
19403,-3.294054,-4.787868,8.859961,0.556448,0.833869,1.874521
19404,-3.481170,-5.095424,8.625900,0.428400,1.158196,1.815176
19405,-3.666198,-5.000512,7.771616,0.325898,1.446671,1.765313
19406,-4.429920,-5.324156,6.601680,0.228568,1.641702,1.768657
19407,-5.568400,-5.837277,5.615805,0.133047,1.720298,1.790027
19408,-6.542341,-6.290742,5.060420,0.063449,1.648496,1.853200
19409,-7.046113,-6.495719,4.710708,0.064218,1.469019,1.928994
19410,-7.070746,-6.566114,4.272065,0.093564,1.239797,2.030612
19411,-6.859118,-6.641366,3.882468,0.119269,0.991684,2.154461
19412,-6.663297,-7.031128,3.419302,0.185232,0.707692,2.284536
19413,-6.470194,-6.991122,3.283516,0.339105,0.440913,2.385105
19414,-6.279914,-6.241245,3.647468,0.473210,0.204983,2.463047
19415,-5.980682,-5.503545,4.499472,0.541073,0.033387,2.510893
19416,-5.472515,-4.856497,5.516554,0.591337,-0.029527,2.502012
19417,-5.061399,-4.459331,6.283746,0.647393,0.006114,2.462538
19418,-5.032461,-3.750128,6.910965,0.697704,0.124179,2.388414
19419,-5.126411,-2.956225,7.191059,0.687941,0.275123,2.280404
19420,-5.224564,-2.363088,7.214534,0.625555,0.461258,2.156104
19421,-5.265643,-1.986371,7.163447,0.556054,0.660426,2.024153
19422,-5.307631,-2.160748,7.201044,0.495683,0.876551,1.906407
19423,-5.661397,-2.483634,6.809930,0.495472,1.084476,1.793609
19424,-6.171487,-3.185364,6.176308,0.529858,1.254980,1.690999
19425,-6.775974,-3.659163,5.261072,0.592173,1.363618,1.620858
19426,-7.438908,-3.527992,4.364922,0.608492,1.372132,1.581071
19427,-7.983742,-3.022450,3.675250,0.503357,1.295448,1.580108
19428,-8.196212,-2.980687,3.211476,0.279632,1.137411,1.618513
19429,-8.137095,-3.053389,2.589587,0.026585,0.920914,1.698383
19430,-8.434704,-3.265934,1.595709,-0.196309,0.676993,1.791911
19431,-9.166568,-3.743176,0.999412,-0.326548,0.409588,1.876348
19432,-9.881515,-4.287869,0.783008,-0.323291,0.096653,1.914711
19433,-9.730574,-4.255432,1.234254,-0.213459,-0.242529,1.925413
19434,-8.654023,-3.631397,2.125738,-0.078394,-0.516692,1.924715
19435,-7.292580,-2.640425,3.151992,0.037444,-0.651756,1.907338
19436,-6.382880,-1.813367,4.074754,0.100569,-0.682916,1.869054
19437,-5.694229,-1.225895,5.090535,0.124199,-0.624910,1.806137
19438,-5.079133,-1.086084,6.175904,0.184661,-0.506815,1.715871
19439,-4.519829,-0.884179,7.379222,0.345899,-0.319526,1.576203
19440,-4.079267,-0.289020,8.190117,0.503711,-0.066741,1.423002
19441,-4.048075,0.561994,8.932644,0.591007,0.229081,1.244238
19442,-4.028912,1.112316,9.233451,0.582963,0.554169,1.040116
19443,-4.451500,1.395195,9.146894,0.516262,0.901499,0.799671
19444,-5.277054,1.428315,8.757709,0.377248,1.249459,0.564441
19445,-6.261483,1.118493,7.473506,0.219722,1.515795,0.354718
19446,-7.060664,0.860874,5.941930,0.022289,1.671095,0.201965
19447,-7.643765,0.505572,4.435751,-0.260884,1.668166,0.132347
19448,-8.002855,-0.204745,3.142058,-0.556853,1.547959,0.118650
19449,-8.447588,-1.243309,1.705573,-0.778956,1.288624,0.187057
19450,-9.324303,-2.518162,0.744761,-0.798032,0.957856,0.290672
19451,-10.055692,-3.372994,0.189644,-0.634763,0.534964,0.383265
19452,-10.552370,-3.568306,0.190360,-0.402680,0.095567,0.447520
19453,-10.478287,-3.191653,0.674592,-0.212639,-0.337754,0.475852
19454,-9.690929,-2.423964,1.513370,-0.143703,-0.683407,0.482234
19455,-8.572921,-1.549230,3.060945,-0.132939,-0.910780,0.479156
19456,-7.581082,-1.065439,4.504064,-0.126406,-0.993226,0.449934
19457,-6.885382,-0.634575,5.740120,-0.074282,-0.954803,0.393498
19458,-6.391384,-0.322792,6.786824,0.003450,-0.830397,0.330312
19459,-5.999687,-0.048803,7.707536,0.109788,-0.624542,0.247209
19460,-5.823788,0.443410,8.285003,0.194253,-0.359880,0.131165
19461,-5.875540,0.845099,8.369167,0.221589,-0.029795,0.000235
19462,-6.478520,0.742986,8.044424,0.174652,0.317562,-0.128306
19463,-7.062289,0.853619,7.189690,0.097674,0.620346,-0.269532
19464,-7.421889,0.742250,5.526337,-0.086977,0.805859,-0.365175
19465,-7.848390,0.286767,3.541728,-0.329609,0.865130,-0.400893
19466,-8.403333,-0.529948,2.231821,-0.521356,0.770001,-0.400025
19467,-9.013420,-1.400827,1.302772,-0.601794,0.542295,-0.366880
19468,-9.327797,-2.141346,0.852914,-0.580025,0.215889,-0.309647
19469,-9.179695,-2.082948,0.776208,-0.492386,-0.147911,-0.280526
19470,-8.825524,-1.819916,1.081686,-0.415640,-0.480813,-0.268687
19471,-8.265956,-1.025530,1.695530,-0.385157,-0.766829,-0.324498
19472,-7.467425,-0.295433,2.875968,-0.432981,-0.943725,-0.408799
19473,-6.762539,0.377391,4.074074,-0.486315,-1.017239,-0.533806
19474,-5.995606,0.473921,5.125158,-0.521308,-0.987033,-0.686966
19475,-5.487009,0.374645,5.984952,-0.474175,-0.879670,-0.869310
19476,-5.070992,0.339154,6.738364,-0.377984,-0.710540,-1.089065
19477,-4.947032,0.400742,7.314679,-0.261703,-0.505285,-1.318273
19478,-5.035269,0.727784,7.625038,-0.169939,-0.280466,-1.571765
19479,-5.357259,0.816890,7.115690,-0.173242,-0.055371,-1.804753
19480,-5.989766,0.794758,6.454322,-0.269951,0.151626,-2.033956
19481,-6.698685,0.361712,5.424073,-0.496364,0.274762,-2.209491
19482,-7.139666,-0.505213,4.394055,-0.744870,0.304653,-2.365758
19483,-7.207246,-1.864823,3.632621,-0.923308,0.267505,-2.492846
19484,-7.550987,-3.302761,2.754975,-0.979413,0.176315,-2.570793
19485,-8.533323,-4.335890,1.912047,-0.967529,0.054406,-2.630007
19486,-9.838927,-5.272015,1.022316,-0.932519,-0.137887,-2.657658
19487,-10.707242,-5.988019,0.444758,-0.887675,-0.426594,-2.662527
19488,-10.655877,-6.218569,0.215275,-0.855545,-0.787761,-2.598184
19489,-9.854779,-6.253898,0.829540,-0.835017,-1.135032,-2.469699
19490,-8.605689,-6.106336,2.468547,-0.727464,-1.431940,-2.319713
19491,-7.156541,-6.142127,5.110135,-0.508485,-1.559383,-2.155768
19492,-6.100351,-5.883099,7.130459,-0.256385,-1.533716,-1.985037
19493,-5.586150,-5.543040,8.299269,-0.093488,-1.348621,-1.839807
19494,-5.520198,-5.155368,8.917418,-0.016014,-1.085025,-1.739404
19495,-5.420433,-4.375704,9.289838,-0.046602,-0.776790,-1.683450
19496,-5.222417,-3.789446,9.701652,-0.202807,-0.413644,-1.665022
19497,-4.992411,-4.154740,9.427824,-0.411194,-0.010740,-1.659609
19498,-5.198263,-4.892183,8.848240,-0.522802,0.363799,-1.658311
19499,-5.656404,-5.156326,7.642548,-0.620872,0.650332,-1.639855
19500,-6.498940,-5.659684,5.925136,-0.751557,0.825071,-1.595010
19501,-7.801981,-6.492480,4.453802,-0.839584,0.852490,-1.557452
19502,-8.871849,-7.487453,3.061656,-0.793760,0.710823,-1.525162
19503,-8.879818,-8.059908,2.452727,-0.609544,0.388384,-1.471130
19504,-7.956199,-7.868852,2.086049,-0.476943,0.000702,-1.402692
19505,-6.873729,-7.380222,1.891901,-0.447529,-0.440791,-1.308546
19506,-6.053207,-7.087132,2.100022,-0.406173,-0.847072,-1.208979
19507,-5.533629,-6.965788,2.953641,-0.300971,-1.201674,-1.118206
19508,-4.865694,-6.973755,4.590149,-0.107164,-1.460483,-1.060022
19509,-3.792105,-6.839763,6.901272,0.197481,-1.549276,-1.047993
19510,-3.000522,-6.333878,8.733968,0.518288,-1.404146,-1.075577
19511,-2.853183,-5.482390,9.777445,0.734539,-1.084939,-1.144920
19512,-3.118069,-4.439477,10.137338,0.747465,-0.657092,-1.234951
19513,-3.338085,-4.132487,10.332692,0.632879,-0.140478,-1.361984
19514,-4.108080,-4.367211,9.695366,0.439808,0.336783,-1.491570
19515,-4.737760,-5.089471,8.619695,0.198689,0.729198,-1.552871
19516,-4.910699,-5.491113,7.959770,-0.048848,1.016176,-1.611298
19517,-5.137728,-5.882452,6.416041,-0.382292,1.178006,-1.560502
19518,-5.582585,-6.930415,4.828865,-0.622174,1.159943,-1.466934
19519,-6.175914,-8.552225,3.754334,-0.703375,0.984707,-1.333528
19520,-6.766211,-9.781209,2.610030,-0.503317,0.664962,-1.212463
19521,-6.872273,-9.710845,1.949904,-0.139341,0.269600,-1.126770
19522,-6.767070,-9.009708,1.848388,0.156259,-0.152084,-1.056489
19523,-5.984885,-8.067747,2.246956,0.282667,-0.525564,-0.994967
19524,-5.039581,-7.454725,2.831121,0.294407,-0.815931,-0.939108
19525,-4.008222,-6.732800,3.834316,0.276626,-0.978007,-0.922687
19526,-2.842808,-6.102925,5.519761,0.200029,-0.975301,-0.916008
19527,-2.134049,-5.642311,6.509296,0.057415,-0.785768,-0.965075
19528,-1.901962,-5.564909,7.063989,-0.051289,-0.503683,-1.057989
19529,-2.060647,-5.614124,7.118442,-0.107627,-0.174106,-1.168678
19530,-2.301845,-5.880972,6.867299,-0.104963,0.168325,-1.291543
19531,-2.411091,-6.285855,6.838004,-0.106197,0.477931,-1.406617
19532,-2.641675,-6.786466,6.363489,-0.162670,0.742754,-1.489671
19533,-3.190015,-6.735302,5.398868,-0.285647,0.900612,-1.545107
19534,-3.576458,-7.752419,4.366930,-0.369060,0.851075,-1.551123
19535,-3.885154,-8.744746,3.586136,-0.281909,0.666918,-1.522006
19536,-3.761137,-9.005387,3.221649,-0.127171,0.359600,-1.464421
19537,-3.523886,-8.829329,2.649308,-0.000210,0.009023,-1.390147
19538,-3.286117,-9.081749,2.365916,0.092345,-0.346117,-1.304072
19539,-3.210530,-9.463663,2.552816,0.200446,-0.712015,-1.219633
19540,-2.896571,-9.316937,3.161963,0.329127,-1.044292,-1.146829
19541,-2.160341,-8.621122,4.048906,0.418497,-1.252707,-1.112518
19542,-1.289570,-7.988509,5.085741,0.493187,-1.283298,-1.129782
19543,-0.710434,-7.171310,6.425114,0.549537,-1.149325,-1.185928
19544,-0.528280,-5.946780,7.161579,0.402378,-0.891038,-1.246249
19545,-0.766970,-4.185225,7.431680,0.014378,-0.588363,-1.333315
19546,-0.899480,-2.813883,7.769374,-0.646649,-0.244682,-1.429471
19547,-0.823493,-2.139339,7.623262,-1.539546,0.121332,-1.507524
19548,-0.556497,-3.176251,6.195358,-2.427401,0.482327,-1.522290
19549,-0.484779,-6.776610,5.219941,-2.873188,0.855341,-1.580671
19550,-0.290038,-10.450127,5.030529,-2.670522,1.120681,-1.655352
19551,-0.359778,-13.348644,4.508663,-1.933445,1.303106,-1.720047
19552,-0.614572,-14.835881,3.431256,-0.952938,1.351359,-1.722003
19553,-1.519883,-13.519331,2.207875,-0.122749,1.265645,-1.708767
19554,-2.472000,-11.108182,1.339919,0.225767,0.960563,-1.656041
19555,-2.840650,-9.956548,1.588407,0.195143,0.523844,-1.570543
19556,-2.355367,-9.470276,2.227559,0.076214,0.081282,-1.473649
19557,-1.657867,-8.944342,2.214196,-0.039452,-0.318680,-1.356328
19558,-1.361863,-8.538471,1.874693,-0.133220,-0.642353,-1.257601
19559,-1.057798,-8.846528,2.005322,-0.133704,-0.932322,-1.193200
19560,-0.232393,-9.636617,2.846806,0.057688,-1.090194,-1.184994
19561,0.754141,-9.888176,3.548500,0.380799,-1.093975,-1.215004
19562,1.291883,-9.525052,4.657953,0.758913,-0.916643,-1.302531
19563,1.620403,-8.638985,5.748114,1.037238,-0.619330,-1.417712
19564,1.771734,-7.048614,7.231231,1.148508,-0.231016,-1.582195
19565,1.993664,-4.965753,8.021144,0.847915,0.233075,-1.722149
19566,2.171461,-3.335359,8.205250,0.097654,0.710971,-1.833171
19567,2.748581,-3.604271,7.363318,-0.794760,1.163724,-1.931802
19568,3.185811,-6.784921,5.711671,-1.404030,1.544595,-2.013364
19569,2.423135,-10.742647,3.238709,-1.423231,1.673955,-2.015510
19570,0.945566,-13.335878,2.030138,-1.013574,1.449899,-1.911992
19571,0.010299,-14.013507,1.536452,-0.416757,0.930389,-1.754658
19572,0.439621,-13.681051,1.422043,0.133139,0.275038,-1.541514
19573,1.233726,-12.950615,1.780674,0.598032,-0.355609,-1.308485
19574,2.323274,-12.183964,2.331531,0.966215,-0.915286,-1.076225
19575,3.470432,-11.222734,3.217378,1.305203,-1.301146,-0.876486
19576,4.522645,-9.562690,4.108714,1.505236,-1.433872,-0.735178
19577,5.170598,-8.058091,4.995141,1.435046,-1.345381,-0.639925
19578,5.290228,-6.469949,5.229394,1.034893,-1.080508,-0.600457
19579,5.190751,-5.573543,5.766555,0.421944,-0.688933,-0.638282
19580,4.737033,-5.264492,5.969497,-0.216429,-0.231647,-0.707808
19581,4.456634,-5.874358,5.839667,-0.715752,0.215336,-0.830872
19582,3.812871,-6.802849,5.139492,-1.053492,0.591520,-0.913784
19583,3.245591,-7.194521,4.771325,-1.299647,0.815376,-0.991904
19584,2.999731,-8.807703,4.360749,-1.410537,0.861304,-1.018238
19585,2.845742,-10.909416,2.866190,-1.261883,0.777409,-0.954222
19586,1.773789,-12.000627,2.391766,-0.833058,0.473748,-0.848031
19587,1.506415,-12.036521,2.649716,-0.248659,0.032097,-0.728896
19588,1.950902,-12.024600,2.643754,0.390431,-0.378762,-0.594614
19589,2.532617,-11.433966,2.874798,1.041254,-0.722571,-0.496811
19590,3.030863,-10.265366,3.347263,1.535411,-0.948870,-0.441381
19591,3.446974,-8.402621,4.410961,1.729258,-1.041907,-0.402881
19592,3.893700,-6.944844,4.981546,1.555613,-1.012885,-0.404335
19593,4.276026,-6.115227,5.423967,1.129274,-0.858578,-0.440854
19594,4.550987,-5.658698,5.916315,0.626143,-0.661003,-0.482346
19595,4.658048,-5.306061,6.175421,0.115399,-0.405840,-0.532453
19596,4.238610,-5.496444,5.971882,-0.344733,-0.151907,-0.561657
19597,3.711759,-5.956853,5.606723,-0.694475,0.016118,-0.571694
19598,3.529054,-6.546465,5.498002,-0.932033,0.120409,-0.567181
19599,3.214423,-7.100183,5.160363,-1.056096,0.156298,-0.558653
19600,3.229431,-7.869089,4.563471,-1.030728,0.125206,-0.550759
19601,3.236395,-8.837913,3.930396,-0.800083,0.037581,-0.555438
19602,3.480940,-9.604536,3.512644,-0.364750,-0.085500,-0.576162
19603,3.871409,-9.618751,3.216537,0.128053,-0.216943,-0.597571
19604,4.307387,-8.758631,3.178249,0.518322,-0.328416,-0.605527
19605,4.541820,-7.830692,3.307221,0.730529,-0.399821,-0.620559
19606,4.768085,-7.293637,3.690468,0.808357,-0.434938,-0.606442
19607,5.042885,-7.030320,3.691649,0.785792,-0.442285,-0.596568
19608,5.416786,-6.848104,3.610950,0.746093,-0.447088,-0.590867
19609,6.055903,-6.781471,3.873284,0.699266,-0.425032,-0.597897
19610,6.877729,-6.695101,4.150155,0.598890,-0.374406,-0.591444
19611,7.643861,-6.592114,4.263451,0.428465,-0.298687,-0.586896
19612,7.864888,-6.886170,3.954501,0.231941,-0.233725,-0.555286
19613,7.650710,-6.946074,4.241398,0.156536,-0.210853,-0.525577
19614,8.361685,-5.736939,5.533203,-0.309794,-0.168853,-0.223109
19615,7.939470,-9.312630,4.299581,-0.726936,-0.188972,-0.058478
19616,8.344765,-13.079432,4.014338,0.019759,-0.162339,-0.082622
19617,8.230194,-11.541812,4.743714,1.254676,-0.250345,-0.068205
19618,8.565979,-7.283921,5.814086,1.916825,-0.201217,-0.012563
19619,9.044367,-4.014654,6.923873,1.857028,-0.016897,-0.029854
19620,9.180181,-1.985749,8.002678,1.274084,0.267625,-0.006398
19621,8.999175,-1.762441,7.964195,0.465139,0.617031,0.033102
19622,8.371010,-1.710787,7.901863,-0.329972,0.966830,-0.014678
19623,7.868306,-1.356789,7.177035,-1.126333,1.247614,-0.093455
19624,7.792295,-2.027789,6.531256,-1.889787,1.484985,-0.169325
19625,7.684118,-3.376063,5.718991,-2.491131,1.673913,-0.226783
19626,7.064240,-4.718924,4.780892,-2.843389,1.789728,-0.281276
19627,6.359832,-6.086974,3.682771,-2.941659,1.807822,-0.359211
19628,5.135385,-7.941639,1.762915,-2.796525,1.720855,-0.418726
19629,3.236391,-9.690867,0.672165,-2.312959,1.449673,-0.465781
19630,1.765838,-10.786234,-0.116044,-1.643960,1.014880,-0.473695
19631,0.727438,-11.607223,-0.677251,-0.872181,0.422051,-0.431746
19632,0.832927,-12.050702,-0.697232,0.023359,-0.235834,-0.383381
19633,1.991328,-11.749843,-0.356703,0.970863,-0.820135,-0.345021
19634,3.553649,-10.773173,0.683591,1.803031,-1.252672,-0.303689
19635,4.918214,-9.328459,2.191929,2.429881,-1.479013,-0.278197
19636,6.012705,-7.530016,3.803887,2.703696,-1.480176,-0.270642
19637,6.549312,-5.595814,4.838136,2.604506,-1.309838,-0.310601
19638,6.910328,-3.365009,5.979709,2.112270,-0.989993,-0.413784
19639,6.961969,-1.148392,6.988152,1.197390,-0.566134,-0.529696
19640,7.096319,0.298358,7.734351,-0.082715,-0.088680,-0.671304
19641,6.885847,0.080994,7.121364,-1.545909,0.388781,-0.793120
19642,6.530743,-1.523829,6.148834,-2.887621,0.741068,-0.871088
19643,6.489665,-3.506321,5.121112,-3.880563,0.972652,-0.926828
19644,6.920911,-5.276308,4.436042,-4.473458,1.101198,-0.962803
19645,7.433715,-7.023025,3.681002,-4.600713,1.222225,-0.997239
19646,7.172448,-9.108307,2.342887,-4.255259,1.292015,-1.039746
19647,5.655931,-10.794149,0.283678,-3.583308,1.209984,-1.019203
19648,3.494558,-11.986141,-0.961478,-2.670224,0.906672,-0.981682
19649,2.162382,-12.616335,-0.860132,-1.540153,0.381184,-0.975601
19650,2.578611,-12.624581,-0.102327,-0.324813,-0.224529,-0.970510
19651,4.446261,-11.463240,0.917044,0.772353,-0.710212,-0.950979
19652,6.005346,-9.671630,1.298013,1.474261,-0.986306,-0.905170
19653,6.480319,-8.182381,1.297073,1.760397,-1.169404,-0.842127
19654,6.903277,-6.940556,2.054004,1.827721,-1.316626,-0.835884
19655,7.717952,-5.895757,3.184254,1.701071,-1.279928,-0.859952
19656,8.151303,-5.185594,4.083866,1.431904,-1.079714,-0.909603
19657,8.239680,-4.841652,4.540112,0.989748,-0.766767,-0.962530
19658,7.851093,-4.759466,4.338990,0.421688,-0.432698,-1.015168
19659,7.620205,-4.694117,4.103231,-0.236873,-0.142035,-1.084845
19660,7.704584,-4.625096,4.010099,-0.917409,0.122778,-1.151166
19661,7.840171,-4.589555,3.968051,-1.636537,0.346206,-1.182012
19662,7.883153,-4.746455,3.769601,-2.309520,0.518395,-1.155000
19663,7.801620,-5.780570,2.844644,-2.788060,0.599270,-1.109097
19664,7.147518,-7.845542,0.970518,-2.930385,0.575270,-1.033839
19665,5.520640,-10.389696,-0.507261,-2.536229,0.359051,-0.966021
19666,4.042172,-12.655794,-1.235090,-1.561990,-0.089120,-0.931609
19667,3.411306,-13.588194,-0.849893,-0.176625,-0.694154,-0.905609
19668,4.317752,-12.440723,-0.118957,1.226776,-1.323685,-0.885617
19669,5.868976,-9.895763,0.685040,2.296880,-1.766278,-0.844773
19670,7.188793,-7.836097,1.075014,2.871576,-2.048914,-0.791771
19671,7.639502,-6.512401,1.271763,3.036360,-2.177753,-0.729042
19672,7.388937,-5.717395,1.347177,2.905157,-2.260237,-0.682877
19673,7.287571,-5.009956,1.558324,2.583380,-2.294507,-0.667220
19674,7.988361,-4.440022,3.446601,2.235312,-2.203016,-0.723393
19675,9.177051,-4.246867,5.500865,1.823333,-1.810383,-0.834827
19676,9.746923,-3.336180,6.289858,1.247143,-1.199483,-0.955096
19677,9.144592,-1.820855,4.818706,0.340772,-0.475249,-1.030267
19678,7.849646,-0.413547,3.206662,-0.859368,0.133943,-1.091061
19679,7.215309,0.351832,2.985651,-2.354275,0.556458,-1.158169
19680,7.527065,-0.566301,3.048168,-3.898528,0.890656,-1.173844
19681,8.153172,-3.478783,1.789085,-4.995035,1.126653,-1.139733
19682,8.240395,-6.968214,-0.112454,-5.447003,1.221294,-1.055064
19683,7.625902,-10.291080,-1.478761,-5.150774,1.112150,-0.996692
19684,6.916787,-12.461460,-1.447083,-4.143476,0.826786,-1.039558
19685,6.374423,-13.649471,-0.414774,-2.544630,0.377724,-1.135320
19686,6.168850,-13.886437,0.209148,-0.464761,-0.204298,-1.253586
19687,6.735772,-12.325488,0.914210,1.524383,-0.711329,-1.295170
19688,7.457877,-9.493911,1.125394,2.926884,-1.096735,-1.241528
19689,8.135506,-7.413158,1.193568,3.675625,-1.363445,-1.122205
19690,8.715068,-6.046153,1.410454,3.956203,-1.511629,-0.994779
19691,9.060907,-4.936233,1.458438,3.954314,-1.536911,-0.864785
19692,9.809124,-3.332556,2.590283,3.821733,-1.471006,-0.796666
19693,11.211411,-0.763899,3.083795,3.232990,-1.102881,-0.742323
19694,11.209373,1.300931,1.955454,2.037116,-0.421150,-0.631192
19695,10.013411,1.577296,1.080921,0.527994,0.268489,-0.580536
19696,8.560508,0.754511,1.639522,-0.922804,0.824714,-0.693177
19697,8.024356,0.102691,2.952873,-2.237830,1.182628,-0.852871
19698,8.327920,-0.102057,3.731368,-3.502233,1.440612,-0.918501
19699,9.062784,-0.856836,3.908049,-4.669977,1.604767,-0.900914
19700,9.699913,-2.728502,3.336731,-5.448685,1.694329,-0.855924
19701,8.859066,-5.596043,0.868820,-5.539557,1.609257,-0.826846
19702,6.824840,-9.566659,-1.962334,-4.500177,1.183466,-0.890553
19703,5.488974,-12.852043,-1.971585,-2.552864,0.506814,-1.031330
19704,5.687083,-13.509622,-0.798957,-0.112670,-0.127290,-1.163579
19705,7.248263,-11.392797,0.771776,2.031376,-0.590665,-1.249604
19706,8.631850,-8.013699,1.749250,3.423920,-0.715540,-1.233352
19707,9.912429,-5.024318,3.898046,3.915208,-0.692760,-1.150592
19708,10.900009,-1.529771,4.881317,3.487795,-0.381043,-1.006156
19709,10.265925,2.100032,2.171401,2.284440,-0.025417,-0.885238
19710,9.447187,3.694901,-1.088439,0.652636,0.197964,-0.863182
19711,9.290096,2.250280,-2.371961,-1.001119,0.416410,-0.853317
19712,9.656249,-0.299406,-1.395608,-2.309733,0.668028,-0.799222
19713,9.801784,-2.447836,0.174160,-3.200031,0.912413,-0.736056
19714,9.737733,-3.531146,0.974852,-3.768336,1.100358,-0.663996
19715,9.064251,-4.521996,0.772619,-4.027018,1.134477,-0.595651
19716,8.347933,-5.929359,0.207017,-3.771950,1.023699,-0.619041
19717,7.513534,-8.614988,0.376563,-2.811420,0.701909,-0.735190
19718,7.219073,-11.355634,0.577737,-1.138593,0.258801,-0.849228
19719,7.550933,-11.487547,0.681645,0.694603,-0.169727,-0.901638
19720,8.378508,-8.954238,1.264661,2.077924,-0.476991,-0.864067
19721,9.309068,-5.979796,1.870199,2.728583,-0.623919,-0.793215
19722,10.207571,-3.767817,2.331614,2.711464,-0.616772,-0.675153
19723,10.457016,-1.625539,1.804140,2.218169,-0.506263,-0.587146
19724,10.339781,-0.047998,0.880254,1.450167,-0.390881,-0.531463
19725,9.856926,0.468262,-0.139970,0.547382,-0.277905,-0.509755
19726,9.496794,-0.368653,-1.037581,-0.244492,-0.214935,-0.486045
19727,9.499932,-1.984348,-1.349653,-0.794247,-0.133718,-0.460984
19728,9.653133,-3.644208,-1.188806,-1.067066,-0.054575,-0.426907
19729,9.527315,-4.724643,-0.715033,-1.043126,0.037679,-0.397428
19730,9.134561,-4.860175,0.002837,-0.854455,0.071309,-0.392105
19731,8.855131,-4.299714,0.772635,-0.671634,0.068010,-0.404956
19732,8.712430,-3.561325,1.376903,-0.600889,0.045263,-0.422903
19733,8.744555,-3.085926,1.822014,-0.631603,0.021923,-0.437010
19734,8.756031,-2.971537,2.116594,-0.708552,-0.006263,-0.437742
19735,8.844787,-3.079628,2.433937,-0.768012,-0.028138,-0.435023
19736,9.220439,-3.397767,2.796685,-0.754023,-0.066134,-0.425267
19737,9.792171,-3.439779,3.006030,-0.691608,-0.073780,-0.408509
19738,10.164560,-3.327078,3.005351,-0.653213,-0.048335,-0.382773
19739,9.982424,-3.623397,2.777135,-0.599690,0.000546,-0.356071
19740,9.542083,-3.645132,2.639477,-0.490293,0.010261,-0.329197
19741,9.473989,-3.750243,2.484929,-0.377649,-0.013413,-0.318430
19742,9.428569,-4.029342,2.306366,-0.226287,-0.017716,-0.288932
19743,9.532119,-4.400112,2.113726,-0.018152,-0.052471,-0.252650
19744,9.649722,-4.498981,1.906645,0.253830,-0.072176,-0.221690
19745,9.842152,-4.212635,1.755498,0.559263,-0.092889,-0.196037
19746,9.809844,-3.778321,1.535229,0.786718,-0.073798,-0.172625
19747,9.785997,-3.261883,1.374619,0.920330,-0.066262,-0.151583
19748,9.707309,-2.932467,1.180242,0.958714,-0.055995,-0.127707
19749,9.745666,-2.789232,1.042142,0.937927,-0.046191,-0.095506
19750,9.795041,-2.666051,0.953021,0.883103,-0.032305,-0.062903
19751,9.825324,-2.574457,1.102755,0.825967,-0.015896,-0.022596
19752,9.777214,-2.311979,1.151673,0.759179,0.008134,0.016417
19753,9.669987,-2.169559,1.367746,0.684178,0.031814,0.051725
19754,9.519630,-2.023588,1.616345,0.591841,0.048769,0.083579
19755,9.327070,-1.949709,1.683737,0.474150,0.069624,0.111670
19756,9.138450,-1.950492,1.767217,0.353162,0.095257,0.139499
19757,9.091606,-1.953276,1.816039,0.252093,0.096033,0.161853
19758,9.323449,-2.040549,1.768208,0.172314,0.098556,0.181515
19759,9.587131,-2.072774,1.645798,0.105623,0.116264,0.196192
19760,9.655987,-2.139278,1.551869,0.053888,0.146466,0.221482
19761,9.638147,-2.150066,1.411650,0.013754,0.157095,0.237062
19762,9.580555,-2.203680,1.317154,-0.003406,0.159935,0.249464
19763,9.617001,-2.234728,1.194695,0.004859,0.151113,0.252743
19764,9.653777,-2.265903,1.072333,0.037383,0.149815,0.252374
19765,9.644432,-2.366695,1.082622,0.084135,0.142700,0.254278
19766,9.611071,-2.342323,1.091746,0.144611,0.129154,0.253963
19767,9.578492,-2.193021,1.093901,0.197673,0.120529,0.256967
19768,9.470981,-2.071585,1.094137,0.228646,0.112767,0.256119
19769,9.325885,-1.990513,1.035137,0.241727,0.099206,0.247155
19770,9.128614,-1.981605,1.083571,0.253701,0.081204,0.228075
19771,8.933424,-2.016437,1.142527,0.281766,0.055868,0.200496
19772,8.929050,-2.121593,1.281002,0.311409,0.025877,0.173397
19773,9.120536,-2.199720,1.393959,0.335306,0.004119,0.150502
19774,9.409208,-2.107376,1.463446,0.336938,-0.004460,0.122065
19775,9.663582,-1.991551,1.248223,0.311126,0.004554,0.097295
19776,9.774331,-1.937064,1.186137,0.265629,0.006539,0.077169
19777,9.901008,-1.990223,1.098524,0.211634,0.003475,0.064867
19778,9.939217,-2.102935,1.072762,0.163359,-0.010961,0.048901
19779,10.066300,-2.267971,1.118822,0.138706,-0.025003,0.036524
19780,10.069812,-2.456581,1.173520,0.141042,-0.031136,0.015441
19781,10.000794,-2.569895,1.223369,0.167702,-0.037570,0.004154
19782,9.811042,-2.582767,1.271818,0.197450,-0.045606,-0.007240
19783,9.458030,-2.486490,1.351800,0.233990,-0.051406,-0.013498
19784,9.172616,-2.445768,1.407354,0.266025,-0.064721,-0.018165
19785,8.878072,-2.464833,1.430855,0.301562,-0.085275,-0.019035
19786,8.808873,-2.478861,1.452980,0.340697,-0.105246,-0.015717
19787,8.791215,-2.417757,1.465518,0.374172,-0.118346,-0.008135
19788,8.845622,-2.382968,1.469237,0.409995,-0.124848,-0.008028
19789,8.864235,-2.377547,1.543288,0.427604,-0.130718,-0.004428
19790,9.019917,-2.362347,1.555921,0.449531,-0.124800,-0.004723
19791,9.105167,-2.328169,1.474212,0.460694,-0.115605,-0.004343
19792,9.265351,-2.282269,1.502660,0.459957,-0.108665,0.000846
19793,9.473522,-2.262429,1.527770,0.445619,-0.105667,0.009788
19794,9.728413,-2.223042,1.533797,0.419071,-0.096013,0.020590
19795,9.888240,-2.203956,1.568885,0.378523,-0.083902,0.045058
19796,10.000498,-2.207873,1.622886,0.333937,-0.068352,0.061620
19797,10.099358,-2.161730,1.607670,0.292425,-0.062840,0.092022
19798,10.132825,-2.153281,1.647258,0.247697,-0.046564,0.120944
19799,10.020285,-2.025023,1.678837,0.190227,-0.024317,0.147202
19800,9.731637,-1.963242,1.617666,0.140728,-0.011041,0.175659
19801,9.438698,-2.003789,1.567475,0.096541,-0.003736,0.196749
19802,9.216121,-2.027086,1.492396,0.068072,-0.003293,0.206283
19803,9.045323,-2.011391,1.522685,0.053684,-0.009066,0.216817
19804,8.909807,-1.946693,1.471902,0.031989,-0.007107,0.217488
19805,8.826795,-1.785335,1.398497,-0.002546,-0.008502,0.215607
19806,8.691909,-1.674187,1.329142,-0.049089,-0.020377,0.206100
19807,8.688787,-1.669621,1.316899,-0.107123,-0.038900,0.192912
19808,8.893479,-1.677859,1.333252,-0.161261,-0.067664,0.174833
19809,9.264506,-1.607494,1.274478,-0.227535,-0.092617,0.159111
19810,9.736885,-1.537216,1.212353,-0.307638,-0.113955,0.144448
19811,10.174642,-1.596257,1.147946,-0.381930,-0.134494,0.125852
19812,10.553634,-1.874189,1.117915,-0.410317,-0.155016,0.112576
19813,10.754907,-2.244910,1.109776,-0.374605,-0.160388,0.085709
19814,10.654484,-2.680765,1.123707,-0.248594,-0.175619,0.047662
19815,10.525968,-2.990755,1.185440,-0.067457,-0.196506,-0.008960
19816,10.340907,-3.248353,1.305640,0.168282,-0.216767,-0.064970
19817,10.169518,-3.352599,1.327628,0.401389,-0.225855,-0.119606
19818,9.976228,-3.183424,1.379187,0.608194,-0.215829,-0.164943
19819,9.688194,-2.862180,1.410597,0.766738,-0.212398,-0.198454
19820,9.636256,-2.602612,1.399941,0.859948,-0.209956,-0.207822
19821,9.702449,-2.443086,1.393066,0.913115,-0.185917,-0.204972
19822,9.621708,-2.290677,1.512674,0.925605,-0.146299,-0.181006
19823,9.471435,-2.048370,1.534696,0.900049,-0.113518,-0.147747
19824,9.418226,-1.915319,1.679174,0.816705,-0.085949,-0.123159
19825,9.445227,-1.787887,1.745688,0.692394,-0.055895,-0.098401
19826,9.417036,-1.753452,1.728136,0.545060,-0.015661,-0.080574
19827,9.494741,-1.712642,1.730687,0.390894,0.022874,-0.064750
19828,9.560698,-1.761582,1.719649,0.239784,0.056170,-0.059361
19829,9.652206,-1.756606,1.594233,0.098179,0.094244,-0.053191
19830,9.675067,-1.945682,1.463284,-0.023957,0.119202,-0.040662
19831,9.787899,-2.221427,1.316142,-0.100611,0.131636,-0.039444
19832,9.848876,-2.463100,1.251070,-0.133726,0.139559,-0.041468
19833,9.826955,-2.632691,1.233248,-0.123529,0.144206,-0.048476
19834,9.686808,-2.768887,1.235173,-0.078103,0.140796,-0.061508
19835,9.659592,-2.859951,1.269306,-0.000219,0.119241,-0.076499
19836,9.673360,-2.916705,1.251430,0.086495,0.102770,-0.096760
19837,9.685439,-2.819040,1.278411,0.161900,0.083809,-0.107148
19838,9.761726,-2.650206,1.339476,0.207130,0.071803,-0.108813
19839,9.833086,-2.534611,1.397531,0.225321,0.059586,-0.113262
19840,9.841621,-2.533164,1.440493,0.232196,0.057226,-0.108913
19841,9.820454,-2.539846,1.467421,0.239284,0.053681,-0.102760
19842,9.806408,-2.581471,1.536063,0.253638,0.056746,-0.102065
