// Start Time: Unknown
// Update Rate: 100.0Hz
// Filter Profile: human (46.1)
// Firmware Version: 4.3.5
PacketCounter,Acc_X,Acc_Y,Acc_Z,Gyr_X,Gyr_Y,Gyr_Z
50561,9.756084,-0.931923,0.636843,-0.029092,0.016835,-0.040501
50562,9.777955,-0.971540,0.644612,-0.025443,0.019082,-0.039206
50563,9.756548,-0.924763,0.640164,-0.027762,0.023328,-0.034903
50564,9.790094,-0.962055,0.627389,-0.033108,0.027326,-0.035218
50565,9.779423,-0.937232,0.626658,-0.023316,0.027110,-0.033094
50566,9.778655,-0.958687,0.653180,-0.023988,0.022136,-0.031708
50567,9.824033,-0.993198,0.618785,-0.018826,0.018598,-0.035221
50568,9.763859,-1.017317,0.639685,-0.016121,0.022739,-0.036323
50569,9.798453,-1.029918,0.602431,-0.002225,0.020896,-0.033648
50570,9.769397,-1.015803,0.589593,0.008647,0.018806,-0.035589
50571,9.751213,-1.023295,0.579862,0.018446,0.018606,-0.033463
50572,9.714630,-1.041738,0.558307,0.037514,0.013243,-0.034296
50573,9.706422,-0.978867,0.619327,0.049502,0.008799,-0.029998
50574,9.718433,-0.972881,0.599365,0.062587,0.005419,-0.027820
50575,9.737945,-0.934364,0.587980,0.074270,0.007816,-0.027298
50576,9.739023,-0.907139,0.564652,0.073444,-0.000111,-0.021379
50577,9.794430,-0.871619,0.600076,0.065829,-0.004176,-0.021328
50578,9.807231,-0.842318,0.554796,0.065242,-0.000270,-0.014122
50579,9.813983,-0.832341,0.588056,0.064901,-0.002764,-0.013420
50580,9.850902,-0.808620,0.611540,0.058895,-0.003740,-0.012356
50581,9.831765,-0.842649,0.624399,0.054641,-0.005049,-0.008382
50582,9.839352,-0.808802,0.632640,0.062341,-0.007398,-0.008456
50583,9.839459,-0.807734,0.632347,0.059659,-0.008585,-0.005404
50584,9.827792,-0.809604,0.653165,0.051615,-0.008734,-0.004623
50585,9.822090,-0.793016,0.595180,0.036789,-0.011378,-0.003291
50586,9.821334,-0.816719,0.619185,0.031773,-0.004901,-0.004331
50587,9.791221,-0.830078,0.628713,0.028655,-0.002171,-0.000557
50588,9.795502,-0.860051,0.599262,0.031673,-0.001902,0.004064
50589,9.784561,-0.838727,0.595871,0.024887,-0.004401,0.004619
50590,9.754361,-0.852948,0.605597,0.018008,0.002453,0.007124
50591,9.790238,-0.855653,0.653792,0.017235,0.003877,0.008549
50592,9.783490,-0.864992,0.621376,0.010154,0.001871,0.011733
50593,9.789167,-0.881897,0.679140,0.008908,0.004233,0.011953
50594,9.798191,-0.801938,0.639054,0.003602,0.011206,0.013534
50595,9.826462,-0.837963,0.679751,-0.008988,0.013655,0.012536
50596,9.830511,-0.869183,0.652023,-0.009259,0.023451,0.010651
50597,9.847785,-0.883384,0.690626,-0.006567,0.027583,0.009533
50598,9.818226,-0.873658,0.678416,-0.002331,0.028863,0.005567
50599,9.847268,-0.884608,0.696416,0.001932,0.033109,0.003530
50600,9.828613,-0.896021,0.688109,-0.000116,0.033927,0.003247
50601,9.777500,-0.959545,0.627179,0.005864,0.034873,0.002197
50602,9.796562,-0.924329,0.617751,0.013889,0.034997,0.001434
50603,9.773622,-0.905427,0.639197,0.018296,0.035825,0.001306
50604,9.785199,-0.902837,0.621688,0.006176,0.037337,0.001499
50605,9.774049,-0.881466,0.622097,0.010280,0.038653,0.004003
50606,9.751056,-0.862842,0.643621,0.013566,0.035467,0.004074
50607,9.772542,-0.906658,0.653789,0.012306,0.031490,0.010734
50608,9.820834,-0.882701,0.658998,0.018737,0.028532,0.008970
50609,9.762080,-0.862592,0.631847,0.018428,0.029017,0.011601
50610,9.781188,-0.827928,0.621780,0.023426,0.025902,0.004293
50611,9.799332,-0.817165,0.636303,0.018559,0.028967,0.005140
50612,9.767866,-0.855401,0.673468,0.016041,0.030720,0.003646
50613,9.779535,-0.852971,0.655205,0.013653,0.026103,0.002131
50614,9.808554,-0.863553,0.673085,0.016017,0.027751,0.001722
50615,9.798861,-0.934621,0.605725,0.035530,0.030684,-0.002303
50616,9.853765,-0.900809,0.643351,0.032155,0.015685,-0.003641
50617,9.862195,-0.843520,0.628723,0.035928,0.014527,-0.000428
50618,9.862144,-0.842929,0.630318,0.030868,0.012110,-0.007277
50619,9.880481,-0.830761,0.643324,0.015439,0.010891,-0.011047
50620,9.853679,-0.897543,0.649203,0.008195,0.009347,-0.011726
50621,9.800712,-0.890908,0.677277,0.019035,0.007214,-0.013595
50622,9.771607,-0.878860,0.662812,0.031123,0.002720,-0.015674
50623,9.761864,-0.831708,0.635073,0.032222,0.000409,-0.009422
50624,9.747636,-0.754830,0.636181,0.020723,-0.005366,-0.008073
50625,9.732365,-0.702255,0.661712,0.009412,-0.002300,-0.007414
50626,9.736881,-0.731959,0.632238,-0.005668,-0.001432,-0.001595
50627,9.784407,-0.731116,0.659256,-0.016334,0.006576,-0.002343
50628,9.806128,-0.774161,0.667063,-0.029366,0.012932,-0.002679
50629,9.809500,-0.828389,0.663584,-0.041153,0.016925,-0.003226
50630,9.833260,-0.823058,0.622694,-0.042101,0.018784,-0.005638
50631,9.843033,-0.868496,0.652347,-0.035658,0.018786,-0.005459
50632,9.861252,-0.857160,0.665699,-0.025114,0.020111,-0.002769
50633,9.868535,-0.824514,0.675937,-0.027929,0.025315,0.000288
50634,9.815304,-0.819233,0.705471,-0.036741,0.029967,-0.005920
50635,9.772935,-0.835010,0.739145,-0.045697,0.040979,-0.012103
50636,9.734036,-0.904590,0.768396,-0.060041,0.040780,-0.018002
50637,9.707190,-0.970838,0.776194,-0.063224,0.037972,-0.028392
50638,9.643907,-1.058570,0.760209,-0.066713,0.038611,-0.034222
50639,9.671469,-1.104421,0.716393,-0.033816,0.040667,-0.036635
50640,9.689870,-1.090022,0.731333,-0.016989,0.030231,-0.035020
50641,9.702017,-1.084022,0.713054,-0.004080,0.030267,-0.034653
50642,9.679268,-1.061944,0.733323,0.012762,0.022802,-0.031105
50643,9.718058,-0.988205,0.709904,0.028031,0.015224,-0.026642
50644,9.751028,-0.909108,0.740258,0.040312,0.016242,-0.021015
50645,9.765718,-0.841384,0.758502,0.027548,0.009830,-0.021415
50646,9.748645,-0.826211,0.723283,0.012746,0.010152,-0.018248
50647,9.768473,-0.774457,0.798375,0.008962,0.008332,-0.023393
50648,9.755102,-0.813448,0.757812,0.003136,0.003974,-0.020473
50649,9.791710,-0.788997,0.781516,-0.000015,-0.002178,-0.022513
50650,9.792950,-0.762773,0.756527,-0.017963,-0.005051,-0.019457
50651,9.851448,-0.781971,0.786766,-0.030088,0.002348,-0.015456
50652,9.845298,-0.789334,0.754197,-0.040644,0.009860,-0.012364
50653,9.914631,-0.830932,0.788747,-0.059864,0.009321,-0.009088
50654,9.975278,-0.943763,0.752496,-0.069333,0.011951,-0.011970
50655,9.944058,-0.980881,0.787150,-0.068259,0.019298,-0.020497
50656,10.031371,-1.024070,0.746561,-0.071898,0.005190,-0.029547
50657,10.087580,-1.104792,0.739111,-0.070980,0.009624,-0.033546
50658,10.072121,-1.205153,0.660278,-0.049567,0.015234,-0.039104
50659,10.013808,-1.194788,0.543303,-0.018330,0.002152,-0.033527
50660,9.929352,-1.083901,0.621943,0.022849,-0.014071,-0.034156
50661,9.792073,-0.970936,0.528473,0.037811,-0.017350,-0.045715
50662,9.480806,-0.908373,0.499443,0.076223,-0.003986,-0.054794
50663,9.484918,-0.802468,0.598828,0.092824,-0.032421,-0.041597
50664,9.470757,-0.708823,0.685524,0.114060,-0.021252,-0.026540
50665,9.475534,-0.580488,0.760437,0.094158,-0.008649,-0.020553
50666,9.441611,-0.537886,0.774259,0.062804,-0.007776,-0.017133
50667,9.536114,-0.548242,0.741709,0.046083,0.005104,-0.012993
50668,9.568920,-0.625507,0.666507,0.017558,0.015993,-0.013279
50669,9.641400,-0.744869,0.722120,-0.002430,0.019821,-0.006663
50670,9.833380,-0.998376,0.772364,-0.000083,0.027403,-0.003206
50671,10.021390,-1.197245,0.828098,0.030588,0.027858,-0.011632
50672,10.236005,-1.312261,0.966529,0.060949,0.022874,-0.021282
50673,10.497571,-1.453285,0.959434,0.072812,0.037369,-0.036154
50674,10.576186,-1.587986,0.878077,0.121506,0.034674,-0.057884
50675,10.531606,-1.532018,0.806863,0.181484,0.020012,-0.085968
50676,10.437057,-1.395951,0.686135,0.237993,-0.018572,-0.114633
50677,10.308443,-1.217557,0.575934,0.307665,-0.046293,-0.133896
50678,10.140348,-0.952658,0.592465,0.358932,-0.064666,-0.139737
50679,9.989718,-0.676495,0.618067,0.374644,-0.071509,-0.130618
50680,9.785139,-0.396918,0.668449,0.358719,-0.070456,-0.115591
50681,9.613655,-0.183312,0.729834,0.294222,-0.053431,-0.095811
50682,9.433242,-0.068623,0.748239,0.217717,-0.034327,-0.079889
50683,9.304120,-0.024572,0.705158,0.137134,-0.016066,-0.070397
50684,9.219422,-0.090607,0.705348,0.074400,0.005081,-0.063994
50685,9.127975,-0.190649,0.699701,0.031893,0.015521,-0.060209
50686,9.100544,-0.340996,0.697483,0.010621,0.025233,-0.055496
50687,9.175020,-0.446979,0.645727,0.000698,0.034720,-0.055902
50688,9.237430,-0.572430,0.529329,0.007443,0.037012,-0.046148
50689,9.337338,-0.611139,0.471999,-0.000641,0.040054,-0.037132
50690,9.527284,-0.590929,0.472023,0.015933,0.036042,-0.035344
50691,9.763481,-0.598993,0.635838,-0.001730,0.033043,-0.022068
50692,10.023382,-0.620184,0.670855,-0.029470,0.033891,-0.016806
50693,10.194528,-0.637722,0.684804,-0.061330,0.042336,-0.008409
50694,10.270367,-0.684507,0.669979,-0.086738,0.038807,-0.007324
50695,10.240838,-0.657913,0.743791,-0.090486,0.030858,-0.016203
50696,10.210861,-0.670573,0.755070,-0.092434,0.013662,-0.027819
50697,10.130682,-0.802763,0.864228,-0.089724,0.014568,-0.037262
50698,10.040543,-0.882203,0.832207,-0.059422,0.009054,-0.042866
50699,9.928808,-0.854932,0.828242,-0.036041,0.010405,-0.046130
50700,9.747535,-0.763774,0.764100,-0.012445,0.008409,-0.047461
50701,9.631453,-0.657960,0.738516,-0.002124,0.004226,-0.052330
50702,9.501797,-0.641366,0.722682,-0.004040,0.001850,-0.060962
50703,9.396139,-0.619349,0.664908,0.004250,0.010268,-0.065015
50704,9.384106,-0.655356,0.626194,0.009511,0.021290,-0.071807
50705,9.414002,-0.674635,0.557249,0.010853,0.018740,-0.061725
50706,9.538446,-0.689157,0.542521,0.008222,0.017612,-0.058703
50707,9.674647,-0.685336,0.592652,-0.000948,0.007797,-0.048706
50708,9.835574,-0.613414,0.635902,-0.004878,0.000217,-0.044742
50709,9.907322,-0.561366,0.682066,-0.013116,-0.002417,-0.043338
50710,9.954813,-0.554531,0.709156,-0.018796,0.002053,-0.041172
50711,9.989630,-0.614138,0.721280,-0.029871,0.001652,-0.038686
50712,9.984012,-0.619694,0.688637,-0.025710,0.002871,-0.042597
50713,9.889891,-0.581407,0.695708,-0.021923,0.001820,-0.039361
50714,9.849308,-0.507293,0.737039,-0.037763,-0.007545,-0.043663
50715,9.812920,-0.614933,0.701697,-0.049442,-0.006881,-0.035959
50716,9.718358,-0.601545,0.732828,-0.047509,-0.007503,-0.029214
50717,9.677083,-0.632494,0.675706,-0.048845,-0.010979,-0.026380
50718,9.676938,-0.653888,0.699347,-0.046508,-0.012319,-0.028673
50719,9.689156,-0.649001,0.677137,-0.039405,-0.004699,-0.024172
50720,9.695469,-0.653492,0.622980,-0.032199,0.002747,-0.026100
50721,9.736663,-0.681375,0.642556,-0.039116,0.003553,-0.027522
50722,9.830908,-0.736813,0.660458,-0.035022,0.001970,-0.026900
50723,9.866364,-0.734410,0.708454,-0.040718,-0.002387,-0.023977
50724,9.961388,-0.742596,0.675603,-0.040989,-0.004850,-0.023261
50725,9.949996,-0.719253,0.670649,-0.051453,-0.009367,-0.027878
50726,9.943442,-0.797305,0.711258,-0.047792,-0.016034,-0.032259
50727,9.896559,-0.797232,0.682053,-0.042143,-0.017499,-0.032541
50728,9.808271,-0.790464,0.658373,-0.026666,-0.019163,-0.037026
50729,9.685012,-0.720441,0.622830,-0.016469,-0.025915,-0.030961
50730,9.650349,-0.654737,0.608812,-0.006863,-0.022782,-0.020415
50731,9.585553,-0.628493,0.629346,-0.010827,-0.024405,-0.012682
50732,9.544615,-0.597283,0.607702,-0.010363,-0.022316,-0.009575
50733,9.597967,-0.584403,0.665332,-0.001390,-0.023897,-0.007854
50734,9.704362,-0.638554,0.659667,0.010923,-0.019790,-0.006753
50735,9.757944,-0.601676,0.693224,0.011470,-0.009059,-0.010804
50736,9.834789,-0.646319,0.673396,0.029180,-0.008858,-0.009287
50737,9.888260,-0.648529,0.646227,0.035914,-0.003476,-0.014320
50738,9.941807,-0.611106,0.680641,0.041252,-0.010210,-0.009369
50739,10.001390,-0.580412,0.660983,0.037902,-0.007091,-0.009482
50740,10.007503,-0.586296,0.606568,0.033654,-0.008170,0.000862
50741,10.025353,-0.574390,0.617412,0.025127,-0.010312,0.004882
50742,10.013689,-0.553984,0.612454,0.015548,-0.013469,0.011014
50743,10.002250,-0.510139,0.582231,0.011181,-0.014359,0.011117
50744,9.966309,-0.543051,0.669339,0.002211,-0.012777,0.009398
50745,9.954876,-0.498902,0.639419,-0.013913,-0.007038,0.004343
50746,9.907447,-0.486777,0.698476,-0.025547,-0.000594,0.009428
50747,9.812952,-0.469994,0.619484,-0.042259,0.006221,0.009593
50748,9.794815,-0.506916,0.633338,-0.056104,0.007809,0.006773
50749,9.758380,-0.603310,0.685620,-0.072009,0.010175,0.003652
50750,9.698926,-0.649100,0.618724,-0.080447,0.013658,-0.001375
50751,9.733620,-0.736723,0.656205,-0.075365,0.019080,0.000927
50752,9.720976,-0.826910,0.667056,-0.053440,0.023357,-0.006000
50753,9.750594,-0.811992,0.659631,-0.032147,0.025888,-0.003186
50754,9.798047,-0.784681,0.664052,-0.002717,0.022507,-0.011297
50755,9.863103,-0.768450,0.705136,0.014592,0.023455,-0.017414
50756,9.892824,-0.751697,0.698183,0.025679,0.023921,-0.019916
50757,9.804602,-0.737825,0.567827,0.023587,0.027690,-0.018318
50758,9.639434,-0.742008,0.419035,0.004797,0.011825,-0.014380
50759,9.563011,-0.750844,0.289425,-0.002586,-0.018759,0.004462
50760,9.575472,-0.662177,0.276902,-0.030544,-0.047348,0.022882
50761,9.729890,-0.487983,0.467264,-0.074744,-0.055441,0.039347
50762,9.872041,-0.405216,0.667032,-0.109543,-0.039557,0.039925
50763,10.175149,-0.110788,1.073319,-0.072496,-0.000994,-0.005107
50764,10.691866,0.537479,1.825179,-0.065261,0.100300,-0.079616
50765,10.910156,1.190480,2.024406,0.072330,0.179879,-0.228952
50766,12.153088,2.703292,3.780799,0.335609,0.276726,-0.483663
50767,13.380682,4.258671,5.889189,0.080583,0.585918,-0.766971
50768,13.847653,4.285358,5.835149,-0.417602,1.077835,-1.038938
50769,13.111104,2.770042,4.322373,-0.686915,1.573239,-1.270307
50770,12.920468,0.813534,4.120310,-0.628097,1.893997,-1.412876
50771,12.684820,-0.723238,4.619262,-0.459144,2.182583,-1.449121
50772,11.987694,-1.000402,4.347796,-0.141492,2.397354,-1.403844
50773,11.056830,-0.456676,3.548677,-0.092018,2.454601,-1.295495
50774,9.682711,-0.216342,1.817990,-0.093336,2.336341,-1.182732
50775,8.048590,0.206065,-0.556693,-0.041082,1.975379,-1.103494
50776,7.360080,0.399128,-2.772566,-0.128301,1.419121,-1.036647
50777,7.698260,0.297573,-3.836599,-0.320134,0.946026,-0.954131
50778,8.211911,-0.131575,-3.975181,-0.587348,0.585746,-0.791576
50779,8.398338,-0.659810,-3.493715,-0.847603,0.309447,-0.574690
50780,8.241350,-0.933155,-2.648443,-1.073200,0.103896,-0.352959
50781,7.863577,-1.238554,-1.151396,-1.260909,-0.085430,-0.151970
50782,8.176870,-1.445729,1.627732,-1.431005,-0.176771,0.047279
50783,9.026905,-0.944127,5.317675,-1.649969,-0.010443,0.233808
50784,10.703635,-0.020146,9.301980,-2.068549,0.440300,0.430729
50785,12.090957,0.414711,10.939496,-2.629924,1.144338,0.651335
50786,12.457016,-1.116497,9.671985,-2.557594,1.846476,0.839372
50787,12.877355,-3.379117,8.462498,-2.057740,2.236130,1.071975
50788,13.024049,-5.580559,6.604727,-1.343665,2.393713,1.247040
50789,12.602917,-6.112607,5.195674,-0.426930,2.389923,1.268928
50790,11.633655,-5.346189,4.059776,0.311539,2.212103,1.205622
50791,10.582267,-4.344725,2.890496,0.850569,1.891319,1.133649
50792,9.389170,-3.544311,1.342453,1.190855,1.540934,1.090612
50793,7.938773,-3.125550,-0.633075,1.456449,1.198746,1.068040
50794,7.152934,-2.695996,-1.984491,1.729263,0.832761,1.050227
50795,7.145109,-2.079044,-2.210290,1.989695,0.628507,1.098483
50796,6.879446,-1.152654,-1.964143,2.225154,0.506602,1.149137
50797,6.612338,0.180247,-0.881890,2.241189,0.270723,1.176349
50798,7.018685,1.377259,1.148112,1.840524,0.018285,1.220107
50799,8.414896,3.238230,5.489237,0.927503,0.063914,1.275954
50800,10.086138,4.904653,9.214080,-0.509658,0.515225,1.407933
50801,10.832950,4.468776,9.060567,-1.781708,1.233836,1.575891
50802,10.731259,2.067383,8.075884,-2.628689,1.804134,1.765745
50803,10.678100,-1.186823,8.044279,-3.126108,2.075679,2.000734
50804,10.756925,-3.856801,8.136826,-3.274978,2.181238,2.165474
50805,10.664431,-6.097420,6.889435,-3.013005,2.234850,2.265606
50806,9.817119,-8.248725,5.318650,-2.322852,2.154600,2.350248
50807,8.527871,-9.639132,3.922530,-1.273700,1.937201,2.389532
50808,7.139355,-9.806874,2.758525,-0.133549,1.545451,2.379615
50809,6.399847,-8.877755,1.572604,1.011822,1.104516,2.338312
50810,6.204331,-7.064164,0.904601,2.043469,0.709372,2.278854
50811,6.246567,-4.982241,0.555053,2.743120,0.415735,2.196639
50812,6.301050,-3.033422,0.379311,3.095708,0.185606,2.095911
50813,6.341663,-1.148090,0.681386,3.097925,-0.020177,1.992622
50814,6.963478,0.509474,1.702537,2.637718,-0.246805,1.960112
50815,7.727463,2.055010,3.396194,1.838950,-0.347622,1.983396
50816,7.950346,3.315803,5.803576,0.585505,-0.283956,2.000528
50817,8.295325,3.750946,8.250613,-0.961569,-0.132947,2.045678
50818,9.011076,3.249321,11.177523,-2.468611,0.362055,2.103532
50819,8.796600,0.972098,11.664601,-3.724274,1.022895,2.185687
50820,8.012290,-2.622682,10.320750,-4.310838,1.519074,2.292849
50821,7.494684,-6.673883,8.779764,-4.332623,1.702879,2.457562
50822,7.473970,-10.271690,7.514660,-3.850588,1.639854,2.648022
50823,7.207832,-12.959389,5.701906,-2.834294,1.489109,2.772006
50824,6.440781,-14.413671,4.236889,-1.376762,1.263935,2.770413
50825,5.666304,-14.314893,3.445432,0.170029,1.014731,2.716090
50826,5.083528,-13.118699,2.945736,1.517358,0.743323,2.687298
50827,5.054965,-11.217351,2.699249,2.653344,0.506100,2.684623
50828,5.347237,-8.803004,2.781654,3.418436,0.328991,2.695630
50829,5.867463,-6.318505,3.044183,3.725360,0.212082,2.682823
50830,6.271839,-4.199192,3.327163,3.601826,0.163659,2.634235
50831,6.315606,-2.418328,3.769981,3.152438,0.172131,2.563076
50832,6.014268,-0.880347,4.470422,2.378877,0.210354,2.468426
50833,5.444513,-0.109878,4.615619,1.499281,0.252406,2.366661
50834,5.045994,0.835480,6.390734,0.500318,0.285029,2.271051
50835,4.947827,0.503530,8.034260,-0.816677,0.389550,2.234074
50836,5.088158,-1.617932,8.565474,-1.895572,0.553691,2.290237
50837,4.891923,-3.904507,9.673571,-2.597557,0.752086,2.385680
50838,3.866362,-6.528543,9.663663,-2.857290,0.931783,2.416095
50839,2.765383,-8.854706,8.572590,-2.399584,0.961677,2.347195
50840,2.577667,-10.636849,7.667961,-1.658203,0.861190,2.249661
50841,3.012821,-12.080991,6.843618,-0.645746,0.772713,2.184748
50842,3.460931,-12.577245,6.664427,0.438893,0.747815,2.192149
50843,3.300270,-12.402294,5.776104,1.575425,0.697323,2.232812
50844,2.701666,-11.109054,4.390555,2.616751,0.520617,2.215407
50845,2.348421,-9.158120,3.852179,3.425128,0.350807,2.111621
50846,2.156575,-7.369385,4.048274,3.828153,0.200287,1.988912
50847,2.104256,-5.499594,3.539419,4.019977,0.093206,1.860743
50848,2.329971,-3.071474,3.876076,4.051183,0.051886,1.708357
50849,2.469903,-0.739121,3.910552,3.749166,0.036836,1.569624
50850,2.665211,1.867030,4.621008,3.194008,0.063053,1.412453
50851,2.606115,3.630983,5.779808,2.197127,0.148495,1.287374
50852,2.173230,3.726196,6.518341,0.902329,0.132392,1.220329
50853,1.688375,2.785500,7.516935,-0.397096,0.069801,1.220120
50854,0.581520,1.334981,8.545405,-1.648924,-0.039210,1.237800
50855,-0.363163,-0.133915,8.282959,-2.651910,-0.138605,1.196454
50856,-1.430722,-2.210846,8.135175,-3.356139,-0.171505,1.007345
50857,-1.079849,-4.808960,8.181258,-3.580016,-0.229665,0.764309
50858,0.374086,-7.339093,8.928854,-3.639259,-0.283577,0.658725
50859,1.779280,-10.712555,7.318724,-2.718772,-0.034915,0.661709
50860,1.822160,-12.785407,7.589538,-1.272492,0.240206,0.642799
50861,1.315026,-12.931971,8.175581,-0.028960,0.317059,0.629277
50862,0.820480,-11.381430,7.399427,1.101429,0.243438,0.609901
50863,1.126297,-9.616467,6.425977,1.934150,0.117863,0.603618
50864,1.550592,-7.544707,6.378360,2.506733,0.120798,0.552854
50865,1.640550,-5.032481,6.841877,2.736672,0.184550,0.420611
50866,1.502984,-2.656689,7.382112,2.564435,0.294488,0.259989
50867,1.055515,-0.752286,7.694503,2.102620,0.393597,0.166733
50868,0.422490,0.410701,7.833280,1.451467,0.410650,0.132527
50869,0.075806,0.428408,7.401813,0.834048,0.313282,0.091404
50870,0.304976,0.134730,7.097510,0.381575,0.222472,-0.018688
50871,0.500841,-0.240608,7.439284,-0.069727,0.194707,-0.196614
50872,0.040606,-1.551250,6.767151,-0.457112,0.069949,-0.385727
50873,0.012881,-2.343319,7.173768,-0.631513,-0.163358,-0.461840
50874,-0.255734,-2.431288,9.042094,-1.088830,-0.159005,-0.597347
50875,-0.204924,-3.223441,9.053369,-1.139341,-0.041813,-0.796186
50876,0.290688,-4.019224,10.080984,-1.457954,0.119606,-0.940090
50877,0.831443,-6.687842,8.569866,-1.331084,0.280363,-1.011327
50878,1.469664,-7.996707,8.481368,-0.730133,0.365581,-1.059080
50879,1.778929,-8.249014,9.004666,-0.143321,0.503795,-1.124231
50880,1.518506,-8.190410,8.961319,0.326506,0.591847,-1.160869
50881,1.488613,-8.285829,8.487540,0.770276,0.635293,-1.153014
50882,1.379475,-7.722484,7.708163,1.275499,0.672173,-1.156238
50883,1.144908,-6.182235,7.818197,1.751818,0.686852,-1.248433
50884,0.744094,-4.051415,8.082383,1.963608,0.701770,-1.384369
50885,0.446251,-2.067496,8.172060,1.935237,0.685679,-1.546344
50886,0.207996,-0.480206,7.917552,1.675045,0.629145,-1.688868
50887,0.335890,0.676455,7.587473,1.321905,0.550839,-1.834133
50888,0.592516,1.215705,7.480658,0.853586,0.458833,-2.013521
50889,1.138384,0.799709,7.265203,0.328762,0.381585,-2.173618
50890,1.709530,-0.073333,7.758679,-0.352453,0.351334,-2.271223
50891,2.304353,-1.105518,7.846527,-1.101100,0.289941,-2.291520
50892,3.219151,-1.403933,9.590401,-1.918086,0.281468,-2.299789
50893,4.228173,-3.160421,10.005495,-2.791767,0.403608,-2.295317
50894,4.567600,-6.418304,9.640317,-3.239905,0.630989,-2.242643
50895,3.835739,-10.067575,8.821791,-2.836117,0.917647,-2.214905
50896,2.852791,-12.098461,9.306151,-1.882841,1.122584,-2.218099
50897,2.125141,-12.385562,10.146768,-0.924876,1.293046,-2.185910
50898,1.065835,-12.647651,8.871564,0.085766,1.383423,-2.066015
50899,0.536544,-12.061141,7.003822,1.324935,1.338572,-1.947881
50900,0.677493,-10.170177,5.528234,2.307602,1.120348,-1.931495
50901,1.612602,-7.014890,4.685384,3.188482,0.844973,-2.066263
50902,2.336583,-2.860863,5.153986,3.438326,0.686493,-2.278567
50903,2.215012,0.457675,5.017723,2.869376,0.614509,-2.416466
50904,1.156568,2.280372,4.228797,1.997068,0.390183,-2.458678
50905,0.700866,2.418967,3.994431,1.003133,-0.062703,-2.451189
50906,1.374183,1.488569,3.428461,0.073092,-0.421582,-2.443565
50907,1.800635,0.755442,4.758857,-0.968251,-0.533486,-2.450408
50908,2.380656,0.446612,7.561681,-2.129053,-0.569559,-2.432092
50909,3.790735,-0.601373,10.436387,-3.607925,-0.451410,-2.297934
50910,5.164706,-3.930605,11.136987,-4.477136,-0.079880,-2.084761
50911,5.939197,-6.821458,11.464371,-4.804797,0.361511,-1.856417
50912,5.621985,-10.132557,10.037911,-4.479430,0.724779,-1.824505
50913,5.598876,-12.975226,8.579369,-3.359354,0.844793,-1.965275
50914,6.241183,-13.575110,8.380981,-1.990716,0.940718,-2.103149
50915,6.058481,-12.271977,7.790580,-0.754818,1.061093,-2.165787
50916,5.044382,-10.846789,6.466942,0.045655,1.027955,-2.172790
50917,3.890143,-9.746238,5.209199,0.836410,0.878086,-2.153830
50918,3.063570,-7.929072,4.542092,1.418774,0.687415,-2.075955
50919,2.823706,-5.911775,5.135531,1.637758,0.529197,-1.944450
50920,2.784637,-4.231697,5.237861,1.448560,0.371400,-1.796831
50921,2.758974,-2.607338,5.284242,0.965791,0.245160,-1.682976
50922,2.695075,-1.925087,5.365428,0.214176,0.095988,-1.603241
50923,3.206634,-1.846015,5.514051,-0.579089,-0.048952,-1.503299
50924,3.498446,-2.438673,6.784790,-1.385695,-0.049678,-1.442640
50925,3.965076,-4.052574,7.893980,-1.984622,0.009655,-1.401305
50926,5.068700,-5.826393,9.312510,-2.452360,0.175209,-1.278384
50927,5.479860,-7.375507,10.563365,-2.770322,0.537065,-1.084781
50928,5.217671,-8.422958,11.601415,-2.923810,0.892034,-0.875310
50929,4.802942,-10.007864,10.630062,-2.705074,1.187671,-0.706959
50930,4.495187,-11.406484,8.837891,-2.056103,1.393149,-0.563941
50931,4.186569,-12.065929,7.599460,-1.234759,1.501041,-0.451075
50932,4.074309,-12.271324,7.192791,-0.419346,1.509689,-0.396119
50933,3.710386,-11.859560,6.621772,0.314656,1.460034,-0.340489
50934,2.834036,-11.301935,5.860873,0.857052,1.250368,-0.298977
50935,2.500545,-10.220184,4.684994,1.372561,1.012444,-0.251374
50936,2.293183,-8.465928,4.253275,1.721471,0.872409,-0.179275
50937,2.110887,-6.388694,4.914182,1.658718,0.738240,-0.083028
50938,2.219739,-4.686262,5.878982,0.998055,0.630307,0.020917
50939,2.369618,-4.313963,6.169609,0.147932,0.620164,0.135441
50940,1.968024,-4.054860,6.536387,-0.471749,0.629436,0.184615
50941,1.875263,-2.989558,7.882046,-1.110985,0.702937,0.140799
50942,2.132425,-2.496997,8.265508,-1.539990,0.950081,0.034145
50943,2.292911,-2.747779,8.167791,-1.868802,1.124659,-0.116815
50944,3.326441,-4.151639,7.920989,-2.024944,1.098536,-0.209770
50945,4.120038,-6.273642,7.641089,-2.139014,1.078695,-0.112155
50946,3.593805,-8.479261,7.152325,-1.852754,1.014459,-0.002252
50947,3.057376,-8.990652,6.989239,-1.225562,0.908560,0.049934
50948,2.338536,-8.743655,6.475518,-0.765786,0.821120,0.063579
50949,1.714188,-8.516326,5.718267,-0.430217,0.652538,0.099021
50950,1.244158,-8.514312,4.096130,-0.201450,0.479238,0.175826
50951,0.826750,-8.118921,2.303764,0.003834,0.253378,0.297695
50952,0.537416,-7.380659,1.057485,0.113341,0.007650,0.400290
50953,0.930847,-6.161851,1.686510,-0.022513,-0.242589,0.459560
50954,1.774652,-4.986265,3.278550,-0.654251,-0.412049,0.509096
50955,2.566375,-3.879071,5.178314,-1.552087,-0.430536,0.529875
50956,3.427214,-1.946198,7.847176,-2.528263,-0.261291,0.447494
50957,3.780514,0.105915,11.302205,-3.545825,0.085400,0.164042
50958,4.623291,1.301827,14.214013,-4.768529,0.452222,-0.195175
50959,5.111941,-0.175637,14.498949,-6.294435,0.985849,-0.448379
50960,3.744807,-6.287873,10.448795,-6.662035,1.537536,-0.527185
50961,1.842523,-13.648250,6.631615,-4.894073,1.638568,-0.441003
50962,1.783086,-19.302379,5.777253,-2.085545,1.228023,-0.137887
50963,1.429860,-21.584841,5.518367,0.257468,0.805746,0.286349
50964,0.104930,-21.772859,1.485810,1.487419,0.308094,0.632892
50965,-0.550692,-18.405826,-3.357183,2.988547,0.014208,0.716048
50966,0.074559,-13.040256,-2.656236,4.452755,-0.105527,0.696371
50967,0.512833,-7.813919,-0.172569,4.702618,-0.131315,0.815967
50968,0.652533,-4.121285,1.197501,3.573921,-0.271061,0.944313
50969,1.439438,-2.085365,2.023591,2.116119,-0.445633,1.035728
50970,3.244572,0.061130,4.998689,0.501632,-0.374692,1.153047
50971,4.244597,1.755310,8.115012,-1.603245,0.046386,1.220566
50972,3.528516,1.920027,8.953312,-3.723426,0.493631,1.074551
50973,2.522116,0.037083,7.662312,-5.340888,0.733384,0.760991
50974,1.798005,-3.499536,6.064634,-6.160099,0.775256,0.475715
50975,1.166263,-7.253131,4.808154,-6.219439,0.744040,0.271297
50976,0.562097,-11.546859,4.022955,-5.549730,0.662999,0.209581
50977,0.658675,-15.558084,3.334255,-3.902172,0.554279,0.230511
50978,0.469299,-17.482242,2.367683,-1.678230,0.472004,0.306247
50979,-0.324326,-16.741341,1.355556,0.507384,0.306440,0.362322
50980,-1.232769,-14.410895,0.226027,2.098130,-0.048739,0.411168
50981,-0.987554,-11.875174,-0.416268,3.101408,-0.451871,0.436585
50982,-0.475546,-9.264807,-0.383658,3.504650,-0.734181,0.463035
50983,0.584716,-6.393950,0.987765,3.314832,-0.932192,0.449140
50984,1.744083,-3.749061,2.750882,2.483253,-0.892887,0.374043
50985,2.046930,-1.527048,4.209834,1.361883,-0.757148,0.197844
50986,1.906687,-0.337092,5.572146,-0.024976,-0.617872,-0.056110
50987,1.963746,-1.528469,5.932052,-1.375863,-0.445532,-0.288884
50988,2.462201,-5.042161,5.451753,-2.325242,-0.156414,-0.496961
50989,1.898150,-8.984071,5.121319,-2.446461,0.129691,-0.606661
50990,1.373324,-12.015657,5.910824,-1.950666,0.162233,-0.735785
50991,2.012722,-14.599026,6.834200,-1.194166,0.153845,-0.748388
50992,2.566595,-15.138936,6.766590,0.162392,0.373990,-0.601235
50993,1.472599,-14.267425,6.475553,1.420683,0.658270,-0.485878
50994,0.000051,-14.946164,4.566179,2.760013,0.650599,-0.322517
50995,-1.846050,-15.279954,2.198480,3.935161,0.271239,0.109201
50996,-2.480146,-15.042381,-0.048724,4.486146,-0.380405,0.518239
50997,-1.173515,-13.565627,-1.123516,4.711428,-0.832717,0.787483
50998,0.992200,-10.395248,-0.456367,4.393927,-0.978544,0.976331
50999,2.405074,-6.884922,1.180628,3.565238,-0.843351,1.104038
51000,2.924613,-3.512352,3.986198,2.404334,-0.675217,1.042451
51001,3.017115,-0.769379,7.337556,1.017053,-0.506686,0.899135
51002,2.853835,0.310241,9.714235,-0.546307,-0.301135,0.778942
51003,2.352609,-0.449015,9.598948,-1.800523,0.062024,0.670187
51004,1.029517,-2.722455,8.412182,-2.569013,0.270294,0.590191
51005,0.722306,-6.136073,7.565005,-2.777964,0.205720,0.506283
51006,1.697298,-9.034252,7.596261,-2.403832,0.179557,0.450113
51007,2.079845,-10.971318,7.219179,-1.575444,0.330487,0.379343
51008,1.161463,-11.795663,5.792636,-0.366446,0.414710,0.317213
51009,-0.497825,-11.892619,3.394875,1.001157,0.225867,0.291066
51010,-1.394543,-11.615952,1.839574,2.205678,-0.184858,0.293418
51011,-1.135197,-11.069020,1.530032,2.896791,-0.556531,0.365712
51012,-0.698429,-9.845489,0.926486,3.016552,-0.869515,0.494332
51013,0.008053,-8.276388,0.508137,3.000520,-1.123718,0.572107
51014,0.604047,-6.395004,1.039845,2.852366,-1.218108,0.609548
51015,0.365484,-4.855942,1.630779,2.364554,-1.374237,0.574150
51016,0.704037,-3.381358,4.240188,1.508189,-1.553465,0.542366
51017,1.535027,-2.519767,6.398463,0.291745,-1.453388,0.537909
51018,1.570207,-1.911772,8.383464,-0.728492,-1.110533,0.465755
51019,1.495724,-1.737545,9.864124,-1.599886,-0.691350,0.282463
51020,1.112688,-3.614588,9.753909,-2.299111,-0.385075,0.100662
51021,1.085221,-6.530790,8.738299,-2.429110,-0.208842,0.020825
51022,0.803356,-9.560757,7.725309,-2.187722,-0.078796,0.062150
51023,0.268560,-12.139607,6.859572,-1.480215,-0.066369,0.165856
51024,0.108093,-13.507379,5.969733,-0.501570,-0.147771,0.278810
51025,0.413847,-13.879815,4.964390,0.474553,-0.244518,0.397803
51026,1.115269,-13.911791,5.006497,1.195149,-0.300163,0.555446
51027,1.337560,-13.854165,5.153459,1.572025,-0.359414,0.749394
51028,1.115903,-13.400973,4.663378,1.840008,-0.553791,0.912220
51029,1.247852,-12.357356,3.675098,2.079576,-0.785006,1.059018
51030,1.368924,-10.660766,3.274946,2.287322,-0.972556,1.231148
51031,1.397593,-8.231720,3.317975,2.289808,-1.117514,1.393258
51032,1.406569,-6.083563,4.537205,1.949132,-1.228198,1.538127
51033,1.752434,-5.019260,5.533454,1.272759,-1.361928,1.746179
51034,2.140999,-4.516560,6.725276,0.434881,-1.488408,2.074135
51035,1.409689,-3.282121,8.214287,-0.505767,-1.577291,2.213449
51036,0.608521,-2.103714,7.828893,-1.193877,-1.403611,1.928044
51037,0.081299,-3.129673,7.623463,-1.587948,-1.039900,1.525566
51038,0.369967,-4.477938,7.397942,-1.909741,-1.006221,1.265584
51039,0.965265,-5.464295,6.503186,-2.221372,-0.847252,1.117739
51040,0.106858,-7.979935,4.582411,-1.745606,-0.753395,1.064699
51041,-0.101244,-8.550789,4.353746,-1.106653,-0.943389,1.060240
51042,0.275355,-8.692757,4.183799,-0.575604,-1.087691,1.012684
51043,0.349080,-8.131742,4.194172,-0.088799,-1.232790,0.903023
51044,0.694658,-7.735751,4.071039,0.248346,-1.383977,0.795927
51045,1.325387,-7.528154,4.213121,0.499209,-1.459655,0.747750
51046,1.198831,-7.300451,4.249251,0.675516,-1.495045,0.727932
51047,0.536768,-6.889010,4.244191,0.825075,-1.635664,0.685131
51048,0.153826,-6.144099,4.728093,0.825207,-1.864968,0.657264
51049,0.360603,-6.524577,5.082103,0.622293,-2.004820,0.658911
51050,1.355170,-7.083702,6.732442,0.526703,-2.102801,0.724975
51051,2.922589,-7.599203,9.201989,0.161601,-1.867279,0.827689
51052,2.976547,-8.391625,9.467317,0.134711,-1.473953,0.883032
51053,2.471174,-9.069494,9.074995,0.118601,-1.208927,0.883896
51054,1.790788,-10.527608,7.996306,0.413039,-1.030218,0.867700
51055,1.116162,-11.138192,6.950882,0.966707,-0.998613,0.854845
51056,0.663573,-10.859896,6.061058,1.602913,-1.003661,0.879933
51057,0.171097,-9.812300,5.171107,2.157343,-1.029160,0.939486
51058,-0.071156,-8.228672,4.581357,2.536704,-1.132719,1.027006
51059,0.204070,-6.670672,4.320558,2.700047,-1.210890,1.095555
51060,0.623071,-5.278183,4.660165,2.729968,-1.217883,1.101849
51061,1.188409,-3.691694,5.824072,2.499745,-1.224330,1.039521
51062,1.377184,-2.111739,5.460197,2.071277,-1.283484,0.860701
51063,0.961711,0.195328,4.060547,1.677603,-1.413833,0.585274
51064,0.395117,2.053756,3.857852,0.978949,-1.645380,0.353885
51065,0.469030,1.776925,4.945879,0.016632,-1.919039,0.218411
51066,0.932891,0.028076,6.219902,-0.880176,-2.036560,0.167778
51067,1.488635,-3.038860,6.561641,-1.539599,-2.047402,0.221632
51068,2.253640,-5.034621,8.692806,-2.063298,-2.060543,0.354383
51069,3.093012,-6.290485,10.210067,-2.461340,-1.882101,0.419729
51070,3.778213,-7.459437,11.073307,-2.438100,-1.538104,0.388919
51071,4.175716,-9.563809,10.750152,-2.388116,-1.161248,0.314185
51072,3.639217,-12.439907,8.721480,-1.727313,-0.968387,0.212532
51073,3.159704,-13.745515,7.525648,-0.617434,-0.978706,0.124623
51074,2.757300,-13.249414,7.315908,0.551551,-0.952776,0.073544
51075,2.373221,-11.716112,7.540186,1.473530,-0.923077,0.068057
51076,2.156277,-9.654856,7.431271,2.126538,-0.888677,0.099467
51077,1.990334,-7.258802,6.855425,2.521673,-0.881506,0.109242
51078,2.261570,-4.971351,6.679776,2.499552,-0.885671,0.088696
51079,2.915706,-2.964432,6.965805,2.110768,-0.798740,0.043538
51080,2.811927,-1.499012,6.959396,1.541499,-0.648203,-0.049978
51081,2.097442,-0.754202,6.132151,1.036168,-0.637575,-0.223153
51082,1.561612,-0.729636,6.063394,0.515741,-0.750818,-0.396446
51083,1.355056,-1.438321,6.376662,0.112292,-0.892773,-0.494518
51084,1.673616,-2.425107,6.674100,-0.133365,-1.007719,-0.556765
51085,2.756453,-3.711687,7.027099,-0.315435,-1.161191,-0.623263
51086,3.722011,-4.680531,7.585157,-0.354516,-1.138815,-0.785133
51087,4.149367,-5.178241,8.237079,-0.279865,-1.009043,-0.982257
51088,3.944555,-5.551600,9.040781,-0.144519,-0.800030,-1.218355
51089,3.796239,-6.525957,9.362522,0.094296,-0.658729,-1.467120
51090,3.896639,-7.234358,9.420731,0.507213,-0.587944,-1.717118
51091,4.112999,-7.115396,8.875908,1.151898,-0.588959,-2.010532
51092,3.745759,-5.713545,8.211251,1.828389,-0.664567,-2.376454
51093,3.124082,-4.062863,7.033710,2.322193,-0.815011,-2.750034
51094,2.176517,-2.148553,5.598456,2.738993,-0.934344,-3.063689
51095,1.843992,-0.179407,4.775952,2.910216,-1.120601,-3.318994
51096,2.607926,1.378416,4.450518,2.803422,-1.261338,-3.462278
51097,3.695850,2.486734,4.763303,2.436109,-1.355462,-3.500346
51098,5.078054,2.916111,4.928922,1.904068,-1.504899,-3.454836
51099,6.697631,2.761559,4.764273,1.286297,-1.748835,-3.365263
51100,8.437392,2.418461,4.297747,0.524374,-2.097834,-3.168279
51101,9.882283,2.224909,4.731494,-0.499960,-2.187283,-3.040972
51102,10.625497,1.487189,6.276384,-1.731932,-1.970753,-3.028231
51103,11.403189,-0.668161,6.784707,-2.815000,-1.712715,-2.962036
51104,12.502762,-3.131499,8.432379,-3.664459,-1.311564,-2.762051
51105,12.359564,-6.208615,9.058802,-3.935483,-0.596721,-2.588363
51106,10.616834,-8.765035,9.589210,-3.699707,-0.028845,-2.443026
51107,8.535690,-10.716827,8.976024,-2.934007,0.170013,-2.322743
51108,6.859262,-11.216938,7.493818,-1.650985,0.115802,-2.231099
51109,5.985585,-10.351496,6.272238,-0.269603,-0.095799,-2.126211
51110,5.900256,-8.463987,5.369610,0.909613,-0.381872,-1.986263
51111,6.059046,-6.356363,4.467463,1.702231,-0.640912,-1.828754
51112,6.319299,-4.559303,3.826039,2.167852,-0.882606,-1.693611
51113,6.826720,-3.235438,3.840107,2.265882,-1.060147,-1.603763
51114,7.272105,-2.666552,4.085577,2.162355,-1.115593,-1.524699
51115,7.190249,-1.864158,3.730367,2.016259,-1.133835,-1.454751
51116,6.701742,-0.318557,3.186386,1.730539,-1.263410,-1.430059
51117,6.350903,1.037002,2.270147,1.204659,-1.504763,-1.413045
51118,6.317786,1.629459,1.474841,0.507201,-1.748204,-1.349995
51119,6.830217,1.580556,1.534059,-0.197832,-1.969775,-1.197701
51120,7.948308,1.369186,2.783264,-0.987812,-2.078619,-0.942093
51121,9.468295,0.634066,5.145009,-1.852410,-2.028107,-0.664256
51122,11.727267,-0.369785,8.383526,-2.679994,-1.740061,-0.448498
51123,13.958792,-1.486186,11.292195,-3.368021,-1.111112,-0.275606
51124,14.521866,-3.213370,12.255271,-3.729585,-0.218712,-0.188092
51125,12.507819,-5.603592,10.873846,-3.361208,0.517889,-0.203074
51126,10.055126,-7.178426,8.624032,-2.374164,0.727844,-0.204267
51127,8.524443,-7.351467,6.544370,-1.369539,0.565194,-0.193794
51128,7.643092,-6.748647,5.411297,-0.481500,0.307415,-0.224873
51129,7.306967,-6.023059,4.484327,0.295615,0.026876,-0.269203
51130,7.226735,-4.996137,3.094452,1.052815,-0.230659,-0.312383
51131,7.069307,-3.971374,1.860858,1.616702,-0.486321,-0.336803
51132,6.760230,-3.154359,0.617089,1.942542,-0.813810,-0.369187
51133,6.150630,-2.244447,-0.619988,2.180156,-1.183959,-0.451181
51134,5.651143,-0.620083,-1.116144,2.245743,-1.636197,-0.586473
51135,5.712403,1.255578,-0.491720,1.872061,-2.158936,-0.701816
51136,6.666588,2.438996,0.339257,1.280751,-2.529627,-0.750972
51137,8.282879,3.201193,2.177592,0.772761,-2.477394,-0.610664
51138,10.038186,3.856630,5.302435,0.042998,-2.002856,-0.199761
51139,12.068660,4.351162,7.841651,-1.115610,-1.317080,0.294433
51140,13.111747,4.106229,8.583993,-2.276229,-0.415333,0.621408
51141,12.566450,1.970426,8.250299,-3.083590,0.278292,0.696113
51142,11.339094,-1.529997,7.081817,-3.226888,0.594503,0.610554
51143,9.917116,-4.125085,6.072864,-2.692683,0.616108,0.323708
51144,8.974972,-5.053070,4.963261,-1.899546,0.405057,-0.024163
51145,8.467546,-5.562328,3.656079,-0.915557,0.072046,-0.336968
51146,8.347116,-4.884619,2.821571,0.178828,-0.244085,-0.552719
51147,8.172171,-3.668781,2.452897,0.861251,-0.535280,-0.662578
51148,7.961744,-3.605285,1.464466,1.235699,-0.861583,-0.680018
51149,7.890711,-3.374821,0.309763,1.617354,-1.194294,-0.661932
51150,7.665647,-2.075309,-0.041426,1.795371,-1.492149,-0.655191
51151,7.277216,-0.360983,-0.217515,1.714585,-1.835175,-0.678959
51152,7.660885,1.047321,-0.322692,1.525193,-2.182569,-0.669304
51153,8.710928,1.700263,-0.482576,1.191654,-2.424841,-0.544483
51154,10.152262,1.825884,0.489806,0.690613,-2.474843,-0.284407
51155,11.938800,1.874715,3.818095,-0.115332,-2.253516,-0.021328
51156,13.969215,1.590497,7.437250,-1.271333,-1.724498,0.187340
51157,14.979252,0.394850,8.829256,-2.278224,-0.904113,0.283921
51158,13.563270,-2.195486,7.777530,-2.481084,-0.071478,0.244979
51159,10.442096,-5.141487,5.202637,-1.711293,0.240077,0.214249
51160,8.579446,-5.803003,2.909907,-0.225843,-0.081854,0.073148
51161,8.785778,-3.779590,2.374110,0.927415,-0.529328,-0.123339
51162,9.814398,-1.922658,2.538480,1.352299,-0.829520,-0.307844
51163,10.987519,-0.676631,2.581198,1.325110,-0.854009,-0.409330
51164,11.494460,-0.369638,1.163497,1.103867,-0.716109,-0.403602
51165,10.740300,-0.678142,-1.001346,1.000650,-0.697810,-0.364808
51166,9.207729,-0.442793,-2.320255,1.000838,-0.989597,-0.373965
51167,8.270663,0.448282,-2.714350,0.867742,-1.549063,-0.409598
51168,8.529995,1.394879,-2.302775,0.431202,-2.108368,-0.372564
51169,9.453716,1.883121,-0.933403,-0.216590,-2.334083,-0.237878
51170,10.451719,1.887573,0.857327,-0.853798,-2.198494,-0.070537
51171,11.492843,1.506891,3.257473,-1.418369,-1.811770,0.044805
51172,12.248536,0.495246,5.494239,-1.892730,-1.229993,0.078076
51173,12.600647,-1.606244,6.681369,-2.022175,-0.556319,0.087323
51174,11.662074,-4.134461,6.044501,-1.653470,0.080480,0.188816
51175,9.309798,-5.178013,3.878889,-0.785635,0.273657,0.203479
51176,8.327553,-4.133014,1.746868,0.140765,0.072459,0.063467
51177,8.207101,-3.042150,0.146067,0.722892,-0.101036,-0.101227
51178,8.272730,-1.776493,-0.407965,1.095482,-0.173206,-0.196525
51179,8.259106,-0.127649,-0.740740,1.202925,-0.168548,-0.233566
51180,8.359773,0.929048,-0.903012,1.017563,-0.175151,-0.222250
51181,8.905649,0.331843,-0.839788,0.528753,-0.151797,-0.115357
51182,9.312832,-1.556110,-1.224269,0.077689,-0.102895,0.125073
51183,8.798007,-2.184258,-1.858982,0.018485,-0.207309,0.341068
51184,8.711810,-0.384045,-1.282428,0.228603,-0.506419,0.306793
51185,9.788483,1.617793,0.135524,0.353810,-0.677125,0.111799
51186,10.857731,2.241008,1.501970,0.149809,-0.591434,-0.005351
51187,11.064231,1.136666,1.889786,-0.146306,-0.402325,-0.041006
51188,11.158718,0.414545,2.218591,-0.193913,-0.269587,-0.101855
51189,11.308811,-0.014302,2.532508,-0.225945,-0.131748,-0.163353
51190,11.239746,-0.545183,2.438062,-0.211188,0.030439,-0.166258
51191,11.078594,-0.918881,2.029882,-0.259252,0.191766,-0.132458
51192,10.561257,-1.303907,1.264918,-0.265221,0.306655,-0.086317
51193,10.140611,-1.345545,0.711867,-0.176213,0.342801,-0.053931
51194,9.841089,-1.372119,0.171073,-0.074370,0.326597,-0.023492
51195,9.878408,-1.525173,-0.038224,0.034600,0.281928,0.002992
51196,10.062346,-1.530476,-0.019552,0.145617,0.270199,0.013672
51197,10.198864,-1.158344,0.223407,0.251002,0.270099,0.008363
51198,10.226955,-0.802695,0.200163,0.271463,0.279401,-0.005023
51199,9.985365,-0.534871,-0.086900,0.282415,0.248710,-0.020987
51200,9.816692,-0.246880,-0.163840,0.322159,0.173150,-0.039950
51201,9.713780,-0.064354,-0.089450,0.300155,0.097497,-0.067355
51202,9.756209,-0.076715,0.168297,0.250430,0.046153,-0.082507
51203,9.722729,-0.107079,0.402880,0.184326,0.025075,-0.099409
51204,9.686371,-0.252159,0.468846,0.110038,0.020537,-0.119456
51205,9.599096,-0.408683,0.473466,0.068893,0.019197,-0.137766
51206,9.553600,-0.543923,0.448761,0.058565,0.016696,-0.143123
51207,9.474483,-0.584816,0.422275,0.043828,0.018960,-0.134398
51208,9.442515,-0.647132,0.448132,0.024583,0.015159,-0.114132
51209,9.570326,-0.722604,0.508335,-0.004228,0.024535,-0.087904
51210,9.542210,-0.852604,0.497072,-0.028948,0.041121,-0.051502
51211,9.597457,-0.898551,0.524484,-0.022509,0.055942,-0.011107
51212,9.643550,-0.990183,0.511661,-0.012555,0.073205,0.030646
51213,9.616607,-1.024860,0.440551,0.023449,0.080441,0.068310
51214,9.626107,-0.859808,0.401764,0.064111,0.074323,0.098890
51215,9.669517,-0.671673,0.386702,0.082411,0.058019,0.114519
51216,9.781864,-0.603396,0.445940,0.092639,0.049393,0.127596
51217,9.839834,-0.632759,0.483603,0.093393,0.053758,0.156806
51218,9.960764,-0.647729,0.562568,0.104515,0.057328,0.183138
51219,10.064536,-0.677901,0.629325,0.091557,0.053825,0.203669
51220,10.134192,-0.735322,0.671644,0.073337,0.061690,0.217989
51221,10.124334,-0.751934,0.732195,0.070042,0.061195,0.219816
51222,10.101779,-0.674686,0.715006,0.080027,0.052355,0.216425
51223,10.066112,-0.695312,0.670871,0.076829,0.037868,0.190848
51224,10.027383,-0.675055,0.688921,0.090898,0.049904,0.168927
51225,9.996490,-0.706474,0.703059,0.105978,0.051988,0.152612
51226,9.916214,-0.677524,0.726850,0.141527,0.058462,0.140811
51227,9.870520,-0.573827,0.726258,0.129994,0.058145,0.129210
51228,9.894078,-0.602820,0.716180,0.097046,0.063473,0.124024
51229,9.878311,-0.714067,0.699022,0.077449,0.085185,0.126927
51230,9.798822,-0.842484,0.642506,0.089728,0.094643,0.139723
51231,9.738573,-0.839399,0.619629,0.103348,0.090624,0.153667
51232,9.769509,-0.877062,0.558956,0.092427,0.089329,0.153434
51233,9.721406,-0.895648,0.539815,0.104498,0.090688,0.159309
51234,9.615071,-0.897252,0.487495,0.117971,0.084137,0.157373
51235,9.545718,-0.777193,0.503548,0.136363,0.060902,0.150352
51236,9.554575,-0.723911,0.525766,0.137806,0.041553,0.137541
51237,9.624166,-0.750263,0.542847,0.117106,0.034842,0.133664
51238,9.579776,-0.940915,0.494744,0.115700,0.039667,0.139606
51239,9.592274,-1.038677,0.467042,0.125332,0.033758,0.154860
51240,9.576906,-1.080167,0.516593,0.138072,0.019709,0.165270
51241,9.555844,-1.044083,0.543949,0.161668,0.012215,0.167019
51242,9.590053,-0.874219,0.651560,0.173597,0.002424,0.164134
51243,9.588801,-0.777308,0.639469,0.169354,0.003915,0.153293
51244,9.576263,-0.658373,0.622278,0.169968,-0.002935,0.140551
51245,9.675431,-0.582491,0.637862,0.142090,-0.010675,0.121770
51246,9.690518,-0.516734,0.686064,0.120790,-0.004485,0.107589
51247,9.741793,-0.489084,0.723280,0.084823,0.007705,0.093544
51248,9.743519,-0.449728,0.674473,0.037542,0.020185,0.074104
51249,9.743045,-0.456285,0.676910,0.010833,0.027598,0.063855
51250,9.729826,-0.464505,0.700354,-0.039268,0.030894,0.050683
51251,9.794192,-0.517541,0.708508,-0.071765,0.034373,0.039408
51252,9.847114,-0.636044,0.701623,-0.094029,0.039696,0.027258
51253,9.926331,-0.722130,0.772724,-0.114146,0.041267,0.013566
51254,10.004882,-0.833016,0.724567,-0.127290,0.044804,-0.003079
51255,10.020866,-0.931598,0.754039,-0.135629,0.039972,-0.021602
51256,9.986296,-0.953922,0.732298,-0.121369,0.040721,-0.035806
51257,9.968015,-0.985919,0.747150,-0.114739,0.024034,-0.058311
51258,9.917742,-0.905221,0.697335,-0.110876,0.014941,-0.078576
51259,9.914049,-0.906719,0.664212,-0.124781,0.002848,-0.096233
51260,9.849247,-0.960793,0.671909,-0.122211,0.003893,-0.099148
51261,9.820152,-0.966910,0.679114,-0.117911,-0.001022,-0.096521
51262,9.799859,-0.954856,0.751940,-0.116999,-0.002861,-0.094067
51263,9.870174,-0.985490,0.788627,-0.125065,0.005154,-0.090372
51264,9.861145,-1.019827,0.747243,-0.122502,0.014556,-0.090144
51265,9.859493,-1.084172,0.678040,-0.126138,0.026238,-0.090936
51266,9.800392,-1.106479,0.695133,-0.122043,0.018911,-0.087645
51267,9.803293,-1.161842,0.658548,-0.099414,0.016262,-0.086443
51268,9.792415,-1.133066,0.654659,-0.085487,0.011809,-0.085248
51269,9.840338,-1.097986,0.659105,-0.079550,0.007078,-0.083531
51270,9.813489,-1.168934,0.629732,-0.083435,0.007825,-0.076575
51271,9.762988,-1.198807,0.592155,-0.059854,0.009042,-0.065328
51272,9.751839,-1.172328,0.587791,-0.049663,-0.000305,-0.054658
51273,9.733995,-1.092608,0.586921,-0.033894,-0.010647,-0.047994
51274,9.779149,-0.997628,0.627572,-0.023603,-0.008662,-0.048857
