// Start Time: Unknown
// Update Rate: 100.0Hz
// Filter Profile: human (46.1)
// Firmware Version: 4.3.5
PacketCounter,Acc_X,Acc_Y,Acc_Z,Gyr_X,Gyr_Y,Gyr_Z
59531,9.746243,-1.107912,0.539951,0.030803,0.059976,0.025611
59532,9.712457,-1.118053,0.540574,0.023226,0.052555,0.023218
59533,9.708127,-1.091625,0.526639,0.022178,0.048983,0.021935
59534,9.695269,-1.095919,0.499223,0.018109,0.044007,0.021192
59535,9.673972,-1.103525,0.530473,0.016031,0.040768,0.022366
59536,9.688257,-1.087325,0.527384,0.011250,0.036194,0.020212
59537,9.712460,-1.112193,0.523091,0.010685,0.033660,0.021119
59538,9.678847,-1.121980,0.521300,0.007505,0.035181,0.019330
59539,9.684649,-1.108818,0.576563,0.010114,0.027232,0.018298
59540,9.675743,-1.140980,0.566067,0.008923,0.022704,0.010971
59541,9.696413,-1.136307,0.541328,0.008683,0.020241,0.008015
59542,9.714676,-1.147358,0.555408,0.008358,0.016281,0.008154
59543,9.735434,-1.142389,0.529985,0.008357,0.012389,0.004428
59544,9.726696,-1.173771,0.518264,0.004058,0.012746,0.008187
59545,9.745014,-1.184743,0.531414,0.001985,0.005624,0.005641
59546,9.800283,-1.216178,0.568275,0.000624,-0.001895,0.004510
59547,9.773193,-1.237142,0.542706,0.014442,-0.006830,0.006118
59548,9.752298,-1.242815,0.568907,0.021201,-0.012209,-0.000991
59549,9.730260,-1.203762,0.536363,0.026597,-0.017325,-0.001782
59550,9.766045,-1.179676,0.501213,0.032878,-0.015955,-0.003629
59551,9.699830,-1.166835,0.561244,0.028901,-0.023318,-0.011185
59552,9.714862,-1.147202,0.552464,0.025812,-0.020301,-0.016072
59553,9.758223,-1.178699,0.555403,0.026371,-0.017775,-0.016988
59554,9.767108,-1.146165,0.567017,0.020412,-0.015189,-0.015285
59555,9.783428,-1.170592,0.617226,0.007546,-0.012083,-0.016241
59556,9.793586,-1.210004,0.615266,0.000076,-0.014094,-0.017988
59557,9.793858,-1.208488,0.613906,-0.001994,-0.013428,-0.013081
59558,9.810115,-1.261011,0.592010,0.003250,-0.011722,-0.012480
59559,9.740171,-1.247074,0.561423,0.011753,-0.010044,-0.013190
59560,9.752750,-1.243227,0.592770,0.022952,-0.010924,-0.014298
59561,9.786196,-1.233773,0.597216,0.020489,-0.009800,-0.014672
59562,9.776539,-1.190996,0.597200,0.017550,-0.009711,-0.017229
59563,9.747337,-1.225777,0.610778,0.013344,-0.003956,-0.012840
59564,9.735144,-1.226955,0.578549,0.016841,-0.001517,-0.011200
59565,9.708227,-1.246365,0.553546,0.022320,-0.001241,-0.011372
59566,9.723073,-1.227060,0.546563,0.023983,-0.003465,-0.009315
59567,9.704685,-1.215943,0.534390,0.030652,-0.002547,-0.005891
59568,9.717028,-1.240956,0.494239,0.027145,-0.010893,0.000998
59569,9.688650,-1.189545,0.481759,0.022138,-0.014036,-0.000369
59570,9.686264,-1.233364,0.447379,0.019583,-0.024207,0.007168
59571,9.663973,-1.195583,0.413186,0.014326,-0.035724,0.011381
59572,9.661661,-1.212630,0.448531,0.000096,-0.046054,0.017853
59573,9.752847,-1.193936,0.518404,-0.009040,-0.047849,0.026308
59574,9.896308,-1.309898,0.689860,-0.016417,-0.040569,0.028913
59575,10.009427,-1.334961,1.035365,-0.003309,0.002345,0.036351
59576,10.158928,-1.380567,1.410755,0.003728,0.066489,0.029842
59577,10.330904,-1.531817,1.571092,0.045893,0.159957,0.021206
59578,10.228882,-1.628030,1.565416,0.106393,0.269564,0.012773
59579,10.047562,-1.665069,1.298987,0.192990,0.345443,0.000586
59580,9.881639,-1.638277,0.972644,0.304105,0.373677,-0.022992
59581,9.924416,-1.460049,0.705564,0.411474,0.352334,-0.036213
59582,9.989196,-1.263303,0.611746,0.420763,0.331144,-0.040791
59583,9.919256,-1.113830,0.532087,0.386616,0.324525,-0.051578
59584,9.704212,-1.044429,0.362192,0.345024,0.308728,-0.052348
59585,9.271973,-0.901046,0.091729,0.321782,0.261040,-0.037200
59586,8.771731,-0.664733,-0.341192,0.250550,0.136399,-0.019121
59587,8.643760,-0.471006,-0.696343,0.093097,-0.017030,0.012300
59588,8.725763,-0.553985,-0.649706,-0.090491,-0.124661,0.044581
59589,9.131049,-0.672215,-0.355586,-0.235669,-0.186284,0.076862
59590,9.512103,-0.857970,0.058108,-0.366188,-0.194747,0.127118
59591,9.820606,-1.085117,0.313553,-0.434882,-0.187472,0.160374
59592,10.113593,-1.191518,0.690055,-0.456110,-0.165197,0.191327
59593,10.049095,-1.243356,1.396501,-0.454311,-0.117607,0.185759
59594,10.320724,-1.384468,2.784799,-0.476559,-0.057627,0.154208
59595,11.467192,-1.804298,4.546327,-0.598548,0.151788,0.155744
59596,12.699414,-2.310681,5.092927,-0.684623,0.582328,0.177368
59597,12.586466,-3.112069,4.322126,-0.504498,1.155067,0.164204
59598,11.267176,-3.776150,3.750825,0.224592,1.678418,-0.007987
59599,10.914024,-3.907739,4.448023,0.688712,1.849708,-0.135431
59600,11.336603,-4.308126,4.834131,0.869542,1.875758,-0.084129
59601,11.704508,-3.327366,4.660907,1.269638,1.955522,0.007128
59602,11.715389,-1.723891,3.796731,1.287384,2.012554,0.090348
59603,10.992668,-1.144100,2.577657,1.211820,2.016622,0.145971
59604,10.010453,-0.787309,1.757622,1.228372,1.928129,0.188648
59605,9.197908,-0.774047,0.892324,1.017988,1.704470,0.258647
59606,8.668214,-1.140718,-0.218050,0.691060,1.382005,0.335029
59607,8.478251,-1.326494,-1.326359,0.382500,1.042396,0.428332
59608,8.375560,-1.467850,-1.815678,0.091218,0.763118,0.518645
59609,8.498571,-1.350066,-1.271657,-0.067550,0.576220,0.575594
59610,8.852744,-0.929554,-0.060553,-0.326223,0.488335,0.630406
59611,9.182761,-0.496933,1.326028,-0.665741,0.510920,0.684362
59612,9.449395,-0.113119,3.403996,-1.067327,0.641839,0.726951
59613,10.182720,-0.184778,5.557934,-1.604509,0.899164,0.771902
59614,10.638377,-1.243346,6.582678,-2.096580,1.266748,0.869528
59615,10.471521,-2.867480,5.982569,-2.143132,1.599950,1.001012
59616,9.842130,-4.436980,4.533454,-1.812683,1.720836,1.123226
59617,9.381602,-5.440831,3.706726,-1.135287,1.603195,1.153390
59618,9.413717,-5.433789,3.546098,-0.482574,1.349118,1.084999
59619,9.388368,-4.928322,2.997249,-0.010264,1.152527,0.968348
59620,8.752957,-3.996957,2.298889,0.351661,1.015435,0.904946
59621,7.669005,-3.346250,1.548464,0.572195,0.840975,0.906384
59622,6.695572,-3.223526,0.414619,0.806162,0.591648,0.931384
59623,6.029871,-2.907105,-0.549829,0.989388,0.263240,0.948665
59624,5.905285,-2.492131,-1.090394,0.977745,-0.131412,0.957050
59625,6.531210,-2.196443,-1.464835,0.784287,-0.471173,0.996588
59626,7.453756,-1.871613,-1.486219,0.518562,-0.691596,1.065379
59627,8.400043,-1.220774,-0.769896,0.083217,-0.824958,1.126713
59628,9.472006,-0.376597,1.773906,-0.483195,-0.762414,1.121943
59629,10.768646,0.694230,6.627169,-1.337974,-0.366885,1.043185
59630,11.884978,1.372446,10.251121,-2.712945,0.291660,1.021108
59631,11.384614,-0.009934,10.106254,-3.818410,0.998036,1.060274
59632,9.262733,-3.103470,7.128438,-4.060694,1.431893,1.128989
59633,7.257945,-5.985389,4.656713,-3.494933,1.285445,1.218138
59634,7.675253,-7.878831,4.308637,-2.602551,0.884969,1.313185
59635,8.074142,-8.986584,3.094916,-1.760566,0.578455,1.365089
59636,7.383051,-9.044030,1.134187,-0.909165,0.342465,1.321409
59637,6.251726,-9.151152,-0.325914,-0.082805,0.048155,1.280737
59638,5.662396,-9.709523,-1.387694,0.850061,-0.293066,1.307576
59639,5.552420,-9.192578,-2.213276,1.770804,-0.611141,1.374222
59640,5.393128,-7.870426,-2.926883,2.403154,-1.020846,1.448458
59641,6.052729,-6.144059,-3.049713,2.648782,-1.497484,1.475970
59642,7.593083,-4.378169,-2.061128,2.389262,-1.856487,1.508531
59643,9.855519,-2.019708,0.202061,1.689006,-1.883460,1.563428
59644,11.512969,0.711675,2.981935,0.612386,-1.469034,1.575869
59645,11.462814,3.172516,6.112359,-0.756360,-0.812386,1.460385
59646,10.692360,4.367123,9.933376,-2.711631,-0.196706,1.291189
59647,10.283044,2.594847,11.338019,-4.868531,0.398773,1.146813
59648,8.843562,-1.926733,7.842628,-5.995389,0.921722,1.124625
59649,6.729044,-6.875399,4.016432,-5.390717,1.013409,1.114003
59650,6.119359,-10.233862,3.017366,-4.198952,0.732412,1.131222
59651,6.206751,-12.339880,1.847161,-2.711087,0.371015,1.136500
59652,5.952354,-12.890494,0.392698,-1.212462,0.080933,1.085279
59653,5.585906,-13.256003,-0.760988,0.011141,-0.245499,1.062152
59654,5.723701,-13.348867,-1.322586,1.071995,-0.483179,1.125019
59655,5.765281,-12.393559,-2.106875,1.945003,-0.652843,1.273001
59656,5.459859,-11.269325,-3.481884,2.750389,-0.903542,1.398510
59657,5.503763,-9.791290,-3.564633,3.313035,-1.258510,1.493083
59658,6.648315,-7.705885,-1.847689,3.060400,-1.580843,1.598151
59659,8.648656,-4.442058,0.604147,2.138559,-1.568520,1.678708
59660,10.253779,-0.478409,2.949345,0.890549,-1.107159,1.620978
59661,10.021927,2.228158,6.468969,-0.738500,-0.437463,1.415247
59662,9.438832,2.095847,9.855015,-2.798137,0.178185,1.191699
59663,7.879366,-1.620306,7.209584,-4.088655,0.666198,1.081574
59664,5.915921,-5.445679,4.505750,-3.978258,0.751698,1.037016
59665,5.531688,-8.752674,3.660028,-3.601781,0.594656,1.063805
59666,5.751251,-12.134850,3.075145,-2.548671,0.428459,1.140155
59667,5.904628,-13.690394,2.019870,-1.434548,0.296343,1.231000
59668,5.020547,-15.315504,-1.171737,-0.187304,0.161644,1.308651
59669,4.267266,-15.289911,-2.194420,1.559594,-0.039114,1.316226
59670,4.103363,-13.762299,-0.900417,2.528650,-0.259951,1.377643
59671,4.539943,-12.333668,-0.864872,2.921977,-0.407598,1.503834
59672,4.650328,-10.702305,-2.234392,3.070143,-0.474246,1.626138
59673,4.699011,-9.414760,-3.146630,2.922871,-0.675370,1.732605
59674,5.541116,-7.769186,-1.317034,2.414257,-0.845940,1.831040
59675,6.843852,-5.136825,1.547170,1.402296,-0.755696,1.877178
59676,7.618946,-2.357952,3.178187,0.290869,-0.388849,1.781927
59677,7.196735,-0.641309,4.491736,-0.975624,0.014026,1.565728
59678,6.255540,-1.398832,5.460464,-2.257270,0.327695,1.325658
59679,5.570659,-3.543156,5.868034,-3.063462,0.549466,1.145510
59680,4.875886,-6.458823,4.475316,-3.389058,0.644889,1.114664
59681,3.910535,-9.978072,2.570955,-2.857909,0.591641,1.127691
59682,3.805203,-12.604917,2.596586,-1.956479,0.406090,1.183547
59683,4.250918,-14.627747,2.848449,-0.884789,0.302732,1.281415
59684,4.389200,-15.160403,1.895946,0.419726,0.315421,1.312683
59685,3.745739,-14.914953,-0.546292,1.854066,0.254677,1.286106
59686,3.112321,-13.910567,-2.221664,3.427015,0.076763,1.215540
59687,2.728126,-12.104175,-1.888380,4.474494,-0.132095,1.159519
59688,2.874030,-10.457614,-1.124118,4.685604,-0.337616,1.181997
59689,3.174951,-9.013210,-1.180535,4.314130,-0.452461,1.276919
59690,3.161200,-7.439251,-1.649984,3.674019,-0.530830,1.400152
59691,3.167531,-5.855849,-1.301601,2.747329,-0.611654,1.495511
59692,3.520116,-4.131368,0.439715,1.551614,-0.594135,1.532689
59693,4.162316,-1.918121,2.839140,0.088469,-0.416310,1.533693
59694,4.418652,-0.768580,4.912026,-1.531738,-0.081226,1.456792
59695,3.976339,-1.606219,5.789102,-2.869795,0.258080,1.303271
59696,3.480474,-3.621543,5.267310,-3.697749,0.503146,1.181231
59697,2.325073,-6.255047,3.981141,-3.977804,0.569843,1.084809
59698,1.635154,-9.597212,2.991855,-3.745270,0.443557,1.027867
59699,1.883552,-12.695686,3.275957,-2.925329,0.300691,1.008967
59700,1.937876,-14.999095,3.694394,-1.873521,0.227227,1.059828
59701,1.865268,-16.525294,2.703679,-0.407219,0.152998,1.069157
59702,1.602596,-16.646108,0.636607,1.478053,0.042550,1.022933
59703,1.307928,-15.432264,-1.323819,3.392692,-0.138971,0.957370
59704,0.900427,-13.544070,-1.764303,5.001676,-0.331249,0.848851
59705,0.983273,-10.906669,-1.456582,5.765657,-0.534481,0.756424
59706,1.322826,-8.656554,-1.006403,5.484485,-0.704893,0.788915
59707,1.355210,-7.215458,-0.853134,4.725837,-0.789419,0.887254
59708,1.503057,-5.171394,0.309468,3.673821,-0.823066,1.056633
59709,1.829017,-2.805008,2.389768,2.011255,-0.786451,1.187519
59710,2.527690,-0.321213,4.017636,0.063626,-0.620707,1.215780
59711,3.122461,0.871410,4.995164,-1.823073,-0.296880,1.123801
59712,2.660833,-0.723303,5.097312,-3.378650,-0.000737,0.988289
59713,2.364546,-4.289910,4.612004,-4.366332,0.096197,0.933343
59714,1.709922,-8.108138,3.754054,-4.502817,0.171041,0.905656
59715,0.785272,-11.376812,3.718331,-3.933106,0.115369,0.786780
59716,0.815250,-14.242611,4.117116,-2.965556,-0.022993,0.706065
59717,1.084972,-16.479923,3.914715,-1.418495,-0.101026,0.673635
59718,1.440355,-16.702258,3.041505,0.463704,-0.200151,0.623805
59719,1.976614,-15.412264,0.953768,2.278392,-0.322783,0.515336
59720,1.698455,-13.409915,-1.100986,4.011502,-0.415167,0.369239
59721,0.561979,-10.935340,-0.970743,5.281941,-0.587280,0.175359
59722,0.026438,-8.801954,0.383785,5.494860,-0.814258,0.080186
59723,0.106088,-7.231401,1.068304,4.919555,-0.926048,0.181553
59724,0.051077,-5.435110,1.311172,4.083087,-0.890177,0.348799
59725,-0.021516,-3.504247,2.403689,2.934661,-0.847842,0.439023
59726,0.657257,-1.976992,4.372341,1.512523,-0.808152,0.434187
59727,1.770038,-1.363382,5.788927,-0.070152,-0.645550,0.362058
59728,2.894314,-1.944789,6.684639,-1.462728,-0.381838,0.272419
59729,3.504736,-3.554599,7.358454,-2.535488,-0.026890,0.192590
59730,3.087832,-6.780881,7.134227,-3.110045,0.260354,0.182629
59731,1.700192,-11.193038,6.143252,-2.657689,0.440707,0.205266
59732,0.032188,-14.898245,4.679082,-1.338713,0.469157,0.285647
59733,-1.592764,-16.721719,3.365612,0.551643,0.340565,0.391875
59734,-2.266895,-15.286227,2.925497,2.531211,0.066857,0.440086
59735,-2.005608,-12.003587,3.270763,3.788279,-0.177931,0.376288
59736,-1.524791,-8.753036,3.835371,4.159039,-0.344287,0.253097
59737,-0.919262,-6.398624,3.705403,3.876322,-0.424652,0.142372
59738,-1.018495,-5.108567,2.887518,3.464375,-0.491565,0.015860
59739,-1.529858,-4.197975,2.174940,3.060195,-0.704455,-0.132153
59740,-1.706156,-3.711218,1.634937,2.413212,-1.021546,-0.246148
59741,-1.322726,-3.078422,1.540235,1.407304,-1.327638,-0.271008
59742,-0.281002,-2.629359,2.459259,-0.058278,-1.446488,-0.191395
59743,1.375077,-3.142107,4.835646,-1.683863,-1.234547,-0.079798
59744,3.681397,-4.276644,8.290207,-3.204076,-0.714478,0.096433
59745,5.309005,-6.249180,10.925162,-4.392751,0.083334,0.305192
59746,4.337211,-8.664189,10.620772,-4.563648,0.751391,0.360344
59747,2.222720,-10.526181,8.880702,-3.969055,0.903523,0.279113
59748,1.002182,-13.081503,7.018682,-3.220542,0.767602,0.215217
59749,0.844347,-15.828693,6.556505,-1.994526,0.600486,0.169745
59750,0.994022,-16.506073,6.081038,-0.455723,0.503975,0.142379
59751,0.454217,-15.850396,5.101439,1.071545,0.411892,0.123495
59752,-0.271848,-14.013510,4.206051,2.630162,0.321125,0.076217
59753,-0.870332,-11.592325,3.726024,3.725963,0.155048,0.041530
59754,-1.146894,-9.389581,3.289022,4.320246,-0.055249,-0.010687
59755,-1.303752,-7.479183,2.816647,4.406875,-0.251716,-0.069667
59756,-1.455587,-5.903363,2.416613,4.029461,-0.422269,-0.141052
59757,-1.401819,-4.436195,2.118244,3.292286,-0.592965,-0.225406
59758,-1.024704,-3.177413,2.038298,2.244592,-0.716797,-0.304210
59759,-0.848924,-2.764846,1.533827,1.045751,-0.788320,-0.377808
59760,-0.322450,-2.754048,1.908443,-0.065674,-0.849856,-0.406441
59761,1.121201,-2.951083,3.957989,-1.221296,-0.762239,-0.381033
59762,3.009633,-3.385497,6.868664,-2.506320,-0.495086,-0.240953
59763,4.008157,-4.544759,7.760537,-3.572626,-0.087693,-0.012998
59764,3.532532,-6.411242,8.005451,-4.024596,0.304838,0.122148
59765,2.348917,-9.469388,7.861075,-3.980145,0.452070,0.162886
59766,1.743023,-13.528981,6.965128,-3.275280,0.452905,0.189434
59767,1.061949,-16.780251,6.067645,-1.893657,0.366285,0.188827
59768,0.520331,-18.231321,5.228094,-0.101833,0.179825,0.134527
59769,0.211794,-16.601353,4.885910,1.785183,0.013307,0.073980
59770,0.152473,-13.363128,4.736607,3.017764,-0.177751,0.082541
59771,0.293517,-11.174339,4.220363,3.710700,-0.293875,0.121292
59772,0.269902,-8.636614,4.195016,3.962700,-0.367568,0.157464
59773,0.217271,-6.427067,4.128100,3.610140,-0.409925,0.171100
59774,0.267256,-4.877672,3.988847,2.925955,-0.355614,0.173602
59775,0.226490,-3.922217,4.320053,1.987282,-0.198040,0.164897
59776,0.219174,-3.531955,4.618115,0.943357,0.017358,0.179206
59777,0.214757,-3.902566,4.616190,-0.015228,0.178775,0.242540
59778,0.154146,-4.897521,3.864458,-0.740992,0.115807,0.357111
59779,0.168608,-5.860380,3.088097,-1.084156,-0.133275,0.427291
59780,0.180615,-6.681545,2.586118,-1.106026,-0.496173,0.424697
59781,0.275163,-7.500202,2.590401,-0.897721,-0.921739,0.356720
59782,0.899268,-8.303292,3.253564,-0.510571,-1.294171,0.300050
59783,2.114286,-8.326262,5.497029,-0.308123,-1.379083,0.322413
59784,2.349333,-8.790871,6.670753,-0.374335,-1.301386,0.347492
59785,2.825762,-8.661384,8.276573,-0.195407,-1.248977,0.387505
59786,3.310107,-8.490942,10.226402,-0.419968,-0.927027,0.381199
59787,2.363578,-10.422170,8.815463,-0.150260,-0.518103,0.312484
59788,1.272207,-11.339646,8.454327,0.565429,-0.276793,0.281971
59789,0.346841,-11.260347,7.772273,1.295747,-0.162222,0.295160
59790,-0.067364,-9.873627,6.952303,1.979581,-0.142939,0.310842
59791,0.039474,-8.031617,6.401881,2.337870,-0.182960,0.289693
59792,0.778648,-6.600592,5.867126,2.443428,-0.273787,0.207236
59793,1.274659,-5.182267,5.818895,2.328763,-0.252189,0.076933
59794,1.454379,-4.098078,6.152723,1.859939,-0.208841,-0.068668
59795,2.068699,-3.618898,7.443662,1.145577,0.033950,-0.174718
59796,1.622065,-3.795870,8.245645,0.390202,0.350950,-0.159671
59797,0.293475,-4.437587,7.080774,-0.060175,0.251873,-0.056750
59798,0.256376,-4.129494,5.781859,-0.271393,-0.071154,-0.020900
59799,0.282464,-3.695280,4.602089,-0.448052,-0.278350,-0.156318
59800,0.091288,-4.227340,3.321986,-0.345837,-0.498987,-0.360758
59801,0.511106,-5.624529,3.263078,-0.095103,-0.768208,-0.466290
59802,1.334448,-6.644307,5.666917,-0.158960,-0.912117,-0.403417
59803,2.002748,-6.111640,9.123709,-0.553085,-0.813477,-0.320708
59804,2.352649,-6.151219,10.082154,-0.840855,-0.466166,-0.343518
59805,2.720012,-7.270156,9.822427,-0.845599,-0.114343,-0.352500
59806,2.785227,-9.239206,9.824436,-0.701320,0.167462,-0.279959
59807,2.105515,-10.318747,9.004831,-0.203045,0.329255,-0.228785
59808,1.441696,-9.562626,7.610656,0.446584,0.301481,-0.300681
59809,1.410781,-7.425690,7.050185,0.948432,0.181425,-0.442469
59810,1.774074,-5.172890,7.126127,1.119096,0.138700,-0.589639
59811,2.084765,-3.861502,7.560743,0.951857,0.251379,-0.688087
59812,2.157722,-3.596766,7.901387,0.581104,0.452734,-0.696287
59813,2.068924,-4.036893,8.053230,0.119786,0.628571,-0.654513
59814,1.904849,-4.690903,7.269243,-0.239163,0.703271,-0.649316
59815,1.818867,-4.974369,5.948797,-0.376412,0.603873,-0.755741
59816,2.128402,-4.718920,5.222212,-0.359495,0.466875,-0.944386
59817,2.197328,-4.468840,5.196967,-0.368525,0.385124,-1.108975
59818,1.952720,-4.939907,5.605034,-0.393162,0.366196,-1.218595
59819,1.636790,-5.748520,6.195761,-0.366302,0.360687,-1.209627
59820,1.543277,-6.103973,7.475613,-0.439843,0.376511,-1.118863
59821,2.014506,-6.366110,8.427633,-0.637360,0.467128,-1.028329
59822,2.718626,-7.076175,9.137493,-0.796489,0.600910,-0.963421
59823,3.386350,-8.491535,9.259290,-0.848231,0.685719,-0.910157
59824,3.344949,-10.003725,8.195700,-0.636011,0.733360,-0.884980
59825,3.017694,-10.603278,7.449163,-0.042091,0.765886,-0.936841
59826,2.612994,-10.562820,7.456352,0.671303,0.862765,-1.038172
59827,2.129617,-9.775679,6.978193,1.358657,0.923075,-1.100749
59828,1.962881,-7.970813,6.993726,1.870635,0.940595,-1.136839
59829,1.936241,-5.904116,7.805894,1.770568,0.944136,-1.165235
59830,2.022163,-4.659198,7.667263,1.207157,0.936467,-1.156173
59831,1.912836,-4.221370,6.763008,0.536721,0.921956,-1.114917
59832,1.811616,-4.630162,6.071021,0.078969,0.941380,-1.099276
59833,1.351888,-4.855248,6.366791,-0.145637,1.026900,-1.174524
59834,0.871735,-4.547900,6.663928,-0.421616,0.964860,-1.245600
59835,0.801821,-3.823783,5.287436,-0.687879,0.746804,-1.302376
59836,1.033293,-3.470284,3.904830,-0.934168,0.529248,-1.356874
59837,1.636327,-4.739571,3.210795,-1.158869,0.351322,-1.316493
59838,2.315860,-6.266810,4.467204,-1.226445,0.229782,-1.229941
59839,3.377468,-7.982438,7.181348,-1.367626,0.262500,-1.091055
59840,3.818241,-9.657947,9.594837,-1.339213,0.550523,-0.923283
59841,3.408381,-10.552506,11.011217,-1.046871,0.874742,-0.771195
59842,3.188769,-11.060063,11.307367,-0.772368,1.112541,-0.618835
59843,3.582764,-11.324750,10.138936,-0.424028,1.200656,-0.464477
59844,4.037248,-10.601238,8.959913,0.051579,1.265373,-0.397289
59845,3.981564,-9.943378,7.819138,0.481902,1.335613,-0.433177
59846,3.300657,-9.402363,6.546839,0.929174,1.428247,-0.506250
59847,1.965155,-8.249073,6.012938,1.345541,1.430151,-0.577775
59848,0.985805,-7.227724,6.070237,1.585305,1.314565,-0.618331
59849,0.612729,-6.484953,5.874333,1.628714,1.188398,-0.635918
59850,0.699531,-6.138252,5.403032,1.585449,1.094378,-0.628306
59851,0.743938,-5.431810,4.775311,1.542560,1.028564,-0.628924
59852,0.522013,-3.936477,3.722644,1.372177,0.850678,-0.657331
59853,0.505939,-1.901710,3.083167,0.981076,0.550721,-0.756631
59854,0.772435,0.008308,3.085836,0.260397,0.303679,-0.936155
59855,0.942016,0.293427,3.182809,-0.618177,0.171269,-1.091909
59856,1.032069,-0.992750,3.832515,-1.240555,0.126573,-1.197012
59857,1.905335,-3.041982,6.483618,-1.747677,0.176941,-1.193771
59858,3.416857,-5.243602,10.754406,-2.263894,0.492047,-1.042565
59859,4.386256,-7.491163,14.567294,-2.794028,1.089724,-0.800443
59860,4.223012,-9.892994,15.534528,-3.050814,1.634435,-0.560492
59861,3.203381,-11.500365,13.496552,-2.705912,1.889059,-0.371012
59862,2.481139,-11.994096,11.294408,-1.920071,1.984954,-0.295019
59863,1.882422,-12.196239,9.516183,-0.937093,2.021307,-0.360552
59864,1.642781,-11.873600,8.028892,0.212056,1.988218,-0.470277
59865,1.403959,-10.936424,6.397309,1.222197,1.893370,-0.530311
59866,0.984933,-9.782326,4.377851,2.030649,1.678334,-0.553195
59867,1.084159,-8.206261,3.586810,2.731377,1.416044,-0.639084
59868,1.405862,-6.432225,3.537426,3.015631,1.185003,-0.771301
59869,1.284763,-4.652661,3.030018,2.927487,0.947932,-0.911545
59870,0.800203,-2.735785,2.148464,2.582910,0.660776,-1.091518
59871,0.191636,-0.761686,1.675564,1.904033,0.400303,-1.288873
59872,-0.158369,0.854447,2.587683,1.040992,0.253339,-1.445668
59873,0.149353,1.594706,5.190052,-0.007267,0.263812,-1.519603
59874,0.985409,0.807804,8.121351,-1.207863,0.408757,-1.496593
59875,2.860290,-0.923245,11.687627,-2.375629,0.769461,-1.393533
59876,5.009439,-3.235908,14.866221,-3.581976,1.492112,-1.190704
59877,5.209668,-6.526240,15.209495,-4.360522,2.264682,-0.935992
59878,3.700087,-9.774919,12.666997,-4.207158,2.644338,-0.754405
59879,2.787110,-12.458467,9.529892,-3.322663,2.620761,-0.720258
59880,2.839178,-14.942258,8.030185,-1.965570,2.497054,-0.743143
59881,2.377886,-16.461197,6.603896,-0.422662,2.263095,-0.747820
59882,1.085270,-15.769393,4.598821,1.530946,2.003652,-0.822077
59883,-0.586527,-12.492559,3.543411,3.324434,1.686426,-0.961567
59884,-1.600669,-8.963557,2.790088,4.447169,1.309051,-1.099897
59885,-2.033407,-5.792160,2.378748,4.909631,0.958872,-1.233219
59886,-1.996425,-3.099721,1.730184,4.844047,0.616455,-1.383218
59887,-1.653228,-0.650533,1.154372,4.353042,0.224074,-1.535904
59888,-1.009177,1.513896,1.292501,3.411976,-0.179554,-1.675922
59889,0.052902,3.232878,1.906463,2.138759,-0.483436,-1.792224
59890,1.242592,4.012875,2.658520,0.546496,-0.656532,-1.834492
59891,2.521197,3.048392,3.949218,-1.023910,-0.666110,-1.857249
59892,4.290469,1.678939,7.404238,-2.333511,-0.444207,-1.884963
59893,6.280319,0.301300,12.595527,-3.751602,0.165508,-1.890300
59894,7.646524,-2.816062,16.487869,-5.308945,1.158394,-1.805844
59895,6.514019,-8.408113,16.156490,-6.119892,2.037999,-1.508829
59896,3.499963,-12.153396,12.823424,-5.526549,2.371281,-1.167792
59897,1.373769,-14.367057,8.579793,-4.221110,2.215249,-1.030481
59898,1.053918,-15.837598,6.530775,-2.157673,1.872075,-1.050331
59899,0.454920,-15.299325,5.592608,-0.297238,1.480339,-1.009612
59900,-0.868249,-13.593647,3.765073,1.121274,0.965117,-0.955305
59901,-1.280305,-11.165330,2.162112,2.452936,0.542880,-0.965088
59902,-1.156032,-9.085042,1.060071,3.397613,0.214505,-0.969623
59903,-0.752290,-6.861353,0.730156,3.931482,-0.177359,-0.975530
59904,-0.222861,-3.865432,1.418060,3.822696,-0.654436,-1.055725
59905,0.436812,-0.743274,2.844155,3.047101,-1.062176,-1.210733
59906,1.314431,1.968001,4.433371,1.741838,-1.265617,-1.390122
59907,2.619711,3.252946,6.628783,-0.028556,-1.202139,-1.500088
59908,4.712969,2.488206,9.458101,-1.800314,-0.758943,-1.571617
59909,7.905013,1.783581,15.351931,-3.440523,0.256987,-1.607600
59910,9.491972,-0.351744,20.377074,-5.515259,1.724008,-1.537611
59911,6.065615,-6.903701,17.428544,-6.619850,2.694526,-1.285202
59912,3.666933,-12.476281,10.980103,-5.763290,2.741603,-0.801392
59913,2.162136,-16.324689,5.514955,-4.148133,2.492034,-0.418034
59914,0.535464,-18.604997,3.409705,-1.893701,2.014384,-0.351237
59915,-0.563946,-17.950414,2.842618,0.301503,1.431060,-0.389236
59916,-0.782441,-14.661404,2.557838,2.193529,0.984573,-0.390724
59917,-0.688566,-11.063868,1.552379,3.516043,0.782415,-0.370156
59918,-0.651012,-8.558637,0.297415,4.337217,0.536719,-0.307427
59919,-0.615977,-5.827213,-0.111853,4.581267,0.088009,-0.254017
59920,-0.418876,-2.686007,1.193948,4.133098,-0.426327,-0.303425
59921,0.288170,0.350282,3.027447,2.909369,-0.845655,-0.423108
59922,1.506956,2.708307,4.066083,1.057458,-1.044878,-0.500931
59923,2.868480,3.686077,4.541160,-1.121792,-0.897145,-0.520960
59924,3.625584,2.719019,4.994805,-2.979102,-0.492228,-0.575291
59925,4.527282,1.784951,5.995234,-4.394366,-0.117351,-0.640741
59926,4.781178,-0.169273,6.704794,-5.846729,0.193827,-0.708808
59927,4.566119,-3.577466,7.428512,-6.921673,0.394783,-0.867949
59928,4.694084,-7.247164,9.569623,-7.370645,0.589974,-1.089440
59929,4.907437,-10.311934,11.192901,-7.519258,1.021719,-1.184232
59930,3.602061,-15.324268,9.346318,-6.989879,1.497273,-0.981822
59931,1.114023,-20.540019,5.097059,-4.539408,1.639408,-0.693395
59932,-0.820179,-21.545948,2.120717,-1.068817,1.373331,-0.505845
59933,-1.675570,-18.614098,1.334168,1.633466,0.722526,-0.357094
59934,-1.174945,-14.861414,1.292954,3.108899,0.060907,-0.225298
59935,-0.136458,-12.436406,0.515939,4.032562,-0.276986,-0.123892
59936,0.939493,-10.036108,0.196397,4.611530,-0.394268,-0.029565
59937,1.505914,-7.131172,0.674187,4.288326,-0.546662,0.105756
59938,1.378575,-4.803099,0.428735,3.517548,-0.855300,0.185409
59939,1.825238,-2.473776,0.863519,2.540346,-1.281805,0.202362
59940,3.455704,-0.008932,2.326300,0.707187,-1.527525,0.201724
59941,5.048817,1.412854,3.243392,-1.658932,-1.249650,0.145351
59942,5.760432,2.057233,4.080697,-3.581234,-0.662555,-0.042331
59943,5.296779,1.516800,6.352057,-5.201225,-0.101432,-0.292041
59944,5.011464,-0.996391,9.156898,-6.824807,0.306721,-0.572476
59945,4.279732,-3.992535,9.527573,-8.001604,0.889063,-0.821377
59946,2.276059,-9.493697,8.064365,-8.269685,1.237903,-1.075243
59947,2.291633,-17.207296,6.910966,-7.378282,1.139965,-0.953512
59948,2.814667,-23.382938,5.085743,-4.544772,1.033939,-0.476775
59949,2.880395,-24.528880,4.268306,-0.872699,1.028039,-0.229254
59950,2.065202,-21.872875,2.325243,1.971775,0.902536,-0.113792
59951,0.201469,-17.298737,-0.711068,4.341183,0.613289,-0.150034
59952,-1.181524,-13.313303,-2.696194,6.421052,0.133931,-0.287214
59953,-0.756761,-10.990860,-1.516388,7.266737,-0.446935,-0.236291
59954,0.840003,-9.722641,-0.601832,6.799672,-0.814707,0.015474
59955,1.407702,-7.854122,-1.299851,6.080803,-0.931601,0.323113
59956,1.239735,-4.973383,-1.543741,5.167998,-1.242205,0.494202
59957,2.137257,-1.673956,-0.349032,3.698124,-1.725913,0.457574
59958,4.194267,2.291497,1.994078,1.580591,-1.850586,0.241960
59959,5.955523,5.371048,4.798155,-0.909697,-1.408178,-0.017662
59960,6.935860,4.352248,6.219760,-3.132788,-0.754910,-0.238667
59961,7.036771,0.682340,7.215027,-4.627430,-0.011958,-0.442845
59962,5.770548,-3.480483,7.787485,-5.568706,0.502566,-0.518062
59963,3.668757,-8.141669,6.883019,-5.698252,0.656678,-0.615575
59964,2.794392,-13.425255,5.875047,-4.719208,0.511566,-0.806609
59965,3.826916,-16.488329,6.361947,-2.882697,0.264985,-0.757977
59966,3.502794,-17.150896,5.354630,-1.114015,0.252324,-0.585105
59967,1.855491,-16.219841,2.107806,0.906224,0.204670,-0.578259
59968,-0.075566,-14.303403,-0.266312,2.904416,-0.068406,-0.593604
59969,-1.286101,-12.817430,-1.134039,4.196261,-0.707576,-0.517264
59970,-0.988461,-11.772279,-1.436969,4.771467,-1.463104,-0.349380
59971,0.544170,-9.896691,-1.691787,4.890174,-2.018073,-0.117670
59972,2.016957,-7.409433,-1.881909,4.726716,-2.330841,0.092739
59973,3.229829,-4.733187,-1.710677,4.407786,-2.615200,0.168683
59974,5.402070,-2.222936,-0.787270,3.670690,-2.938236,0.114559
59975,7.910363,-0.391913,1.616155,2.534164,-2.900355,-0.043847
59976,8.918816,0.663679,5.027780,1.159071,-2.451767,-0.300656
59977,8.618264,0.781126,8.331345,-0.164969,-1.795098,-0.606509
59978,7.816011,-0.060898,9.889700,-1.425240,-1.160406,-0.853022
59979,6.196977,-1.754663,9.830598,-2.259715,-0.624617,-1.011818
59980,4.944012,-3.909296,9.481890,-2.667806,-0.381354,-1.076890
59981,4.386950,-6.661283,7.592988,-2.794034,-0.339566,-1.021971
59982,3.744841,-9.383719,4.343138,-2.249198,-0.393135,-0.875388
59983,2.653533,-11.297780,1.913809,-1.330047,-0.608906,-0.778843
59984,2.032821,-12.995370,1.378851,-0.435294,-1.019390,-0.774820
59985,2.454756,-13.769985,1.470075,0.525689,-1.403170,-0.732599
59986,3.119276,-13.066911,1.198436,1.555097,-1.581967,-0.596969
59987,2.902012,-11.638427,0.402239,2.675958,-1.751732,-0.456816
59988,3.085233,-9.229538,0.323842,3.726334,-2.074470,-0.379661
59989,4.283446,-6.461268,1.486992,4.109900,-2.446070,-0.323895
59990,6.720669,-3.961566,2.886356,3.840464,-2.672262,-0.313932
59991,9.283520,-2.037927,4.742943,3.225695,-2.541438,-0.391646
59992,10.845284,-0.909401,7.456960,2.310243,-2.210167,-0.551899
59993,11.581157,-0.531676,9.876259,1.252471,-1.693973,-0.763997
59994,10.779181,-1.178735,10.361422,0.338132,-1.057732,-0.951339
59995,9.113731,-2.290120,9.506810,-0.113215,-0.558644,-1.080490
59996,7.926656,-3.770506,9.198699,-0.447970,-0.330468,-1.107664
59997,7.691365,-5.563921,8.861556,-0.803073,-0.237948,-1.061738
59998,7.903989,-7.359193,8.016354,-0.784193,-0.115025,-0.980722
59999,7.467067,-8.832145,6.484848,-0.294294,0.036292,-0.891561
60000,5.893414,-9.747225,4.200439,0.560152,-0.012211,-0.809652
60001,4.381973,-10.203205,2.200297,1.539292,-0.359781,-0.725730
60002,4.082508,-9.803241,0.894444,2.396252,-0.921029,-0.682936
60003,5.224563,-8.500687,0.832052,2.981250,-1.380645,-0.635370
60004,6.554661,-6.087848,1.460266,3.290036,-1.514481,-0.606502
60005,7.056547,-3.393369,2.472941,3.334891,-1.493921,-0.645424
60006,7.729996,-1.021425,3.701578,3.075078,-1.506600,-0.727996
60007,9.122833,0.562538,5.184603,2.432765,-1.513327,-0.783168
60008,10.395382,0.807523,7.914653,1.641903,-1.259519,-0.832906
60009,11.259540,-0.136652,10.997777,0.822411,-0.841559,-0.883851
60010,10.628097,-2.269484,11.783647,0.318909,-0.267303,-0.814219
60011,8.275575,-4.856899,9.584443,0.123378,0.018656,-0.611229
60012,6.522501,-7.816474,5.639703,0.302897,-0.142081,-0.442221
60013,6.318649,-9.195840,2.945608,1.103482,-0.407808,-0.351484
60014,5.607617,-8.446606,0.219297,1.986919,-0.641673,-0.287672
60015,4.247801,-6.777280,-2.793254,2.835171,-0.925339,-0.360536
60016,3.769570,-4.905003,-3.245581,3.720545,-1.272487,-0.503680
60017,4.805514,-3.283623,-2.908218,3.961735,-1.654003,-0.425713
60018,5.537293,-1.723462,-3.076770,3.781907,-2.038596,-0.283989
60019,5.710007,0.790987,-2.833825,3.512285,-2.373960,-0.201672
60020,6.717719,3.459475,-1.105261,2.819353,-2.721637,-0.176445
60021,8.727508,5.383547,1.325933,1.736549,-2.808906,-0.135248
60022,10.827846,6.768594,4.484330,0.361312,-2.550538,-0.047721
60023,12.613805,7.383528,8.490882,-1.157218,-2.017027,-0.061717
60024,13.796709,6.730308,12.484021,-2.813823,-1.311450,-0.190844
60025,12.967927,2.616160,12.660004,-4.164461,-0.625728,-0.338467
60026,10.865364,-3.411229,9.018245,-4.215958,-0.365073,-0.375250
60027,9.726343,-8.399283,4.472187,-3.238743,-0.502418,-0.389209
60028,10.421727,-11.049587,2.314496,-1.585742,-0.822753,-0.527488
60029,10.705580,-10.690646,3.035601,0.113964,-0.899714,-0.711187
60030,9.718612,-8.464751,3.041990,1.258012,-0.916594,-0.842271
60031,8.614575,-6.158396,1.970851,2.002638,-0.952888,-0.903212
60032,7.944293,-4.216291,0.709775,2.353680,-1.044932,-0.835023
60033,7.872238,-3.072426,-0.423568,2.334303,-1.187431,-0.665606
60034,7.649052,-2.238809,-1.426968,2.139642,-1.429533,-0.464053
60035,7.495351,-1.160131,-1.820946,1.749624,-1.818176,-0.337820
60036,8.656676,0.026323,-0.432869,1.361107,-2.096258,-0.300191
60037,10.521278,1.463108,2.259575,0.857926,-2.016075,-0.280396
60038,12.079117,2.558026,5.419189,0.074602,-1.663628,-0.257472
60039,12.636946,2.531634,7.521688,-0.900326,-1.222012,-0.264643
60040,12.522626,0.763675,7.838266,-1.560206,-0.876835,-0.321710
60041,12.330542,-2.446126,6.486287,-1.646112,-0.706853,-0.350754
60042,11.263085,-5.344018,3.762775,-1.003655,-0.549432,-0.388512
60043,10.374312,-5.960315,2.486722,-0.076577,-0.627573,-0.526461
60044,10.613767,-5.352307,2.735566,0.680734,-0.707495,-0.659114
60045,10.389760,-4.178673,2.633017,1.103232,-0.614745,-0.679774
60046,9.184786,-2.934550,1.016611,1.238760,-0.514991,-0.658623
60047,7.669926,-2.090633,-1.764180,1.274685,-0.603418,-0.606559
60048,7.052447,-1.696608,-3.584735,1.147031,-0.919766,-0.440685
60049,8.093195,-1.642215,-3.777112,0.966056,-1.273228,-0.210029
60050,8.778123,-1.844243,-3.412704,0.516547,-1.500249,0.089876
60051,8.958653,-1.115357,-2.183721,0.086258,-1.642680,0.218579
60052,10.116210,0.588131,0.484878,-0.130137,-1.654390,0.192573
60053,11.402020,2.006045,3.321961,-0.725417,-1.457232,0.181224
60054,12.082439,2.942827,6.029095,-1.526447,-1.123810,0.098820
60055,12.413940,2.132822,6.924137,-2.167325,-0.845706,-0.061299
60056,12.606791,-0.501725,6.322403,-2.206221,-0.545907,-0.225949
60057,12.404465,-3.466020,4.241293,-1.582187,-0.224185,-0.410927
60058,11.123815,-4.475619,1.998338,-0.642788,-0.054139,-0.501123
60059,10.872775,-3.856953,2.109253,-0.077411,-0.143523,-0.562086
60060,11.211693,-2.748062,2.771499,0.219705,-0.085040,-0.640018
60061,10.665752,-2.031711,2.125842,0.322715,0.202462,-0.702825
60062,9.080737,-1.658769,0.158179,0.433290,0.369989,-0.699180
60063,7.857426,-1.471076,-1.545155,0.359909,0.210521,-0.620253
60064,7.949407,-2.245002,-2.083227,0.133638,-0.076510,-0.466879
60065,8.711194,-3.272521,-2.037957,-0.033080,-0.233315,-0.266885
60066,9.012041,-3.838053,-1.956151,0.020605,-0.290148,-0.052715
60067,9.233444,-3.000048,-1.083477,0.267837,-0.417924,0.047485
60068,9.806574,-1.359307,0.396457,0.462323,-0.510477,0.022507
60069,10.384166,0.133540,2.345567,0.584545,-0.465681,-0.093500
60070,10.772298,1.036307,3.762690,0.501868,-0.295745,-0.257312
60071,10.851733,0.431481,3.580250,0.297745,-0.055502,-0.386478
60072,10.580038,-0.775553,2.395296,0.204852,0.154262,-0.447784
60073,10.219610,-1.639359,1.294093,0.341212,0.243300,-0.448264
60074,10.260058,-2.341774,1.113812,0.584658,0.200697,-0.432243
60075,10.313950,-2.377583,1.153109,0.914666,0.198666,-0.449561
60076,10.077817,-2.247970,0.791217,1.238217,0.225622,-0.492563
60077,9.609118,-2.302739,-0.084185,1.584808,0.230996,-0.529669
60078,8.795251,-2.260170,-1.678641,1.852035,0.190887,-0.473525
60079,7.977714,-1.018475,-2.873627,2.064764,0.083080,-0.369211
60080,8.376552,1.266484,-2.144984,2.074141,-0.074815,-0.267020
60081,9.119855,2.339666,-0.889826,1.339439,-0.199891,-0.108817
60082,9.195579,1.233505,-0.728946,0.458537,-0.198099,0.055261
60083,9.136161,0.214949,-1.080329,0.097434,-0.212133,0.170107
60084,9.194220,-0.175846,-0.919454,0.023427,-0.304469,0.252784
60085,9.558376,-0.394004,-0.362097,-0.011394,-0.418844,0.291497
60086,10.042273,-0.412930,0.379585,-0.005903,-0.459787,0.271744
60087,10.349067,-0.341387,0.934286,0.055392,-0.418560,0.206644
60088,10.307866,-0.345059,1.020724,0.145893,-0.346345,0.110852
60089,10.214154,-0.231968,0.880914,0.225421,-0.311222,0.014068
60090,10.066349,-0.144094,0.804358,0.294456,-0.303243,-0.071739
60091,10.196880,0.060820,0.945731,0.361933,-0.292629,-0.144401
60092,10.309868,0.147049,1.128658,0.313628,-0.238718,-0.191558
60093,10.363477,-0.004927,1.052639,0.216923,-0.183669,-0.207375
60094,10.345248,-0.167450,0.992706,0.154942,-0.135562,-0.212443
60095,10.409482,-0.451148,0.921999,0.100159,-0.087725,-0.201422
60096,10.356474,-0.689313,0.784762,0.053700,-0.020541,-0.169757
60097,10.217733,-0.887427,0.624912,0.040502,0.027002,-0.134672
60098,10.151918,-0.928726,0.457082,0.020853,0.058233,-0.086805
60099,10.038374,-0.993308,0.405913,0.033031,0.087812,-0.038311
60100,9.974197,-0.999427,0.366803,0.057891,0.100481,0.004615
60101,9.971607,-0.941991,0.371463,0.088746,0.121562,0.039055
60102,9.929994,-0.855940,0.314091,0.116189,0.134700,0.057890
60103,9.949454,-0.734464,0.378713,0.141773,0.147249,0.067626
60104,10.013126,-0.702303,0.365925,0.151055,0.168816,0.071224
60105,10.023099,-0.735051,0.254246,0.145693,0.189414,0.071144
60106,9.948001,-0.724310,0.114467,0.167332,0.203409,0.073581
60107,9.813811,-0.599507,0.092009,0.182737,0.189222,0.064250
60108,9.869205,-0.495140,0.093407,0.151821,0.175925,0.050533
60109,9.805506,-0.508169,0.061344,0.136329,0.169869,0.048692
60110,9.737878,-0.417550,0.051473,0.143668,0.149517,0.049835
60111,9.719309,-0.278373,0.088324,0.108387,0.124750,0.040668
60112,9.865727,-0.257967,0.173377,0.036257,0.114608,0.027049
60113,9.831232,-0.543847,0.108506,-0.046460,0.117864,0.033361
60114,9.700198,-0.791130,-0.020222,-0.044030,0.118108,0.043839
60115,9.636950,-0.803585,-0.061199,0.001744,0.077428,0.042697
60116,9.692953,-0.724827,0.097702,0.024345,0.041986,0.032790
60117,9.803024,-0.611568,0.193271,0.008752,0.029662,0.014969
60118,9.752865,-0.675121,0.186202,0.005498,0.031066,-0.000192
60119,9.639692,-0.624974,0.203787,0.035863,0.025771,-0.005903
60120,9.568821,-0.572166,0.297662,0.051544,0.010423,-0.025006
60121,9.580156,-0.443100,0.405856,0.035006,0.003793,-0.043740
60122,9.589175,-0.387874,0.469788,-0.003594,-0.000654,-0.080717
60123,9.507997,-0.574812,0.380005,-0.046574,0.017721,-0.100163
60124,9.379610,-0.746879,0.323962,-0.035640,0.009495,-0.114162
60125,9.524626,-0.787912,0.353880,-0.032743,-0.014148,-0.131474
60126,9.657809,-0.893287,0.267077,-0.057783,-0.013582,-0.149209
60127,9.625286,-0.967113,0.216213,-0.016420,-0.016541,-0.149139
60128,9.674495,-0.829932,0.215141,0.026244,-0.050459,-0.155524
60129,9.716734,-0.664513,0.191056,0.054126,-0.079926,-0.165125
60130,9.845266,-0.553344,0.326664,0.059727,-0.103404,-0.175953
60131,9.958657,-0.462778,0.376622,0.053168,-0.108938,-0.183291
60132,10.070519,-0.447641,0.382261,0.040570,-0.112159,-0.188924
60133,10.177817,-0.463459,0.375807,0.019785,-0.104274,-0.197646
60134,10.238026,-0.512559,0.280786,-0.007108,-0.098047,-0.204423
60135,10.233060,-0.613967,0.255110,-0.014287,-0.092808,-0.224052
60136,10.183258,-0.595613,0.228076,0.003846,-0.087999,-0.230019
60137,10.066980,-0.480496,0.265858,0.009447,-0.095646,-0.237870
60138,9.903760,-0.323978,0.257893,0.009354,-0.101103,-0.234591
60139,9.750580,-0.194040,0.360895,0.019108,-0.110188,-0.208387
60140,9.704919,-0.057184,0.348372,0.014476,-0.111086,-0.176061
60141,9.646322,-0.020777,0.300749,-0.012020,-0.095632,-0.128770
60142,9.567824,0.017652,0.242187,-0.019016,-0.080788,-0.073007
60143,9.576476,0.101132,0.219528,-0.005578,-0.064334,-0.021739
60144,9.636546,0.185595,0.215520,-0.014158,-0.054212,0.021184
60145,9.692551,0.234169,0.200651,-0.001026,-0.040374,0.056051
60146,9.748884,0.341472,0.270176,0.014714,-0.026247,0.084095
60147,9.892386,0.420539,0.331753,0.005094,-0.010656,0.091330
60148,9.991544,0.389771,0.354275,-0.019729,0.006687,0.096477
60149,10.129300,0.267827,0.360372,-0.043564,0.030228,0.088482
60150,10.239051,0.119499,0.253489,-0.064849,0.059399,0.070257
60151,10.205367,-0.066990,0.208024,-0.082100,0.076415,0.048761
60152,10.215547,-0.218400,0.160662,-0.072541,0.079274,0.016862
60153,10.106451,-0.428934,0.074266,-0.057553,0.089411,-0.008462
60154,9.967094,-0.496761,0.069703,-0.036219,0.073301,-0.028838
60155,9.808377,-0.494332,0.133848,-0.012373,0.049665,-0.038208
60156,9.745893,-0.424763,0.131970,-0.012965,0.033989,-0.029425
60157,9.758103,-0.402804,0.127290,-0.015783,0.024476,-0.015028
60158,9.691724,-0.353520,0.072272,-0.028436,0.030626,0.010579
60159,9.651892,-0.356041,0.089445,-0.044839,0.027574,0.035726
60160,9.676552,-0.305983,0.037409,-0.050219,0.025646,0.056491
60161,9.727735,-0.307498,0.057515,-0.064496,0.028380,0.079362
60162,9.830235,-0.306342,0.095868,-0.081591,0.037451,0.102386
60163,9.947926,-0.346875,0.135366,-0.092456,0.044136,0.119674
60164,10.021358,-0.421132,0.177541,-0.098312,0.047587,0.127551
60165,10.150973,-0.444507,0.210472,-0.096688,0.049525,0.133401
60166,10.220506,-0.476167,0.284667,-0.099023,0.045019,0.132365
60167,10.267434,-0.501695,0.254879,-0.095749,0.046379,0.123783
60168,10.258808,-0.501817,0.279275,-0.096102,0.055785,0.110739
60169,10.238639,-0.504972,0.271978,-0.097782,0.056450,0.094409
60170,10.127370,-0.510997,0.261481,-0.090831,0.064432,0.083356
60171,10.033140,-0.464207,0.256605,-0.108859,0.065986,0.074511
60172,9.975787,-0.523366,0.271629,-0.124142,0.067766,0.072248
60173,9.914717,-0.598886,0.234846,-0.126210,0.073764,0.073831
60174,9.829846,-0.638013,0.256961,-0.131081,0.070244,0.072377
60175,9.773267,-0.681365,0.232376,-0.140497,0.073738,0.072156
60176,9.710979,-0.771905,0.234165,-0.124694,0.068967,0.072786
60177,9.728506,-0.802833,0.291600,-0.104129,0.063706,0.075023
