// Start Time: Unknown
// Update Rate: 100.0Hz
// Filter Profile: human (46.1)
// Firmware Version: 4.3.5
PacketCounter,Acc_X,Acc_Y,Acc_Z,Gyr_X,Gyr_Y,Gyr_Z
57531,9.697498,-1.149778,0.667121,0.019260,-0.019937,0.004260
57532,9.747075,-1.089296,0.712010,0.019122,-0.025934,0.005117
57533,9.744517,-1.035258,0.667183,0.018266,-0.028461,0.006113
57534,9.757839,-0.933921,0.709566,0.012500,-0.032081,-0.000554
57535,9.804765,-0.800316,0.789712,0.001610,-0.036823,-0.011102
57536,9.873446,-0.762840,0.884694,-0.020112,-0.017894,-0.025879
57537,9.874267,-0.775015,0.864375,-0.045858,0.001895,-0.036652
57538,9.842104,-0.833063,0.787628,-0.056237,0.008596,-0.040036
57539,9.774482,-0.862408,0.749656,-0.044771,0.001447,-0.042901
57540,9.945521,-0.787754,0.885244,-0.038846,0.005659,-0.052681
57541,10.154122,-0.742347,1.263404,-0.058397,0.041058,-0.062267
57542,10.295477,-0.774737,1.551363,-0.110394,0.122330,-0.067094
57543,10.148348,-1.011684,1.348333,-0.141356,0.206605,-0.068471
57544,9.809666,-1.224250,0.939272,-0.133470,0.232556,-0.057499
57545,9.431804,-1.304431,0.362953,-0.130299,0.196523,-0.043103
57546,8.964164,-1.268165,-0.375403,-0.148567,0.103014,-0.023371
57547,8.667406,-1.187604,-0.907178,-0.182573,-0.042902,0.009025
57548,8.890458,-1.182420,-1.068903,-0.231047,-0.186521,0.052276
57549,9.215361,-1.173800,-0.724495,-0.279467,-0.286218,0.111222
57550,9.601301,-1.334057,-0.175429,-0.378503,-0.325244,0.180759
57551,9.886579,-1.491535,0.567295,-0.457149,-0.313347,0.235089
57552,9.948755,-1.675178,1.101932,-0.498993,-0.267657,0.268130
57553,9.971802,-1.771431,1.478883,-0.442844,-0.222813,0.277169
57554,10.002002,-1.558010,1.908421,-0.377977,-0.154468,0.240447
57555,10.123682,-1.495058,2.217807,-0.280556,-0.084016,0.192814
57556,10.503940,-1.303063,2.782952,-0.157009,0.027393,0.113943
57557,10.984156,-1.254893,2.965594,-0.065858,0.198216,0.025596
57558,10.998205,-1.621394,2.451721,0.065078,0.411012,-0.043329
57559,10.361446,-1.662864,1.634655,0.278041,0.551816,-0.092913
57560,9.810296,-1.431124,0.867714,0.473716,0.516580,-0.131471
57561,9.970248,-1.100264,0.697407,0.496656,0.416398,-0.142088
57562,10.448052,-1.006891,0.945023,0.340973,0.413694,-0.109719
57563,10.542409,-0.904023,1.175268,0.135851,0.525172,-0.053735
57564,10.047137,-1.067758,0.882373,-0.061758,0.636269,-0.001850
57565,9.229646,-1.376324,-0.056618,-0.153171,0.624562,0.059277
57566,8.590010,-1.664428,-0.870452,-0.190366,0.467643,0.133331
57567,8.631585,-1.860056,-0.859046,-0.236033,0.246622,0.221495
57568,9.255841,-2.051470,-0.357126,-0.351921,0.087708,0.318602
57569,9.819696,-2.356879,0.324825,-0.375325,0.088225,0.409244
57570,9.810838,-2.355277,0.717833,-0.289592,0.158977,0.454283
57571,9.347318,-2.240469,0.710170,-0.159765,0.163620,0.441479
57572,8.734790,-1.793220,0.912783,0.047740,0.054128,0.357332
57573,9.189682,-0.832575,2.065702,0.185657,-0.050334,0.216809
57574,10.301257,-0.100663,3.422768,0.184455,0.041716,0.066221
57575,11.092514,0.014722,3.763292,0.142332,0.323708,-0.055738
57576,10.811054,-0.342664,3.259034,0.224492,0.631818,-0.149483
57577,10.408884,-0.818258,2.804798,0.388431,0.802823,-0.228226
57578,10.840915,-1.484575,2.743289,0.397520,0.834466,-0.213453
57579,11.238577,-1.967344,2.924056,0.345563,0.921538,-0.146660
57580,10.830724,-1.760172,2.775672,0.283270,1.048897,-0.104726
57581,9.689180,-1.494910,1.917498,0.200408,1.114298,-0.096814
57582,8.828305,-1.678362,0.779858,0.174989,1.011264,-0.061774
57583,8.433625,-1.983236,-0.124849,0.101185,0.809619,0.047671
57584,8.366371,-2.439304,-0.752293,0.017182,0.580133,0.178572
57585,8.566073,-2.745172,-0.901592,-0.074922,0.350389,0.326579
57586,9.009243,-2.932377,-0.580359,-0.225256,0.183747,0.460924
57587,9.194319,-2.952334,-0.227573,-0.238000,0.112274,0.570176
57588,9.094261,-2.687393,0.137904,-0.133399,0.061668,0.632474
57589,9.060969,-2.514858,0.943944,-0.064950,-0.004426,0.674557
57590,9.363000,-2.254000,2.822571,-0.083203,-0.021777,0.707980
57591,10.341309,-1.841194,5.299135,-0.334297,0.109745,0.745098
57592,11.497774,-1.819927,6.395705,-0.630134,0.445499,0.797405
57593,11.825524,-2.485635,5.553698,-0.608364,0.848681,0.839868
57594,11.149991,-3.516976,4.351629,-0.129386,1.220832,0.803371
57595,10.169869,-3.905237,4.521734,0.256065,1.395382,0.736115
57596,10.038422,-4.485847,4.625194,0.376835,1.332895,0.737956
57597,10.166333,-4.328762,4.232733,0.770484,1.339613,0.721891
57598,9.998125,-3.386038,3.491488,1.055165,1.362802,0.694115
57599,9.357362,-2.730293,2.374808,1.245870,1.348988,0.689178
57600,8.357956,-2.302727,1.424171,1.389094,1.262423,0.705410
57601,7.932129,-2.020246,1.082143,1.348171,1.057918,0.762407
57602,8.279048,-2.044521,1.126820,0.947591,0.821106,0.870645
57603,9.128258,-2.279421,0.950145,0.381128,0.688585,1.024733
57604,9.521132,-2.235392,0.966760,-0.082577,0.660783,1.140705
57605,9.178209,-1.722470,1.171910,-0.407645,0.646076,1.169737
57606,8.566670,-1.155955,1.671011,-0.618041,0.576639,1.093412
57607,8.583450,-0.769574,3.115389,-0.937188,0.538459,1.001870
57608,9.025838,-1.102138,4.763876,-1.463653,0.597442,0.968077
57609,9.552862,-2.236103,5.434441,-1.900405,0.777519,1.029148
57610,9.469027,-3.661865,5.218990,-1.873392,1.035394,1.120212
57611,8.960460,-5.210883,5.058552,-1.438740,1.184634,1.208212
57612,8.865734,-6.185465,5.122719,-0.966889,1.146758,1.305004
57613,9.139205,-6.671108,4.711097,-0.613558,1.039705,1.397784
57614,9.036850,-6.539447,3.805270,-0.227581,0.958073,1.443495
57615,8.207230,-5.900889,2.649716,0.162562,0.873574,1.440299
57616,7.034748,-5.413687,1.413239,0.531681,0.703682,1.400246
57617,6.112331,-5.019100,0.062202,0.794834,0.409581,1.382171
57618,5.620952,-4.733986,-1.260445,0.915133,0.014755,1.391280
57619,5.800519,-4.417721,-1.708372,0.907982,-0.423399,1.392006
57620,6.600772,-3.813331,-1.480604,0.690536,-0.793537,1.380842
57621,7.538929,-3.044322,-0.995446,0.360830,-0.978246,1.359811
57622,8.086752,-2.272772,-0.094337,-0.052152,-1.016954,1.335476
57623,8.562705,-1.760307,2.690897,-0.628043,-0.903746,1.299874
57624,9.528370,-1.280794,7.217710,-1.547740,-0.591830,1.309820
57625,10.553951,-1.143791,9.836872,-2.879216,-0.017750,1.427422
57626,9.598262,-2.965521,9.159201,-3.571511,0.615524,1.513461
57627,8.150121,-5.295651,7.856106,-3.450977,0.920543,1.542645
57628,7.705228,-7.702689,6.906286,-3.092975,0.901220,1.608565
57629,8.285051,-9.602176,5.938149,-2.701432,0.738242,1.715982
57630,8.531079,-10.639152,4.149455,-1.978636,0.606319,1.752428
57631,7.852392,-10.903600,2.466551,-1.010455,0.550994,1.657343
57632,6.762940,-11.124777,0.898809,0.026004,0.388622,1.533675
57633,5.721329,-10.869498,-0.141524,1.028634,0.162264,1.461511
57634,4.933202,-10.350220,-0.863374,1.801298,-0.132992,1.451516
57635,5.043862,-9.344267,-0.655965,2.255761,-0.472653,1.492481
57636,5.952818,-8.301559,-0.061181,2.311502,-0.720215,1.568271
57637,6.618123,-6.964043,0.313853,2.305012,-0.790505,1.604455
57638,6.878226,-5.127371,0.481217,2.221815,-0.787018,1.580679
57639,7.069564,-3.634623,1.246908,1.772606,-0.775300,1.556214
57640,7.413033,-2.614727,3.237508,0.931134,-0.687708,1.546514
57641,7.932963,-1.876576,6.153982,-0.334315,-0.410732,1.577707
57642,7.927111,-2.261655,7.549986,-1.600891,0.030754,1.635588
57643,7.246585,-3.338428,7.507679,-2.230669,0.431407,1.634486
57644,6.522359,-5.124457,6.820116,-2.475252,0.644489,1.622705
57645,6.276491,-7.258051,6.376790,-2.372567,0.700393,1.617022
57646,6.396641,-9.461829,5.773266,-2.299761,0.644352,1.687289
57647,6.258069,-11.613574,4.259326,-1.762189,0.562807,1.768623
57648,5.686314,-12.698204,2.400256,-0.750411,0.486270,1.792342
57649,4.812958,-13.393115,0.600907,0.491635,0.353679,1.752436
57650,4.087420,-13.031264,-0.323867,1.741428,0.129257,1.684597
57651,3.704854,-11.878459,-0.254142,2.582366,-0.153895,1.616746
57652,4.215133,-10.382083,0.221459,2.919396,-0.448944,1.597588
57653,5.074585,-8.737208,0.777589,2.941240,-0.554842,1.603407
57654,5.320243,-6.629729,1.229734,2.912216,-0.507365,1.536699
57655,5.090736,-4.551606,1.451430,2.770478,-0.455828,1.404263
57656,4.908163,-3.122948,2.099554,2.325910,-0.439431,1.259823
57657,4.891464,-2.510512,3.701375,1.451911,-0.385845,1.189787
57658,5.096029,-2.969103,5.525492,0.389139,-0.214148,1.199516
57659,5.268637,-4.085106,6.984036,-0.468635,0.097489,1.264108
57660,5.119288,-5.681587,7.530763,-0.941250,0.431337,1.313904
57661,4.559983,-7.695460,7.102405,-1.002642,0.603502,1.330157
57662,4.363929,-9.786469,6.212336,-0.688825,0.583765,1.337831
57663,4.718143,-11.550989,5.307541,-0.158433,0.520570,1.363561
57664,4.809973,-12.582132,4.554196,0.594379,0.491647,1.359563
57665,4.405621,-12.808946,4.007627,1.573295,0.504804,1.322233
57666,3.584646,-11.753565,3.520140,2.563479,0.506267,1.278143
57667,2.583082,-9.996557,3.017389,3.337288,0.467342,1.222937
57668,1.856954,-8.180653,2.683231,3.817087,0.383821,1.143165
57669,1.542724,-6.719839,2.625964,3.875529,0.234122,1.067882
57670,1.667220,-5.625270,2.684261,3.579756,0.063617,1.030111
57671,1.876333,-4.469403,2.899162,3.068220,-0.046725,1.015111
57672,1.704228,-2.997880,2.972940,2.460401,-0.143126,0.954301
57673,1.389946,-1.864097,2.745490,1.717705,-0.257023,0.813440
57674,1.374758,-1.670609,2.501672,0.821504,-0.374675,0.687891
57675,1.538170,-2.503948,2.774269,-0.118401,-0.445325,0.633974
57676,1.766701,-3.954140,3.799312,-0.964622,-0.505540,0.646592
57677,2.809666,-5.726809,6.302545,-1.711640,-0.407251,0.727147
57678,3.751979,-7.282822,9.360028,-2.183940,-0.052416,0.821510
57679,3.891940,-7.839527,11.237908,-2.323187,0.439076,0.871084
57680,3.275071,-7.785707,10.969443,-2.274046,0.806600,0.848507
57681,2.682461,-8.561489,9.777472,-2.168968,0.976429,0.830595
57682,2.353255,-10.307952,8.586577,-1.743877,1.042891,0.815186
57683,1.985048,-11.921176,7.525188,-0.894749,1.052379,0.783478
57684,1.710008,-13.109408,6.007024,0.226191,1.018342,0.741236
57685,0.943725,-13.409331,4.014537,1.439373,0.862807,0.758332
57686,0.414086,-12.339248,2.654282,2.485306,0.507862,0.768283
57687,0.574885,-10.529506,2.493800,3.239515,0.162196,0.735280
57688,0.734019,-8.290785,2.319513,3.656113,-0.105826,0.660235
57689,0.669711,-6.288886,1.841659,3.641332,-0.341853,0.553600
57690,0.687229,-4.892516,1.397634,3.277461,-0.504622,0.469635
57691,0.893069,-3.497874,2.049214,2.655389,-0.532996,0.413705
57692,1.266476,-2.176968,4.134037,1.701956,-0.425684,0.411543
57693,1.776382,-1.523115,6.295936,0.560041,-0.249306,0.483530
57694,2.320866,-1.008194,8.257568,-0.727094,0.032797,0.537939
57695,2.094374,-1.625133,8.971492,-1.937468,0.361309,0.482199
57696,1.049987,-2.972220,9.053632,-2.682844,0.552151,0.300603
57697,0.318452,-5.657859,8.610268,-2.932627,0.500154,0.146705
57698,0.466626,-9.123999,7.462321,-2.594908,0.383339,0.099369
57699,0.699235,-11.822576,6.252464,-1.744847,0.349083,0.096860
57700,0.662620,-13.105399,6.046401,-0.704681,0.318322,0.110492
57701,0.585530,-13.826992,5.959486,0.408928,0.252244,0.109133
57702,0.544110,-13.273988,5.270473,1.522951,0.138798,0.131371
57703,0.669638,-11.588063,5.099915,2.239527,-0.050734,0.176394
57704,0.946428,-10.046657,5.030783,2.533240,-0.121713,0.226528
57705,0.730023,-8.459000,4.648084,2.586862,-0.177343,0.275671
57706,0.566416,-6.998189,4.031839,2.514667,-0.251578,0.280499
57707,0.652335,-5.706882,3.990013,2.303782,-0.306680,0.293381
57708,0.695361,-4.839814,4.373683,1.950382,-0.368279,0.312369
57709,0.771610,-4.063065,5.189393,1.504043,-0.469034,0.366534
57710,1.033714,-3.839545,6.338146,0.875380,-0.550821,0.470152
57711,1.396500,-4.137886,7.071993,0.251889,-0.572623,0.597265
57712,1.647199,-4.218687,8.193461,-0.256354,-0.466933,0.646714
57713,1.379855,-4.813657,8.611160,-0.724137,-0.258109,0.537206
57714,1.087569,-6.893695,8.050906,-0.687719,-0.169262,0.400391
57715,1.304718,-9.221020,8.524755,-0.357746,-0.087190,0.355559
57716,1.045266,-10.365267,9.309955,0.147305,0.056926,0.401334
57717,0.198923,-9.947582,9.318877,0.769268,0.181390,0.481299
57718,-0.325335,-9.197886,7.807371,1.334681,0.200321,0.553588
57719,-0.004652,-8.418505,6.749642,1.896787,0.106856,0.591377
57720,0.768611,-7.303648,6.623976,2.215760,0.020242,0.593498
57721,1.169989,-5.655833,6.424628,2.386465,-0.022236,0.500710
57722,1.433204,-3.586679,6.842570,2.247981,0.004138,0.339143
57723,1.333327,-1.529856,7.907163,1.772300,0.143891,0.203479
57724,0.881384,-0.138875,8.579989,1.067068,0.179825,0.166806
57725,0.770557,0.050297,8.510873,0.285535,0.123088,0.170800
57726,0.793156,-1.005213,7.184681,-0.335818,0.090519,0.102797
57727,0.596270,-2.310801,5.380795,-0.633795,-0.018095,-0.019467
57728,0.545870,-3.830498,4.532910,-0.668832,-0.231132,-0.096836
57729,0.476613,-4.970079,5.866893,-0.716975,-0.424504,-0.104963
57730,0.409719,-5.791776,8.101500,-0.864119,-0.509145,-0.071049
57731,0.600772,-5.886086,10.653449,-1.027981,-0.419974,-0.054812
57732,0.697865,-6.559674,10.953181,-0.975912,-0.111621,-0.135601
57733,0.357853,-7.530846,10.020876,-0.644447,0.121395,-0.208889
57734,0.336754,-8.168801,8.684770,-0.083341,0.163432,-0.238835
57735,0.682065,-7.461738,8.738584,0.498884,0.133977,-0.244718
57736,0.908845,-6.570440,10.353139,0.653058,0.101673,-0.219237
57737,0.575124,-6.375491,9.405587,0.668619,0.075091,-0.216590
57738,0.032318,-5.413318,7.486049,0.799739,-0.000857,-0.300668
57739,0.278355,-4.122004,6.210280,0.849853,-0.098162,-0.481897
57740,1.023975,-2.520662,6.801672,0.980394,-0.121467,-0.690129
57741,1.606684,-1.262277,8.597068,0.715745,0.043175,-0.878650
57742,1.771355,-1.117198,10.187079,0.294146,0.326056,-1.021746
57743,1.656846,-1.211815,10.598404,-0.036959,0.559498,-1.080635
57744,1.401530,-1.245912,9.129605,-0.372049,0.704377,-1.135391
57745,1.298682,-1.998817,7.038228,-0.734687,0.703542,-1.209490
57746,1.620775,-3.834144,5.634437,-0.891298,0.493912,-1.256255
57747,2.402650,-5.271553,6.178255,-0.913717,0.237068,-1.274060
57748,2.807050,-6.150783,8.052340,-1.015504,0.269584,-1.340216
57749,2.174360,-6.653966,8.946652,-1.181630,0.511773,-1.384294
57750,1.266637,-7.591924,8.637061,-1.170355,0.692396,-1.321884
57751,0.743464,-8.501383,8.494243,-0.869925,0.753200,-1.164579
57752,0.749952,-8.757299,8.724733,-0.429046,0.790790,-1.061944
57753,1.029035,-8.555445,8.530562,0.007637,0.820882,-1.063455
57754,1.065957,-7.623872,8.029160,0.438332,0.841197,-1.147894
57755,0.866459,-6.372846,7.500762,0.771989,0.831720,-1.275859
57756,0.727399,-5.168938,6.920786,0.931005,0.765369,-1.370782
57757,0.976114,-4.008491,7.042523,1.013606,0.718428,-1.432915
57758,1.337410,-2.865238,7.786555,0.874317,0.723689,-1.478605
57759,1.789122,-2.021529,8.863876,0.596675,0.768127,-1.544072
57760,2.305964,-1.832484,9.046251,0.169848,0.862982,-1.587078
57761,2.440589,-2.269502,8.148727,-0.318709,0.964806,-1.621356
57762,2.530722,-3.092742,6.585305,-0.612484,0.945252,-1.645366
57763,2.611739,-4.010622,5.467701,-0.796999,0.810461,-1.692877
57764,3.017095,-4.584673,6.914734,-0.967800,0.641976,-1.723261
57765,3.621427,-5.744149,9.429339,-1.301984,0.706725,-1.703187
57766,3.262399,-7.282032,10.566349,-1.501879,1.023221,-1.596188
57767,1.820825,-9.080126,10.041399,-1.417584,1.309764,-1.467123
57768,0.887259,-9.986662,9.071017,-0.817178,1.409205,-1.414135
57769,1.175622,-9.894854,8.186934,-0.108079,1.372982,-1.435048
57770,2.092936,-8.840894,7.688915,0.646954,1.347904,-1.507756
57771,2.565835,-7.419286,7.497676,1.121701,1.349264,-1.608855
57772,2.302094,-6.255027,6.825006,1.340160,1.323954,-1.697461
57773,1.840136,-5.437571,6.073618,1.476282,1.211967,-1.770379
57774,1.570521,-4.232713,5.939848,1.552065,1.049749,-1.827321
57775,1.619802,-3.176152,5.853546,1.353105,0.900971,-1.863510
57776,1.559846,-2.504661,5.890789,0.998889,0.769783,-1.893977
57777,1.304018,-2.559189,5.536858,0.635495,0.643314,-1.947131
57778,1.036405,-2.877199,5.655093,0.365934,0.461668,-1.997112
57779,0.912682,-2.532284,5.759359,0.025026,0.292292,-2.055733
57780,0.732000,-2.611319,5.430413,-0.261610,0.173536,-2.129814
57781,1.272878,-3.151197,5.801952,-0.530672,0.008018,-2.141353
57782,2.326272,-4.258230,6.255488,-0.839950,-0.112407,-2.111919
57783,3.457634,-5.264228,7.467263,-1.015677,-0.128909,-2.116891
57784,4.339385,-5.725628,9.312369,-1.116969,-0.005829,-2.162397
57785,4.887504,-6.114220,10.428458,-1.168900,0.273858,-2.237596
57786,4.802801,-6.464340,10.995913,-1.144117,0.542714,-2.279403
57787,4.474794,-6.644821,10.950300,-1.040918,0.743458,-2.292583
57788,4.315794,-6.922441,10.403820,-0.856341,0.837955,-2.294258
57789,4.644329,-7.520456,9.683463,-0.575357,0.875069,-2.309438
57790,4.789376,-7.905706,8.752540,-0.192205,0.937930,-2.326661
57791,4.310886,-7.375968,7.898053,0.246682,0.995823,-2.298008
57792,3.560061,-6.395584,7.556853,0.509401,1.042733,-2.228015
57793,3.073767,-5.312037,7.839255,0.539626,1.039516,-2.121792
57794,3.378936,-4.330772,8.046694,0.412562,1.018482,-2.015856
57795,3.504775,-3.809451,7.345829,0.113194,0.985399,-1.958128
57796,3.272991,-3.644559,5.909423,-0.136929,0.877528,-1.986800
57797,3.233117,-3.909956,4.743359,-0.284398,0.704022,-2.058050
57798,3.256325,-4.189559,4.713172,-0.423843,0.508230,-2.107729
57799,3.254101,-4.276547,5.471512,-0.521169,0.371426,-2.160838
57800,3.462890,-4.374781,7.696078,-0.674280,0.329045,-2.177690
57801,3.871287,-4.502727,9.535235,-0.895567,0.434267,-2.076678
57802,4.096939,-4.474864,10.671337,-1.150696,0.616450,-1.915806
57803,4.196353,-5.297973,9.921386,-1.244556,0.825035,-1.800641
57804,4.407270,-6.177321,9.210948,-1.122566,0.885398,-1.751945
57805,4.498100,-6.506441,8.509163,-0.919115,0.839739,-1.765192
57806,4.748801,-6.721574,7.584781,-0.604192,0.811916,-1.782620
57807,4.258968,-6.887723,7.075647,-0.316440,0.804625,-1.750122
57808,3.556792,-6.482355,6.713337,-0.072576,0.754854,-1.672196
57809,3.442093,-5.887970,6.516209,0.123188,0.661222,-1.509922
57810,3.526910,-4.853790,6.600939,0.097104,0.615571,-1.354119
57811,3.113508,-4.199912,5.739521,-0.254550,0.543651,-1.239758
57812,2.395952,-4.280492,4.026089,-0.623792,0.441270,-1.172365
57813,1.644251,-5.167317,2.726693,-0.785029,0.230424,-1.112230
57814,1.703781,-5.874653,2.229567,-0.794272,-0.098471,-1.020870
57815,2.288539,-6.019033,3.228049,-0.778190,-0.360467,-0.921895
57816,3.090455,-5.778035,5.631769,-0.953413,-0.532013,-0.828754
57817,4.090863,-5.424607,8.336673,-1.301110,-0.523540,-0.762387
57818,5.049486,-5.426759,10.247690,-1.988417,-0.351718,-0.651779
57819,6.393561,-5.255873,13.403333,-2.999366,-0.101115,-0.432712
57820,5.836574,-4.706845,13.855937,-3.066195,0.511715,-0.476482
57821,5.340310,-4.031677,14.059902,-2.582827,0.922117,-0.716625
57822,6.036873,-5.407868,14.712233,-2.490508,1.117705,-0.761208
57823,5.914339,-8.738550,12.369081,-2.296358,1.360366,-0.544967
57824,4.554836,-11.275573,8.507311,-1.554736,1.543057,-0.269346
57825,3.236266,-11.992012,5.928605,-0.452941,1.610106,-0.121991
57826,2.156665,-11.326850,4.422634,0.509152,1.490695,-0.068174
57827,1.690916,-9.789595,3.376723,1.226212,1.208141,-0.064917
57828,1.279994,-7.568373,2.814475,1.600491,0.891418,-0.099508
57829,1.339452,-5.369276,2.305547,1.523814,0.550061,-0.120077
57830,1.795114,-4.006261,2.063010,1.069853,0.252237,-0.091296
57831,2.655906,-3.259991,2.785838,0.392782,0.013857,-0.038064
57832,3.684442,-3.009055,4.931825,-0.453038,-0.030369,-0.012072
57833,4.299809,-2.784775,8.161272,-1.405884,0.145072,-0.047369
57834,4.600969,-1.948945,10.990570,-2.499198,0.422607,-0.099297
57835,4.406933,-2.181632,11.789249,-3.464276,0.770730,-0.175509
57836,3.749707,-4.078600,10.367183,-3.729155,1.003683,-0.220399
57837,3.239314,-6.849880,8.144984,-3.336761,1.085567,-0.146455
57838,2.707042,-9.385113,6.200726,-2.578844,1.000021,-0.025199
57839,2.228319,-10.738752,4.661416,-1.656009,0.818486,0.027982
57840,1.785874,-11.380293,3.713835,-0.499851,0.688231,0.022511
57841,1.779840,-10.841929,3.756003,0.682693,0.562975,0.011665
57842,1.805162,-9.749320,3.287117,1.157340,0.346281,0.084591
57843,1.737747,-7.940194,2.994203,1.115470,0.065782,0.162810
57844,2.229555,-5.630762,3.440954,0.745940,-0.130271,0.178316
57845,3.122086,-3.841653,4.472723,0.172610,-0.179312,0.145552
57846,3.902476,-3.325145,5.986271,-0.645258,-0.076112,0.086041
57847,4.182354,-3.219192,8.088163,-1.488723,0.133436,-0.041271
57848,4.044298,-3.327517,10.371135,-2.314738,0.389327,-0.193131
57849,3.974057,-5.105371,11.270627,-3.095957,0.605326,-0.260325
57850,3.696403,-9.103392,9.921008,-3.320835,0.812119,-0.050624
57851,3.093337,-12.568011,7.997386,-2.694621,0.974957,0.266607
57852,2.390726,-13.917622,6.852055,-1.804976,0.988409,0.476510
57853,1.954161,-13.878342,5.832557,-0.956683,0.902880,0.579523
57854,1.821538,-12.503833,4.805823,-0.043230,0.822849,0.637822
57855,1.621506,-10.506213,4.085582,0.684502,0.771186,0.667932
57856,1.415387,-8.867420,3.907280,1.042600,0.640150,0.716480
57857,1.487998,-7.616820,4.348974,0.965490,0.520962,0.796393
57858,1.572687,-6.819823,4.246981,0.669492,0.382043,0.867138
57859,1.796810,-6.202292,3.683353,0.266443,0.280013,0.895675
57860,1.846933,-5.898236,3.121378,-0.215490,0.223268,0.891686
57861,1.621587,-6.078003,2.750861,-0.789923,0.135633,0.897135
57862,1.183053,-6.087792,2.974731,-1.370213,0.007925,0.905409
57863,0.903155,-5.098634,3.901326,-1.764438,-0.084639,0.806556
57864,0.700958,-3.489252,4.084700,-2.020295,-0.150433,0.583187
57865,0.873786,-2.354263,3.830024,-2.190989,-0.259681,0.276383
57866,1.728395,-2.387059,3.719256,-2.178149,-0.315743,-0.062739
57867,2.654732,-3.937639,3.625770,-2.014687,-0.256407,-0.385841
57868,2.805999,-6.737426,4.133855,-1.702441,-0.085691,-0.602927
57869,1.682006,-9.586467,4.972764,-1.308862,0.068813,-0.633743
57870,0.324221,-12.158364,5.657355,-0.910948,0.030190,-0.475703
57871,-0.049930,-14.103327,5.683291,-0.342122,-0.125969,-0.165108
57872,0.349982,-14.315536,5.058413,0.357843,-0.334102,0.223811
57873,1.101665,-13.186125,4.218723,0.779774,-0.548072,0.473574
57874,1.430872,-12.091036,3.209065,0.900684,-0.767034,0.599739
57875,1.680511,-11.471480,2.483155,0.920698,-1.004183,0.687298
57876,1.775837,-11.383619,2.046292,0.863885,-1.215724,0.855069
57877,1.634323,-10.812612,2.332597,0.778823,-1.396362,1.062201
57878,1.550990,-9.292663,2.779961,0.649137,-1.485556,1.200769
57879,1.450087,-7.316799,3.034099,0.400447,-1.555494,1.235687
57880,1.542956,-6.294718,3.146941,0.042522,-1.618371,1.215877
57881,1.726890,-6.263681,3.916073,-0.197509,-1.654634,1.206098
57882,1.973990,-6.285646,4.962449,-0.293215,-1.613303,1.179555
57883,2.227936,-6.690667,5.734961,-0.368453,-1.608326,1.158789
57884,2.941085,-7.980525,5.113574,-0.445106,-1.559990,1.194842
57885,2.490943,-9.788756,4.102607,-0.205241,-1.399942,1.215912
57886,1.664045,-10.656354,3.712432,0.270641,-1.380746,1.188732
57887,1.401452,-10.751415,4.629776,0.485551,-1.508126,1.170390
57888,1.997671,-10.992238,5.679208,0.599802,-1.582967,1.175556
57889,2.300557,-11.038305,6.010378,0.937550,-1.474156,1.260992
57890,1.649774,-10.832023,5.120386,1.317319,-1.414021,1.364727
57891,1.149261,-11.065643,3.343218,1.589333,-1.536345,1.480295
57892,1.473000,-10.808827,2.392802,1.812298,-1.708185,1.569190
57893,2.188179,-9.399013,2.902579,1.904150,-1.715707,1.585091
57894,2.521841,-7.442913,4.094918,1.928189,-1.576971,1.525460
57895,2.411153,-5.271811,5.732805,1.847103,-1.327014,1.397253
57896,2.065507,-3.644124,7.107140,1.574301,-1.062074,1.232647
57897,1.799115,-2.794670,7.843802,1.190888,-0.812860,1.055653
57898,1.510002,-2.607075,8.566795,0.753150,-0.634740,0.864230
57899,1.304226,-4.070396,9.438101,0.323053,-0.613549,0.722011
57900,0.751265,-7.928414,8.381246,-0.158619,-0.700070,0.826969
57901,0.577704,-10.593449,6.664225,-0.140166,-0.714488,1.008779
57902,0.387887,-11.386168,6.285273,0.151086,-0.650745,1.152037
57903,0.274402,-10.840980,5.736421,0.496826,-0.690229,1.217163
57904,0.692093,-9.767723,4.456741,0.918653,-0.694011,1.191548
57905,1.120949,-8.752126,4.076074,1.253826,-0.655830,1.124585
57906,1.522934,-8.187352,4.370269,1.509570,-0.629422,1.079640
57907,1.625366,-7.346017,5.267095,1.605856,-0.582168,1.047491
57908,1.168659,-6.219047,6.061543,1.548847,-0.519631,0.984939
57909,0.590574,-4.616800,6.781721,1.466281,-0.419186,0.879620
57910,-0.092441,-2.952160,6.995516,1.195181,-0.369582,0.752739
57911,-0.322416,-2.036183,6.893510,0.713391,-0.387782,0.622616
57912,-0.227169,-2.536615,7.264745,0.106163,-0.424833,0.512145
57913,0.115023,-4.106525,8.330878,-0.400470,-0.569548,0.413144
57914,0.126841,-7.203362,7.547734,-0.849366,-0.863008,0.525946
57915,-0.519379,-11.122081,1.975328,-1.272679,-1.239696,0.813580
57916,0.238369,-13.151193,-0.455642,-0.486841,-1.468343,0.959663
57917,1.200812,-11.944921,2.237617,0.559951,-1.531582,1.098649
57918,1.533113,-10.064119,4.234628,0.792927,-1.537654,1.218167
57919,1.352273,-7.761136,4.882041,0.716485,-1.565332,1.274076
57920,0.998981,-5.837525,4.047473,0.345876,-1.646170,1.341971
57921,0.678888,-5.524171,3.136305,-0.045125,-1.761632,1.441282
57922,0.719169,-6.105810,3.155627,-0.415571,-1.937193,1.536026
57923,1.227033,-6.434024,3.612063,-0.829411,-2.058031,1.580823
57924,1.807109,-5.612764,6.042072,-1.237923,-2.058238,1.529611
57925,1.988179,-4.505495,9.010076,-1.658759,-1.825899,1.317035
57926,1.645292,-4.019922,10.808798,-1.963687,-1.417518,0.976546
57927,1.400599,-5.198971,10.916833,-2.203160,-1.073422,0.684396
57928,1.123828,-8.539577,9.828863,-2.023304,-0.807341,0.584270
57929,0.334197,-11.381027,8.483682,-1.068737,-0.688937,0.584582
57930,-0.466809,-12.811506,6.942193,0.051822,-0.797300,0.612137
57931,-0.534788,-13.179849,5.348320,1.075694,-1.045923,0.589718
57932,-0.154095,-12.555774,4.005905,1.817893,-1.306266,0.573260
57933,0.184819,-11.543987,2.387040,2.297168,-1.448202,0.577506
57934,0.149004,-9.341606,1.655045,2.553532,-1.501992,0.633376
57935,0.092570,-6.292704,2.070081,2.386654,-1.579638,0.705036
57936,0.003524,-3.544546,2.677026,1.781020,-1.740971,0.748233
57937,0.146507,-1.617516,2.754552,0.876798,-1.955839,0.732902
57938,0.296546,-1.007229,2.579208,-0.089507,-2.122037,0.663777
57939,0.891278,-1.184337,3.810173,-1.007231,-2.150411,0.548855
57940,1.676489,-2.112153,6.980144,-1.935704,-1.900576,0.396539
57941,2.369722,-4.389014,10.301754,-2.859090,-1.509664,0.313710
57942,2.545346,-7.347720,12.272363,-3.191544,-1.013052,0.318169
57943,2.170843,-9.982767,12.346108,-2.951324,-0.599324,0.373929
57944,1.666387,-12.717565,10.758502,-2.037149,-0.408974,0.412018
57945,2.174272,-14.028558,9.292655,-0.900114,-0.422614,0.348204
57946,3.778457,-14.460973,8.377690,-0.087545,-0.431995,0.218776
57947,4.675859,-14.491270,7.581949,0.803173,-0.295802,0.147157
57948,3.772460,-13.535950,6.415943,1.741947,-0.114825,0.152740
57949,1.885485,-12.588209,4.353878,2.430026,-0.056452,0.237588
57950,0.216684,-10.930884,2.804645,2.900758,-0.166851,0.311261
57951,-0.427000,-8.106975,2.856734,2.861567,-0.333995,0.341540
57952,-0.313235,-5.179387,3.713376,2.498965,-0.455359,0.374284
57953,-0.021512,-2.651283,4.078047,1.952805,-0.509876,0.393854
57954,-0.118450,-1.486650,2.808649,1.227148,-0.614894,0.347417
57955,-0.477619,-2.122573,0.945445,0.586942,-0.882468,0.257145
57956,-0.329612,-3.384165,0.274600,0.098777,-1.284778,0.197239
57957,0.648737,-4.091677,1.821581,-0.305192,-1.571992,0.164178
57958,1.932164,-4.459163,5.048362,-0.876756,-1.605392,0.181453
57959,2.930299,-5.447433,7.933774,-1.440896,-1.407326,0.254095
57960,3.013827,-6.184836,10.087922,-1.790715,-1.026573,0.256656
57961,2.335598,-7.485701,10.135747,-1.794730,-0.643917,0.191713
57962,1.559771,-9.482154,8.266348,-1.376798,-0.522380,0.193309
57963,1.664553,-11.298807,7.095690,-0.782223,-0.558741,0.200924
57964,2.430470,-12.719520,6.639524,-0.191511,-0.580707,0.230065
57965,2.756829,-12.988381,6.282682,0.471231,-0.524383,0.261189
57966,2.511166,-12.235429,5.569816,0.959817,-0.482895,0.310740
57967,1.808656,-10.981906,3.777379,1.344024,-0.542421,0.371211
57968,1.290647,-8.764578,2.702316,1.475277,-0.745483,0.375711
57969,1.371140,-6.206684,2.888384,1.267883,-0.999145,0.364735
57970,1.144740,-4.393923,2.948817,0.935595,-1.228889,0.354825
57971,0.546591,-3.259451,2.448199,0.501736,-1.467440,0.321268
57972,0.085926,-3.035700,1.089817,0.054150,-1.754759,0.212581
57973,0.337205,-3.386225,0.057881,-0.167613,-2.104078,0.077389
57974,1.506459,-3.531902,1.198674,-0.437945,-2.424777,0.031033
57975,3.260321,-3.715893,4.221984,-1.090632,-2.567352,0.064544
57976,4.432571,-4.635086,7.073184,-1.805898,-2.319858,0.128192
57977,4.474688,-5.687585,9.648324,-2.329579,-1.860770,0.188270
57978,3.999175,-7.526748,10.837558,-2.555884,-1.390071,0.195012
57979,3.672118,-10.358854,10.370513,-2.317417,-1.016884,0.191818
57980,3.617045,-13.271324,9.069753,-1.652947,-0.849496,0.159719
57981,3.938112,-14.773960,7.895853,-0.675647,-0.774877,0.076221
57982,4.070162,-14.352704,6.921517,0.379734,-0.795857,-0.009010
57983,3.996157,-12.569519,6.251903,1.112985,-0.809567,-0.071237
57984,3.392720,-10.630716,5.458159,1.550916,-0.766074,-0.120285
57985,2.886914,-8.974810,4.950602,1.678576,-0.713726,-0.144329
57986,3.010804,-7.660335,5.159767,1.583336,-0.626256,-0.096602
57987,3.213492,-6.337036,5.326040,1.322145,-0.503942,-0.017731
57988,2.859171,-5.122680,4.652784,1.063441,-0.453143,0.010330
57989,2.451651,-4.235370,3.787846,0.735753,-0.586420,-0.054677
57990,2.089133,-3.829173,3.124057,0.374975,-0.805182,-0.205136
57991,2.060719,-4.053639,2.753326,0.155483,-1.036886,-0.395869
57992,2.451492,-4.508841,3.151537,0.082194,-1.189745,-0.598911
57993,3.178287,-4.998428,4.927185,0.042700,-1.191581,-0.699936
57994,4.062887,-5.123978,8.111690,-0.287832,-1.002382,-0.685587
57995,4.798618,-5.245188,9.444837,-0.593672,-0.669878,-0.667261
57996,5.384030,-5.676930,8.725589,-0.647641,-0.327944,-0.703351
57997,5.700221,-6.781713,7.631935,-0.574705,-0.123125,-0.786650
57998,5.642421,-7.867191,7.384182,-0.386433,0.044833,-0.939767
57999,5.582942,-8.731257,7.341457,-0.164530,0.176600,-1.097889
58000,5.033183,-9.306215,7.298140,0.156093,0.349168,-1.219267
58001,4.597977,-9.735119,7.827810,0.496745,0.454262,-1.259159
58002,4.266932,-10.065947,6.638076,0.822177,0.421377,-1.220296
58003,3.593437,-9.062772,4.274262,1.575550,0.262168,-1.286452
58004,3.912268,-6.065620,3.667938,2.329108,0.113491,-1.497519
58005,4.481478,-3.369119,3.932205,2.513651,0.103268,-1.719317
58006,4.732225,-1.810157,4.276522,2.285479,0.074996,-1.922015
58007,4.946506,-1.234774,4.503491,1.842186,0.006162,-2.053925
58008,5.396685,-1.431642,4.403671,1.186512,-0.111423,-2.049611
58009,5.930263,-2.233055,4.969968,0.341376,-0.186257,-1.953401
58010,6.369460,-3.162625,5.736666,-0.504769,-0.165718,-1.836730
58011,6.146415,-4.233504,7.051039,-1.165286,0.028709,-1.847453
58012,5.824112,-6.489452,7.317946,-1.440539,0.217112,-1.920792
58013,5.073048,-7.972267,7.386314,-1.195952,0.377605,-1.945589
58014,3.789688,-9.433241,7.014901,-0.768132,0.413328,-1.867664
58015,2.985720,-10.512571,6.201981,0.227507,0.282905,-1.797419
58016,2.898276,-9.648225,6.552531,1.311057,0.101142,-1.838405
58017,3.391521,-8.215540,6.437664,2.083426,-0.105476,-1.963931
58018,4.078148,-6.643829,5.086705,2.701874,-0.276925,-2.138875
58019,4.991096,-4.642051,3.794379,3.170085,-0.409663,-2.303249
58020,5.568933,-2.447245,3.395819,3.364465,-0.486759,-2.416860
58021,5.537285,0.153369,2.854852,3.144199,-0.657854,-2.542341
58022,5.517387,2.346698,2.513263,2.467632,-0.898508,-2.670737
58023,5.930523,3.204113,2.536878,1.492689,-1.088212,-2.709269
58024,6.544396,2.479463,3.020495,0.415249,-1.188118,-2.647886
58025,7.766575,0.717794,3.378926,-0.439281,-1.266243,-2.496789
58026,9.460166,-0.143140,4.869239,-1.404252,-1.254747,-2.251659
58027,10.942490,-1.253777,5.719959,-2.602458,-1.084518,-2.041195
58028,12.143236,-2.535452,6.324767,-3.431930,-0.834756,-1.887746
58029,12.794206,-4.376906,7.760478,-3.912703,-0.325485,-1.859348
58030,11.349262,-7.351912,8.429199,-3.847934,0.268170,-1.871403
58031,9.009993,-8.743183,8.391651,-3.264400,0.497864,-1.866292
58032,7.089896,-8.865531,7.845768,-2.429246,0.489646,-1.873089
58033,5.706203,-8.142702,6.251671,-1.346571,0.308622,-1.920216
58034,5.248365,-6.330635,3.998629,-0.429471,-0.063663,-1.983777
58035,5.560532,-4.702681,2.183707,0.272707,-0.515512,-2.103165
58036,6.261591,-3.427875,1.017844,0.700459,-0.890881,-2.242473
58037,6.915546,-2.318797,-0.009441,0.823725,-1.196272,-2.336814
58038,7.255700,-0.780315,-0.726692,0.718716,-1.480953,-2.408155
58039,7.500232,0.921273,-1.155966,0.298627,-1.826398,-2.440988
58040,8.283883,1.837190,-1.055399,-0.470184,-2.146186,-2.378978
58041,9.342503,1.352615,-0.136663,-1.282621,-2.261869,-2.186000
58042,11.512526,0.742865,3.944763,-2.012915,-2.105994,-1.851949
58043,15.099125,0.982554,11.422351,-3.395791,-1.345141,-1.391539
58044,17.706992,0.700094,16.371998,-5.238167,0.017364,-0.956776
58045,17.170376,-3.191424,14.348085,-6.254569,1.412084,-0.548009
58046,13.824694,-8.667086,9.869427,-5.514317,2.210650,-0.205490
58047,10.690722,-12.995991,7.109551,-3.762082,2.262534,-0.077673
58048,8.830248,-14.559170,5.888746,-1.784237,1.781950,-0.072373
58049,7.925128,-13.720741,4.773716,0.069857,1.289491,-0.141713
58050,7.230490,-11.077010,3.084555,1.703436,0.890079,-0.227710
58051,6.620254,-7.727854,1.850995,2.809142,0.620302,-0.276730
58052,5.860158,-5.054139,0.430067,3.290387,0.317743,-0.309806
58053,5.239705,-3.296541,-1.256708,3.416580,-0.065062,-0.347889
58054,4.556787,-2.066659,-3.225983,3.352897,-0.571277,-0.401722
58055,4.271045,-0.612249,-4.507495,3.247422,-1.257858,-0.515280
58056,4.799140,1.021004,-4.664824,2.980169,-1.904711,-0.631108
58057,5.982528,2.206492,-3.609400,2.312636,-2.369829,-0.616965
58058,7.826788,2.389108,-1.355697,1.320064,-2.509363,-0.426472
58059,9.844956,2.240683,2.808626,0.117921,-2.290209,-0.093674
58060,12.001734,2.438232,8.397883,-1.355021,-1.688504,0.274661
58061,14.378093,3.458511,13.950358,-3.290068,-0.686993,0.532066
58062,15.523686,2.421848,14.486212,-5.291756,0.458710,0.629383
58063,13.760712,-2.417260,10.711541,-5.980266,1.444883,0.642506
58064,9.329313,-9.105157,6.040185,-4.520789,1.813937,0.719855
58065,6.194374,-12.276258,3.346423,-1.703497,1.328913,0.565206
58066,5.871213,-11.482149,1.932106,0.794271,0.520754,0.316841
58067,6.146551,-8.686304,0.664641,2.524239,-0.242665,0.082790
58068,6.185122,-4.198156,0.119335,3.569960,-0.820783,-0.145769
58069,6.167762,-0.411838,-0.453003,3.729746,-1.248939,-0.266342
58070,6.324819,1.048732,-1.476894,3.456636,-1.701126,-0.293826
58071,7.075869,1.647461,-2.318400,3.056124,-2.101082,-0.258806
58072,8.022518,2.752547,-1.732189,2.141052,-2.485285,-0.118565
58073,9.216745,3.438757,-0.763361,0.813015,-2.664852,0.044861
58074,10.153930,3.799289,0.525292,-0.313571,-2.477876,0.126142
58075,10.912985,4.103139,3.382871,-1.305889,-2.084977,0.145297
58076,12.484229,4.116264,7.484146,-2.486501,-1.555536,0.119433
58077,13.946082,4.548236,10.496976,-3.858957,-0.697868,-0.042035
58078,13.749409,2.106918,9.766598,-4.967162,0.223030,-0.287818
58079,11.312560,-4.930224,6.017538,-4.016965,0.639389,-0.361537
58080,8.328696,-12.686490,3.528436,-1.129873,0.515910,-0.107732
58081,5.745304,-12.350011,0.575891,0.900804,-0.290349,-0.055711
58082,6.190964,-8.270525,-1.500525,1.220365,-1.229056,-0.335762
58083,8.431337,-4.812586,-0.415577,1.744222,-1.402298,-0.481024
58084,9.861478,-1.614823,1.525209,2.016224,-0.889048,-0.354587
58085,9.825025,0.203061,2.195253,1.484447,-0.485129,-0.142478
58086,9.631676,0.541297,1.117960,0.044084,-0.458334,0.154455
58087,9.641804,0.373392,-0.548687,-0.899104,-0.418453,0.423801
58088,9.838181,1.175590,-0.418201,-1.399144,-0.459736,0.526872
58089,10.326574,2.636860,1.779330,-2.080149,-0.674014,0.429652
58090,11.497115,3.534007,5.212425,-2.784044,-0.715160,0.049656
58091,11.731795,1.995074,6.804946,-3.075626,-0.467408,-0.389421
58092,10.444730,-1.782573,4.650230,-2.190015,-0.250887,-0.635184
58093,9.189209,-2.973427,2.008274,-0.640004,-0.307470,-0.901579
58094,9.350335,-4.703627,1.137802,0.002028,-0.593441,-1.041558
58095,10.537991,-4.872530,2.400913,0.795000,-0.564945,-1.143749
58096,10.627391,-3.341656,3.553694,1.186205,-0.311648,-1.195477
58097,9.933594,-3.271884,2.131792,1.286265,-0.219565,-1.166737
58098,9.065128,-3.311263,0.135064,1.370565,-0.215448,-0.937836
58099,9.133263,-0.327531,-0.068481,1.212304,-0.178860,-0.639891
58100,9.669200,2.966662,1.474513,0.205239,-0.112790,-0.476360
58101,9.914018,2.666223,0.944018,-1.289748,-0.163230,-0.321418
58102,9.749494,1.260690,-0.355332,-1.832668,-0.242778,-0.281410
58103,9.697987,0.051603,-0.477583,-1.923762,-0.389973,-0.345582
58104,9.997175,-1.399077,0.293673,-1.805777,-0.524773,-0.436396
58105,10.242170,-2.260420,1.163864,-1.413102,-0.548882,-0.539830
58106,9.806094,-2.787606,1.289626,-0.992631,-0.515396,-0.624081
58107,9.104133,-3.156509,0.930238,-0.502733,-0.560278,-0.698589
58108,9.013435,-3.304587,0.737548,0.079674,-0.677770,-0.790388
58109,9.212890,-3.246110,0.776779,0.608058,-0.738253,-0.830838
58110,9.351574,-2.383902,0.949315,1.059117,-0.707105,-0.835840
58111,9.509919,-1.366110,1.124035,1.199325,-0.634987,-0.831025
58112,9.476389,-0.532438,0.963306,1.127381,-0.548577,-0.707745
58113,9.511981,1.040308,1.194752,0.913438,-0.470893,-0.610493
58114,9.601614,1.463832,1.287229,0.317144,-0.480288,-0.521432
58115,9.806029,0.693368,0.949736,-0.077979,-0.501729,-0.436468
58116,9.945950,-0.079992,0.569590,-0.307695,-0.483499,-0.368776
58117,9.991664,-0.860360,0.002350,-0.425105,-0.458086,-0.298042
58118,10.133703,-1.224368,-0.059500,-0.323041,-0.475322,-0.231871
58119,10.393648,-1.063544,0.298908,-0.170780,-0.464936,-0.181086
58120,10.560810,-0.659028,0.592596,-0.066143,-0.401622,-0.153778
58121,10.516862,-0.436056,0.853381,-0.042221,-0.328296,-0.134698
58122,10.378230,-0.430094,0.917514,-0.069287,-0.313712,-0.118380
58123,10.314890,-0.348558,0.921886,-0.116721,-0.297294,-0.111055
58124,10.100114,-0.388297,0.835065,-0.147217,-0.297536,-0.108945
58125,10.038955,-0.491604,0.663181,-0.085142,-0.294853,-0.107299
58126,9.991549,-0.399119,0.582442,0.003911,-0.279260,-0.101443
58127,10.135108,-0.405228,0.694549,0.039946,-0.238117,-0.089897
58128,10.181685,-0.532831,0.530319,0.047676,-0.163762,-0.060308
58129,10.163970,-0.611395,0.448631,0.025443,-0.105464,-0.027336
58130,10.092964,-0.599476,0.341869,-0.018970,-0.059479,0.003505
58131,9.962824,-0.656848,0.352182,-0.021027,-0.048744,0.035918
58132,9.983081,-0.494925,0.453541,-0.021145,-0.050794,0.046597
58133,10.042046,-0.534899,0.475926,-0.043805,-0.017026,0.056474
58134,9.933183,-0.518856,0.338905,-0.003747,0.015426,0.065268
58135,10.031447,-0.399847,0.423400,0.020129,0.041504,0.068408
58136,10.232287,-0.546257,0.473693,-0.003390,0.080697,0.067969
58137,10.267211,-0.931833,0.446301,0.018542,0.128141,0.070170
58138,10.193211,-1.099668,0.204761,0.077937,0.141151,0.072795
58139,10.102138,-0.900845,0.149879,0.166999,0.116106,0.077581
58140,10.170815,-0.527941,0.238835,0.209861,0.101396,0.066809
58141,10.117066,-0.334371,0.160494,0.193804,0.127383,0.076837
58142,9.982376,-0.278736,0.151224,0.192152,0.147406,0.092409
58143,9.854688,-0.170874,0.197366,0.165182,0.150511,0.112459
58144,9.815165,-0.163681,0.253309,0.115263,0.135688,0.111954
58145,9.768657,-0.210070,0.254483,0.051041,0.156000,0.106103
58146,9.594654,-0.407445,0.072740,0.046540,0.157323,0.118572
58147,9.671450,-0.364747,0.121746,0.105019,0.125389,0.116859
58148,9.766723,-0.243080,0.295911,0.115811,0.115793,0.112429
58149,9.816815,-0.146067,0.337817,0.112046,0.132811,0.100028
58150,9.809915,-0.304799,0.238707,0.100941,0.138879,0.088949
58151,9.757127,-0.398316,0.124952,0.104031,0.137109,0.090391
58152,9.744057,-0.340716,0.183046,0.079888,0.118954,0.083825
58153,9.687242,-0.431476,0.206903,0.060515,0.107921,0.088608
58154,9.623098,-0.480772,0.232203,0.112299,0.080450,0.088911
58155,9.656133,-0.387281,0.298127,0.133747,0.060948,0.087975
58156,9.811925,-0.379396,0.258108,0.113487,0.058204,0.084058
58157,9.794894,-0.388156,0.235091,0.121483,0.081354,0.088930
58158,9.787320,-0.355328,0.245987,0.122487,0.070149,0.095944
58159,9.816179,-0.451392,0.336807,0.106464,0.059306,0.095420
58160,9.799518,-0.482274,0.410892,0.109745,0.053030,0.098264
58161,9.768985,-0.526548,0.433138,0.113733,0.044670,0.105459
58162,9.747595,-0.604941,0.332348,0.130260,0.030956,0.119564
58163,9.716697,-0.534018,0.310593,0.169004,0.014822,0.130083
58164,9.866024,-0.511017,0.367921,0.177923,0.005704,0.130784
58165,9.912980,-0.484218,0.323609,0.178661,0.018071,0.133073
58166,9.892405,-0.392142,0.433123,0.187101,0.032211,0.136676
58167,9.882514,-0.350168,0.460101,0.178673,0.030937,0.130098
58168,9.854341,-0.409288,0.460471,0.147053,0.033978,0.130419
58169,9.798404,-0.515473,0.457617,0.138351,0.032454,0.131525
58170,9.823009,-0.581179,0.468623,0.121533,0.025290,0.127551
58171,9.855285,-0.684732,0.417154,0.109651,0.018844,0.117939
58172,9.912423,-0.747511,0.488363,0.120534,0.021997,0.114705
