// Start Time: Unknown
// Update Rate: 100.0Hz
// Filter Profile: human (46.1)
// Firmware Version: 4.3.5
PacketCounter,Acc_X,Acc_Y,Acc_Z,Gyr_X,Gyr_Y,Gyr_Z
38376,9.404314,-1.539442,2.328367,0.030260,0.005675,-0.021657
38377,9.422344,-1.616301,2.214828,0.012034,-0.001366,-0.027329
38378,9.396502,-1.609672,2.193164,0.032939,0.003401,-0.031176
38379,9.445375,-1.580149,2.194257,0.051321,-0.000210,-0.038100
38380,9.447888,-1.579437,2.219256,0.049727,0.004305,-0.037695
38381,9.500890,-1.556761,2.268052,0.047193,-0.009136,-0.050073
38382,9.526437,-1.574588,2.262372,0.047023,-0.002169,-0.045187
38383,9.478594,-1.570481,2.266471,0.047194,-0.006431,-0.046881
38384,9.527853,-1.539190,2.266667,0.061528,-0.011500,-0.050303
38385,9.505370,-1.465202,2.304464,0.069919,-0.009012,-0.051173
38386,9.503987,-1.430676,2.284444,0.057081,-0.009192,-0.055671
38387,9.480648,-1.425111,2.286142,0.043050,-0.009988,-0.052486
38388,9.527530,-1.482313,2.222272,0.038748,-0.008264,-0.051883
38389,9.451886,-1.495169,2.175987,0.052987,-0.006626,-0.047434
38390,9.454778,-1.493047,2.200218,0.055664,-0.006213,-0.053763
38391,9.453167,-1.459242,2.180425,0.060121,-0.004430,-0.043601
38392,9.452951,-1.405747,2.188609,0.064536,-0.005042,-0.039580
38393,9.479433,-1.379768,2.215038,0.057481,-0.003445,-0.035637
38394,9.507218,-1.426598,2.230114,0.045972,0.001447,-0.032567
38395,9.479296,-1.415936,2.184653,0.046191,-0.000418,-0.028111
38396,9.505957,-1.415446,2.207601,0.050426,0.003246,-0.022409
38397,9.506316,-1.412086,2.208206,0.047941,-0.005153,-0.025439
38398,9.509718,-1.368175,2.264221,0.042185,-0.000841,-0.020061
38399,9.502426,-1.374786,2.164788,0.035103,0.000732,-0.016148
38400,9.530987,-1.379227,2.211432,0.032383,-0.000723,-0.014367
38401,9.552929,-1.348788,2.189732,0.032419,0.001689,-0.008233
38402,9.479491,-1.325659,2.199881,0.030929,0.003236,-0.008000
38403,9.479593,-1.324138,2.200360,0.018178,0.000004,-0.012679
38404,9.479241,-1.298854,2.204074,0.008619,-0.004442,-0.005688
38405,9.504720,-1.345601,2.194603,-0.003136,0.002281,-0.007109
38406,9.480400,-1.346083,2.196701,-0.014541,0.004190,-0.004211
38407,9.501265,-1.361675,2.142955,-0.014452,0.000178,-0.008896
38408,9.505370,-1.368549,2.191036,-0.005979,0.002426,-0.006774
38409,9.482630,-1.348532,2.220582,-0.015683,-0.002825,-0.007349
38410,9.527980,-1.363212,2.164278,-0.019844,-0.005418,-0.008468
38411,9.503920,-1.363228,2.165540,-0.010138,-0.003908,-0.015580
38412,9.532979,-1.300077,2.246471,-0.011398,-0.005575,-0.012471
38413,9.510980,-1.303612,2.271727,-0.022942,-0.004465,-0.017129
38414,9.535632,-1.301707,2.269044,-0.038702,-0.003271,-0.019777
38415,9.512177,-1.325373,2.266581,-0.041973,0.001969,-0.026745
38416,9.532817,-1.315284,2.216081,-0.046206,-0.000341,-0.030852
38417,9.581366,-1.287363,2.215279,-0.054739,-0.002296,-0.035947
38418,9.730637,-1.239099,2.258995,-0.042226,0.004159,-0.034138
38419,9.756986,-1.146232,2.320837,-0.020076,0.011072,-0.044011
38420,9.758321,-1.028597,2.389237,-0.013608,0.016521,-0.059639
38421,9.760987,-0.888465,2.486114,-0.011644,0.021835,-0.086791
38422,9.814110,-0.747456,2.603961,-0.017023,0.030890,-0.117427
38423,9.942368,-0.628842,2.737606,-0.031137,0.047343,-0.142185
38424,10.015894,-0.522966,2.800845,-0.060894,0.066070,-0.164957
38425,9.968634,-0.468634,2.867196,-0.088913,0.078004,-0.194115
38426,9.958891,-0.365975,2.814484,-0.104110,0.085143,-0.241356
38427,9.911954,-0.284747,2.910420,-0.110469,0.092494,-0.278934
38428,9.867234,-0.273659,2.995139,-0.171814,0.098367,-0.312950
38429,9.870965,-0.348738,3.013102,-0.277242,0.115769,-0.332022
38430,9.851132,-0.514217,2.969329,-0.358194,0.132568,-0.355028
38431,9.906933,-0.679158,2.945145,-0.406851,0.161598,-0.367413
38432,9.810526,-0.816154,2.864664,-0.411673,0.193119,-0.381596
38433,9.715938,-0.995809,2.752347,-0.417035,0.212544,-0.391646
38434,9.712913,-1.149489,2.537882,-0.375454,0.223949,-0.392910
38435,9.686675,-1.179749,2.473025,-0.277184,0.246279,-0.400632
38436,9.676267,-1.104977,2.404069,-0.172107,0.266627,-0.396148
38437,9.647750,-1.028687,2.463298,-0.115615,0.277413,-0.401158
38438,9.645284,-1.032148,2.432598,-0.111643,0.294666,-0.389112
38439,9.668168,-1.019284,2.454648,-0.107309,0.306385,-0.380394
38440,9.667258,-0.993964,2.531990,-0.073744,0.322040,-0.377790
38441,9.636632,-0.923129,2.621593,-0.054351,0.339886,-0.374780
38442,9.595041,-0.772108,2.677770,-0.089222,0.334248,-0.378746
38443,9.584650,-0.740707,2.584438,-0.162691,0.333636,-0.364875
38444,9.560849,-0.810768,2.472111,-0.239029,0.330036,-0.340746
38445,9.545016,-0.935273,2.372805,-0.265672,0.325873,-0.336795
38446,9.535746,-1.093543,2.315987,-0.232297,0.335078,-0.318248
38447,9.498666,-1.188732,2.422608,-0.172796,0.330384,-0.305248
38448,9.430602,-1.235809,2.514372,-0.140809,0.311541,-0.283271
38449,9.416143,-1.321468,2.569319,-0.124158,0.286142,-0.256025
38450,9.363941,-1.307250,2.594189,-0.082053,0.259748,-0.239034
38451,9.427948,-1.243617,2.574161,-0.008074,0.253178,-0.221009
38452,9.348291,-1.204812,2.704216,0.082337,0.248869,-0.201635
38453,9.318733,-0.997712,2.791202,0.187482,0.227351,-0.199527
38454,9.318972,-0.827694,2.967188,0.257626,0.208532,-0.196211
38455,9.356207,-0.748892,3.121449,0.233387,0.182736,-0.171024
38456,9.353600,-0.913821,3.177720,0.105479,0.165914,-0.112243
38457,9.450540,-1.258405,3.021763,-0.016055,0.149262,-0.048725
38458,9.502275,-1.632978,2.687353,-0.026086,0.151296,0.022739
38459,9.472995,-1.799841,2.497455,0.134487,0.159602,0.068517
38460,9.439584,-1.782311,2.521860,0.323236,0.174521,0.109860
38461,9.393378,-1.687662,2.663361,0.417419,0.173999,0.142143
38462,9.297681,-1.597415,2.779582,0.377744,0.166264,0.191843
38463,9.217377,-1.622883,2.823506,0.307595,0.160639,0.251376
38464,9.123911,-1.736663,2.751857,0.244600,0.148322,0.313901
38465,9.066599,-1.958746,2.710201,0.187369,0.145040,0.388217
38466,8.979489,-2.175945,2.720161,0.165685,0.143379,0.459992
38467,8.942782,-2.415242,2.578488,0.217095,0.131701,0.529878
38468,8.836867,-2.504793,2.365359,0.333789,0.104385,0.595587
38469,8.861867,-2.516861,2.514024,0.505726,0.096894,0.660000
38470,8.964342,-2.371947,2.814152,0.571052,0.093693,0.722450
38471,8.924386,-2.247449,2.960728,0.502144,0.076836,0.794022
38472,8.875024,-2.258884,2.958893,0.383850,0.046186,0.869497
38473,8.913172,-2.477490,2.998178,0.259099,0.039665,0.946001
38474,8.784947,-2.769600,2.704920,0.190359,0.041906,1.021634
38475,8.668205,-3.013976,2.568295,0.242811,0.043073,1.092094
38476,8.685435,-3.176355,2.595077,0.329103,0.025116,1.133479
38477,8.786400,-3.102509,2.706431,0.388747,0.016236,1.181263
38478,8.888403,-3.060770,2.814836,0.344946,0.042562,1.270402
38479,8.871429,-3.293853,2.837429,0.256320,0.047195,1.383402
38480,8.747849,-3.612989,2.872537,0.224292,0.048635,1.472764
38481,8.739494,-3.785594,2.881111,0.255955,0.059270,1.512926
38482,8.750345,-3.855922,3.030063,0.322435,0.088109,1.576399
38483,8.687309,-3.819427,3.290109,0.275884,0.084420,1.663360
38484,8.745976,-3.927308,3.165891,0.155810,0.085321,1.745327
38485,8.716125,-4.147726,3.100350,0.090268,0.129905,1.830988
38486,8.551047,-4.394147,3.078473,0.060162,0.146476,1.912961
38487,8.446433,-4.675396,3.054767,0.041925,0.132824,1.966791
38488,8.507951,-4.934539,3.040434,0.053939,0.128282,2.007547
38489,8.633702,-5.060271,2.996859,0.104153,0.122709,2.062716
38490,8.662168,-5.157715,2.979796,0.128098,0.132933,2.113993
38491,8.669845,-5.324021,3.105902,0.146843,0.159173,2.148961
38492,8.650012,-5.456729,3.384377,0.155261,0.162277,2.183257
38493,8.616670,-5.378624,3.338619,0.122221,0.165627,2.216885
38494,8.523417,-5.446098,3.322122,0.030465,0.182451,2.263868
38495,8.456361,-5.680976,3.288783,-0.075783,0.198611,2.326257
38496,8.412982,-6.059724,3.217244,-0.172477,0.235585,2.373520
38497,8.347261,-6.451163,3.217657,-0.198023,0.286204,2.402365
38498,8.112943,-6.687724,3.272777,-0.131478,0.325245,2.410917
38499,7.932517,-6.643233,3.287652,-0.068934,0.301051,2.418481
38500,7.863885,-6.549395,3.216153,-0.117340,0.273012,2.441264
38501,7.747407,-6.645200,3.091238,-0.239378,0.251153,2.465924
38502,7.798897,-6.945864,3.031163,-0.291129,0.202022,2.488873
38503,7.922019,-7.251040,3.024317,-0.272467,0.159402,2.513490
38504,8.084183,-7.614346,3.141598,-0.232646,0.141946,2.533811
38505,8.132535,-7.963973,3.277290,-0.199060,0.170365,2.544287
38506,7.847447,-8.154744,3.269998,-0.138111,0.168439,2.536022
38507,7.620863,-8.147827,3.337879,-0.061321,0.120345,2.501224
38508,7.358856,-8.053018,3.132228,-0.074839,0.036712,2.456213
38509,7.194043,-8.072610,2.599158,-0.069743,-0.059336,2.399448
38510,7.038392,-8.304301,2.269343,0.036414,-0.142109,2.327305
38511,7.105375,-8.473887,2.077981,0.244033,-0.226230,2.251693
38512,7.167451,-8.338634,2.040762,0.450449,-0.296910,2.190102
38513,7.137301,-7.952023,2.061267,0.567144,-0.319129,2.117520
38514,6.943180,-7.645194,2.225730,0.599083,-0.338413,2.057192
38515,6.732146,-7.480090,2.300756,0.617552,-0.399543,1.986405
38516,6.538018,-7.233839,2.374329,0.653663,-0.454066,1.895626
38517,6.428812,-7.013183,2.472388,0.606099,-0.501920,1.814720
38518,6.298887,-6.834515,2.407892,0.512758,-0.535213,1.752120
38519,6.047583,-6.815166,2.198294,0.480703,-0.540033,1.677613
38520,5.684747,-6.676552,2.200194,0.506760,-0.517024,1.589352
38521,5.315712,-6.522021,2.399393,0.518908,-0.535383,1.505352
38522,5.163852,-6.303818,2.711037,0.434407,-0.583740,1.452928
38523,5.172883,-6.169122,2.803352,0.243639,-0.624295,1.432599
38524,5.160263,-6.543587,2.641489,0.030372,-0.655288,1.441950
38525,5.098062,-7.021787,2.323390,0.018856,-0.685639,1.417486
38526,5.004716,-7.158501,2.295705,0.167915,-0.699181,1.376994
38527,4.822142,-7.095035,2.584494,0.233260,-0.730514,1.352613
38528,4.542315,-7.290714,2.629820,0.152920,-0.788908,1.321211
38529,4.386853,-7.564937,2.262796,0.087840,-0.841374,1.257751
38530,4.521336,-7.752785,2.000144,0.161895,-0.867030,1.188058
38531,4.712342,-7.715079,2.078091,0.275142,-0.856316,1.134821
38532,4.863712,-7.554956,2.372606,0.284871,-0.834709,1.104544
38533,4.959053,-7.526721,2.545807,0.247609,-0.805586,1.083445
38534,4.879291,-7.576362,2.747435,0.281890,-0.759846,1.048485
38535,4.690126,-7.513379,3.074861,0.336436,-0.722747,1.013530
38536,4.578749,-7.320018,3.375888,0.325522,-0.679388,0.971678
38537,4.368993,-7.183636,3.656551,0.204849,-0.595536,0.930447
38538,4.032991,-7.177849,3.772705,0.061037,-0.529674,0.878613
38539,3.744684,-7.256743,3.839994,0.010919,-0.537696,0.838715
38540,3.642852,-7.374039,3.829024,0.069117,-0.605794,0.805946
38541,3.712605,-7.644531,3.895580,0.191086,-0.661450,0.790681
38542,3.786867,-8.047182,3.854533,0.328030,-0.701464,0.749694
38543,3.822214,-8.195559,3.546343,0.511136,-0.704624,0.645790
38544,4.013134,-8.014159,3.350208,0.797735,-0.644764,0.540850
38545,3.996512,-7.551033,3.865182,1.197163,-0.543132,0.452163
38546,3.823672,-6.975546,4.455371,1.470062,-0.465196,0.385628
38547,3.645740,-6.319363,4.718694,1.480965,-0.450495,0.334051
38548,3.646341,-5.878742,4.500196,1.346949,-0.501813,0.266332
38549,4.053103,-5.471419,4.323404,1.271009,-0.506182,0.165020
38550,4.465128,-4.907695,4.407847,1.280471,-0.412856,0.058642
38551,4.601117,-4.554652,5.263137,1.189489,-0.278848,-0.021244
38552,4.356776,-4.537710,5.852557,0.681269,-0.214853,-0.063233
38553,3.916874,-5.074591,5.430623,-0.046517,-0.221873,-0.095496
38554,3.680238,-6.234309,4.652189,-0.541539,-0.230198,-0.119227
38555,3.522964,-7.477026,3.797727,-0.658673,-0.222180,-0.120032
38556,3.599166,-8.452008,3.338813,-0.441805,-0.214602,-0.137798
38557,3.763425,-8.889816,3.452286,-0.141578,-0.183851,-0.158913
38558,3.812382,-8.853633,3.655707,0.010983,-0.157341,-0.191501
38559,3.835499,-8.670176,3.778936,0.108045,-0.143923,-0.232339
38560,3.987813,-8.141399,3.970616,0.270353,-0.116283,-0.264990
38561,4.081714,-7.342488,4.362558,0.364365,-0.059702,-0.291871
38562,4.041064,-6.638713,4.958537,0.275596,-0.025403,-0.316984
38563,4.073772,-6.358879,5.347294,-0.002417,-0.034726,-0.328093
38564,4.084774,-6.601719,5.101144,-0.343656,-0.051004,-0.327980
38565,4.113992,-7.190949,4.664260,-0.455685,-0.036083,-0.322225
38566,4.130158,-7.698497,4.608379,-0.422261,-0.024473,-0.317106
38567,4.194794,-8.117273,4.309842,-0.361587,-0.008586,-0.306572
38568,4.358606,-8.253048,4.089947,-0.207920,0.025527,-0.304473
38569,4.490129,-7.975713,4.329274,-0.010201,0.087220,-0.309528
38570,4.499102,-7.510734,4.868363,0.030642,0.150280,-0.319829
38571,4.475746,-7.244000,5.190391,-0.076508,0.187306,-0.320280
38572,4.577846,-7.243751,5.204220,-0.207660,0.224470,-0.312327
38573,4.672596,-7.308922,5.173627,-0.262384,0.294233,-0.307841
38574,4.744177,-7.315039,5.359019,-0.330761,0.368948,-0.303859
38575,4.798437,-7.301607,5.240463,-0.484401,0.433986,-0.306804
38576,4.868341,-7.379854,4.951083,-0.620873,0.497354,-0.324836
38577,4.999270,-7.315390,4.634310,-0.691362,0.590647,-0.361623
38578,5.193404,-7.077428,4.224578,-0.696711,0.752922,-0.432921
38579,5.283306,-6.846527,3.994082,-0.560567,0.955599,-0.524275
38580,5.469696,-6.556672,4.490708,-0.390455,1.128889,-0.647902
38581,5.760928,-6.154294,5.069413,-0.254278,1.287963,-0.773325
38582,5.584471,-5.668909,5.537792,-0.138056,1.376695,-0.900329
38583,5.282804,-5.195240,5.913670,-0.138059,1.303017,-1.020497
38584,5.204296,-4.977356,5.822881,-0.451669,1.111199,-1.094920
38585,5.283092,-5.285642,4.816993,-0.912598,0.920950,-1.160216
38586,5.573522,-5.999933,3.766481,-1.134627,0.813477,-1.226093
38587,5.827383,-6.805982,3.271363,-0.983576,0.817770,-1.271545
38588,5.747255,-7.204179,3.287137,-0.675133,0.821112,-1.307986
38589,5.391685,-7.263987,3.280263,-0.596931,0.767356,-1.344036
38590,5.236930,-7.478063,3.082603,-0.636468,0.668042,-1.346731
38591,5.226969,-8.000473,2.747885,-0.566470,0.587503,-1.305476
38592,5.295295,-8.401813,2.538235,-0.324177,0.571769,-1.264414
38593,5.213739,-8.315773,2.568850,0.000747,0.574227,-1.251493
38594,5.177523,-7.861900,2.805981,0.207176,0.545797,-1.253357
38595,5.320986,-7.324248,2.937419,0.266745,0.499014,-1.273166
38596,5.560295,-6.828528,2.980009,0.264751,0.495627,-1.308785
38597,5.735224,-6.528636,3.071643,0.161803,0.518384,-1.358073
38598,5.952646,-6.575549,3.150313,0.027942,0.535842,-1.397421
38599,6.163526,-6.791494,3.231434,-0.072938,0.606881,-1.420931
38600,6.274574,-7.036508,3.302259,-0.185156,0.686773,-1.410078
38601,6.151181,-7.138796,3.365251,-0.232214,0.718250,-1.406765
38602,6.137718,-7.179878,3.407549,-0.296636,0.695450,-1.416677
38603,6.247861,-7.046010,2.885313,-0.404934,0.647785,-1.441467
38604,6.302225,-7.045959,2.327528,-0.443271,0.650347,-1.477740
38605,6.366647,-7.341470,2.364234,-0.420088,0.685836,-1.518980
38606,6.372885,-7.723271,2.319471,-0.324330,0.665821,-1.557217
38607,6.311885,-7.963386,2.785693,-0.167285,0.636558,-1.605991
38608,6.484373,-7.839018,3.193828,-0.094470,0.561531,-1.635705
38609,6.649364,-7.469337,3.059544,-0.076899,0.492830,-1.671315
38610,6.787603,-7.356914,2.916639,-0.113118,0.482610,-1.704210
38611,6.809437,-7.376717,2.651688,-0.058185,0.441157,-1.750416
38612,6.909976,-7.324571,2.851383,0.111136,0.403964,-1.831864
38613,7.085908,-7.090778,3.198635,0.226067,0.344319,-1.896525
38614,7.242853,-6.848759,3.446249,0.265452,0.320620,-1.954636
38615,7.267093,-6.607624,3.717310,0.205427,0.306299,-1.996584
38616,7.357923,-6.515306,3.693407,0.120491,0.297328,-2.017231
38617,7.161262,-6.423673,3.660705,0.091829,0.302079,-2.047106
38618,7.069302,-6.353851,3.321332,0.134373,0.261080,-2.101264
38619,7.126908,-5.998960,3.392643,0.233085,0.205357,-2.156396
38620,7.337240,-5.686784,3.838144,0.217666,0.122293,-2.197055
38621,7.688032,-5.372713,3.579045,0.078785,0.037068,-2.231410
38622,8.075208,-5.334140,3.080121,-0.073013,0.017110,-2.268344
38623,8.113743,-5.732901,2.685518,-0.109161,0.036857,-2.305712
38624,8.060023,-6.066225,2.821093,0.068328,-0.009926,-2.402911
38625,8.350180,-5.900075,3.152067,0.312177,-0.083955,-2.519604
38626,8.579433,-5.424089,3.692561,0.420320,-0.082101,-2.620023
38627,8.497882,-4.929152,3.676557,0.319520,-0.111007,-2.691170
38628,8.494539,-4.688882,3.578064,0.215210,-0.155239,-2.731669
38629,8.615755,-4.602255,3.385020,0.142937,-0.209516,-2.750438
38630,8.829193,-4.637484,3.243555,0.178132,-0.252274,-2.775306
38631,8.904322,-4.334323,3.347296,0.254018,-0.276422,-2.779525
38632,8.721211,-3.992699,3.485704,0.247643,-0.292828,-2.777219
38633,8.669743,-3.779992,3.560126,0.133545,-0.327809,-2.740652
38634,8.684770,-3.988193,3.657110,-0.018429,-0.344189,-2.649469
38635,8.668970,-4.212681,3.544100,-0.108618,-0.335979,-2.553556
38636,8.577966,-4.391376,3.374293,-0.103810,-0.298205,-2.453535
38637,8.357528,-4.430244,3.179130,-0.060506,-0.265972,-2.360784
38638,8.013663,-4.324624,2.840511,0.056591,-0.263456,-2.275933
38639,7.622736,-4.105731,2.640820,0.248502,-0.289867,-2.193732
38640,7.322938,-3.657291,2.978294,0.472024,-0.353743,-2.126436
38641,7.342415,-3.018194,3.743245,0.582449,-0.449529,-2.033106
38642,7.789882,-2.467596,4.116053,0.367146,-0.560850,-1.858652
38643,8.583800,-2.478916,4.062179,-0.067779,-0.588487,-1.599430
38644,9.489881,-3.070539,3.879220,-0.338157,-0.479413,-1.363041
38645,9.781918,-3.552842,3.599118,-0.288971,-0.312769,-1.217394
38646,9.413755,-3.536966,3.420212,-0.188363,-0.222826,-1.154890
38647,8.867944,-3.218739,3.095228,-0.108662,-0.227942,-1.153645
38648,8.412767,-2.746155,3.070671,0.044265,-0.266766,-1.198549
38649,8.211791,-2.299000,3.482050,0.185538,-0.381842,-1.212360
38650,8.419349,-1.657037,3.912604,0.174959,-0.443822,-1.210319
38651,8.718121,-1.145039,4.282320,-0.052006,-0.392567,-1.079616
38652,8.778897,-1.142340,4.271333,-0.502441,-0.234630,-0.844219
38653,8.558106,-1.834566,4.029745,-0.856689,-0.090348,-0.641400
38654,8.422135,-2.543850,3.665002,-0.905499,-0.025042,-0.484211
38655,8.430977,-2.752333,3.316186,-0.777770,-0.049000,-0.365926
38656,8.575097,-2.538292,2.686542,-0.527893,-0.090497,-0.314323
38657,8.620239,-2.131140,2.455683,-0.095803,-0.106049,-0.305318
38658,8.597861,-1.625233,3.401551,0.370309,-0.150250,-0.322900
38659,8.722642,-0.931501,4.251208,0.442512,-0.228314,-0.355700
38660,9.093992,-0.287261,4.330801,0.133841,-0.242170,-0.313503
38661,9.340132,-0.271951,4.174646,-0.288230,-0.157132,-0.149303
38662,9.279605,-0.896286,3.900824,-0.566167,-0.089712,-0.019101
38663,9.220275,-1.339958,3.329352,-0.516050,-0.108078,0.057469
38664,9.302074,-1.418872,2.786589,-0.226932,-0.177870,0.072873
38665,9.534173,-1.037247,2.910023,0.126065,-0.182956,0.049147
38666,9.492990,-0.427773,3.378683,0.318243,-0.151594,0.014240
38667,9.359627,0.125586,3.587022,0.238592,-0.150100,-0.001458
38668,9.417106,0.297359,3.722178,-0.031246,-0.150034,0.025858
38669,9.414801,0.020624,3.595726,-0.345627,-0.155118,0.079778
38670,9.280363,-0.394581,3.220437,-0.529904,-0.202766,0.188186
38671,9.094609,-0.844078,2.904308,-0.651922,-0.284032,0.338059
38672,8.959356,-1.369195,2.738604,-0.740135,-0.389056,0.488630
38673,9.019161,-1.924345,2.655157,-0.753365,-0.521829,0.534061
38674,9.175641,-2.422658,2.366628,-0.586813,-0.642654,0.465429
38675,9.307693,-2.463971,1.706491,-0.182985,-0.617994,0.355213
38676,9.401074,-2.170225,1.518196,0.412833,-0.479391,0.290183
38677,9.261735,-1.484447,2.234192,0.890421,-0.334938,0.298317
38678,9.120146,-0.718101,2.865191,1.009624,-0.273606,0.325235
38679,9.242750,-0.073037,3.168944,0.789920,-0.271845,0.385887
38680,9.395487,0.185851,3.281691,0.306833,-0.326136,0.490680
38681,9.478153,-0.100419,3.065506,-0.200944,-0.373241,0.617119
38682,9.578792,-0.673592,2.802464,-0.435168,-0.431904,0.687773
38683,9.752144,-1.150608,2.594168,-0.389154,-0.464023,0.725653
38684,9.729953,-1.382631,2.546632,-0.119937,-0.465648,0.734931
38685,9.616704,-1.522172,2.986328,0.179496,-0.486742,0.711081
38686,9.861357,-1.527529,3.139816,0.305603,-0.561735,0.630820
38687,10.410776,-1.224295,2.731372,0.298510,-0.577742,0.557607
38688,10.836622,-0.951030,2.071232,0.339200,-0.499775,0.520370
38689,10.804747,-0.743289,1.794234,0.564458,-0.385263,0.507207
38690,10.603344,-0.456018,2.086597,0.829097,-0.305967,0.463357
38691,10.476691,-0.075951,2.611619,0.993180,-0.257004,0.414193
38692,10.382615,0.315318,3.205793,0.975801,-0.228449,0.387228
38693,10.201975,0.552706,3.434572,0.858654,-0.260359,0.373156
38694,10.043199,0.620704,3.663900,0.719504,-0.291148,0.365402
38695,10.043936,0.734051,3.616544,0.694757,-0.321597,0.344754
38696,10.117178,0.857624,3.566219,0.661425,-0.257975,0.270981
38697,9.950142,0.934404,3.578628,0.571461,-0.198264,0.209997
38698,9.703565,0.719951,3.453412,0.333977,-0.224751,0.195490
38699,9.701993,0.212400,2.852243,0.054099,-0.253822,0.200507
38700,9.853469,-0.371990,2.334398,-0.076962,-0.252484,0.241829
38701,9.850028,-0.859148,1.933048,-0.009020,-0.209284,0.267657
38702,9.809081,-1.025206,1.834400,0.285551,-0.158579,0.234103
38703,9.809510,-0.636050,2.344770,0.590504,-0.115967,0.197530
38704,9.703285,-0.162680,2.769124,0.567348,-0.093583,0.156653
38705,9.703551,0.018877,2.943994,0.318102,-0.089656,0.145454
38706,9.598856,-0.078475,2.692386,0.109209,-0.085272,0.138124
38707,9.613776,-0.328627,2.621068,0.080147,-0.069362,0.120828
38708,9.567540,-0.457218,2.513975,0.071530,-0.049554,0.112532
38709,9.491866,-0.467976,2.466111,0.074152,-0.042992,0.103561
38710,9.516762,-0.473765,2.460771,0.065245,-0.042090,0.089390
38711,9.635725,-0.446981,2.425618,0.037553,-0.049265,0.085276
38712,9.702866,-0.397740,2.370738,0.023680,-0.041229,0.074290
38713,9.731524,-0.382629,2.439925,-0.030403,-0.031816,0.062807
38714,9.753904,-0.433716,2.359496,-0.135036,-0.020221,0.063396
38715,9.703472,-0.584881,2.205962,-0.220647,-0.001295,0.068872
38716,9.714055,-0.837639,2.139577,-0.289686,-0.005680,0.073651
38717,9.694931,-1.066300,2.026014,-0.321861,-0.003263,0.091055
38718,9.686231,-1.119156,1.873954,-0.243858,0.007871,0.080296
38719,9.908496,-0.937136,2.091754,-0.128447,0.030113,0.072637
38720,9.865753,-0.819703,2.327406,-0.171273,0.056084,0.065353
38721,9.810039,-0.828689,2.261859,-0.264343,0.063169,0.061687
38722,9.747122,-1.063876,2.253627,-0.300013,0.074721,0.054252
38723,9.582379,-1.253536,2.230247,-0.269836,0.068037,0.045055
38724,9.502674,-1.260691,2.164596,-0.205218,0.046676,0.025666
38725,9.477196,-1.268471,2.167521,-0.166031,0.031735,0.022854
38726,9.404362,-1.324728,2.144085,-0.163980,0.023479,0.015326
38727,9.429063,-1.375246,2.113100,-0.173084,0.006799,0.024883
38728,9.537330,-1.333974,1.936708,-0.123572,0.012515,0.018370
38729,9.531580,-1.126934,2.054934,-0.039813,0.031189,0.007853
38730,9.487204,-0.911515,2.350137,-0.049016,0.037331,-0.013662
38731,9.537239,-0.889320,2.399958,-0.157960,0.025205,-0.024838
38732,9.522595,-1.131317,2.329750,-0.243320,0.013720,-0.027205
38733,9.550070,-1.384385,2.130605,-0.278049,0.014236,-0.021214
38734,9.501917,-1.593330,1.939543,-0.251552,0.016026,-0.008068
38735,9.474344,-1.593473,1.889741,-0.174493,-0.003330,-0.005412
38736,9.621970,-1.477246,2.012117,-0.082409,-0.009312,-0.009874
38737,9.616979,-1.247676,2.157304,-0.069883,0.000880,-0.010665
38738,9.614129,-1.222044,2.134551,-0.130989,0.002348,-0.011564
38739,9.561579,-1.286791,2.006757,-0.137775,-0.004629,-0.014035
38740,9.569875,-1.300388,2.126407,-0.096166,0.005104,-0.017198
38741,9.473322,-1.263342,2.185043,-0.122174,0.003590,-0.026901
38742,9.356127,-1.344136,2.182426,-0.134451,-0.008326,-0.021599
38743,9.481832,-1.453673,2.109789,-0.145246,-0.020374,-0.014923
38744,9.473964,-1.463675,1.958026,-0.122151,-0.017131,-0.006325
38745,9.499502,-1.398671,2.034794,-0.061552,-0.012538,-0.008387
38746,9.517630,-1.254931,2.072457,-0.055913,-0.009668,-0.008786
38747,9.496627,-1.151612,2.231868,-0.035812,-0.006829,-0.013411
38748,9.568431,-1.011879,2.339499,-0.091843,-0.014103,-0.032482
38749,9.527428,-1.246223,2.215153,-0.173743,0.002589,-0.027823
38750,9.415174,-1.487844,2.119050,-0.138713,-0.001532,-0.041275
38751,9.511735,-1.454904,2.114743,-0.024553,-0.001180,-0.046849
38752,9.505999,-1.265791,2.210820,-0.004884,0.008408,-0.043874
38753,9.599156,-1.204632,2.187036,-0.053978,0.008290,-0.043969
38754,9.616633,-1.231448,2.035426,-0.062156,0.024744,-0.042780
38755,9.542259,-1.188015,2.072414,-0.064722,0.044055,-0.041998
38756,9.521362,-1.128749,2.206923,-0.071664,0.040051,-0.044418
38757,9.576027,-1.156088,2.276025,-0.117341,0.032650,-0.046430
38758,9.575237,-1.239566,2.169003,-0.159431,0.038822,-0.051275
38759,9.525894,-1.305177,2.092516,-0.163078,0.053828,-0.050358
38760,9.578464,-1.352072,2.111370,-0.168138,0.068468,-0.044849
38761,9.577182,-1.415691,2.034273,-0.210797,0.086622,-0.032782
38762,9.554412,-1.488268,2.007771,-0.198304,0.097441,-0.022955
38763,9.508617,-1.481861,2.117234,-0.139458,0.100676,-0.011771
38764,9.559871,-1.447200,2.249318,-0.117346,0.093448,-0.019865
38765,9.553277,-1.376145,2.266611,-0.129087,0.098891,-0.009583
38766,9.522327,-1.307321,2.284994,-0.115365,0.086657,-0.009720
38767,9.552027,-1.323284,2.411289,-0.105143,0.085306,-0.013585
38768,9.548994,-1.342386,2.365718,-0.120175,0.073727,-0.011089
38769,9.494983,-1.379079,2.245658,-0.112493,0.066489,-0.014968
38770,9.521270,-1.425964,2.242429,-0.076315,0.061490,-0.021427
38771,9.489993,-1.372374,2.206821,-0.035815,0.053366,-0.013652
38772,9.514812,-1.373097,2.234112,-0.031061,0.046434,-0.020290
38773,9.510650,-1.403365,2.109633,-0.030046,0.028284,-0.018194
38774,9.556200,-1.392223,2.061502,0.001457,0.025989,-0.006405
38775,9.527538,-1.281883,2.155038,0.038767,0.025965,-0.018724
38776,9.499521,-1.212205,2.192998,0.022161,0.016129,-0.019092
38777,9.547009,-1.224009,2.140635,0.000827,0.013835,-0.018707
38778,9.523945,-1.227391,2.167208,0.002258,0.013652,-0.017364
38779,9.503848,-1.258334,2.214345,0.003857,0.010489,-0.016167
38780,9.481132,-1.282730,2.212940,-0.003228,0.009176,-0.015573
38781,9.484873,-1.350264,2.178548,-0.019568,-0.004691,-0.020592
38782,9.478841,-1.353225,2.029465,-0.021040,-0.005713,-0.010147
38783,9.503023,-1.329961,2.055673,0.001384,0.002364,-0.008896
38784,9.452499,-1.287565,2.089313,0.024239,0.003147,-0.009480
38785,9.474379,-1.198202,2.174574,0.006022,-0.003848,-0.008112
38786,9.474922,-1.218267,2.146348,-0.007980,-0.009460,-0.007071
38787,9.480608,-1.230787,2.241932,-0.000699,-0.010514,-0.013698
38788,9.507340,-1.272654,2.208526,-0.016205,-0.014298,-0.015392
38789,9.532909,-1.332492,2.123593,-0.019790,-0.003227,-0.005710
38790,9.558668,-1.333862,2.146319,-0.011447,0.000883,-0.004820
38791,9.510301,-1.358464,2.120931,-0.015949,0.003204,0.003088
38792,9.584174,-1.336159,2.169598,-0.004570,0.004266,0.003564
38793,9.535378,-1.340179,2.172232,-0.000354,0.005651,0.003236
38794,9.530296,-1.267913,2.183145,0.015504,0.003783,0.001693
38795,9.503647,-1.203594,2.243430,0.024212,0.002545,-0.003595
38796,9.507352,-1.192132,2.343855,0.008537,0.001739,-0.005144
38797,9.531378,-1.248725,2.235675,-0.031235,-0.002344,-0.010532
38798,9.532741,-1.331159,2.125183,-0.014539,0.006181,-0.011694
38799,9.536643,-1.340159,2.198766,0.024900,0.016525,-0.008958
38800,9.507420,-1.289259,2.184387,-0.000895,0.017447,-0.009500
38801,9.509547,-1.353991,2.127162,-0.006366,0.013269,-0.010657
38802,9.533750,-1.351208,2.127212,-0.001978,0.011679,-0.011128
38803,9.533969,-1.370709,2.100987,0.009246,0.016030,-0.013442
38804,9.530483,-1.321299,2.109287,0.008041,0.010987,-0.007641
38805,9.505969,-1.322218,2.111808,0.010569,0.016879,-0.007612
38806,9.503023,-1.234449,2.199657,0.029487,0.012282,-0.012494
38807,9.529539,-1.216649,2.275768,0.022592,0.008289,-0.014990
38808,9.532530,-1.242541,2.297344,-0.006002,0.007615,-0.013892
38809,9.482497,-1.300355,2.168891,-0.008573,0.003976,-0.021202
38810,9.533346,-1.339693,2.136289,0.005491,0.007660,-0.017887
38811,9.479100,-1.307352,2.070538,0.018052,0.013175,-0.017308
38812,9.478626,-1.284914,2.099507,0.022395,0.010674,-0.008948
38813,9.479504,-1.266294,2.152046,0.011435,0.001995,-0.008332
38814,9.476916,-1.258546,2.104311,0.015482,0.006369,-0.008506
38815,9.530757,-1.266972,2.199501,0.024249,0.002894,-0.006495
38816,9.523457,-1.207584,2.134439,0.022825,0.003081,-0.007832
38817,9.501387,-1.193887,2.211872,0.024366,0.001867,-0.010974
38818,9.500168,-1.189090,2.188172,0.022925,0.001749,-0.009369
38819,9.551094,-1.170095,2.262031,-0.001218,-0.002188,-0.007366
38820,9.504686,-1.218140,2.233148,-0.011507,0.002805,-0.009177
