// Start Time: Unknown
// Update Rate: 100.0Hz
// Filter Profile: human (46.1)
// Firmware Version: 4.3.5
PacketCounter,SampleTimeFine,Acc_X,Acc_Y,Acc_Z,Gyr_X,Gyr_Y,Gyr_Z,Roll,Pitch,Yaw
03744,,9.784115,-0.102877,1.285346,-0.042115,-0.001765,-0.066159,-8.233329,-82.752189,-27.725859
03745,,9.780733,-0.120963,1.280983,-0.037357,0.003668,-0.060361,-7.983130,-82.754987,-27.999648
03746,,9.809472,-0.146218,1.287739,-0.035700,0.007622,-0.054009,-7.756087,-82.754778,-28.249111
03747,,9.799125,-0.136104,1.267252,-0.027955,0.012985,-0.048905,-7.545927,-82.751135,-28.477110
03748,,9.763334,-0.072360,1.245420,-0.021483,0.016656,-0.042115,-7.357647,-82.744501,-28.679270
03749,,9.788529,-0.122892,1.249005,-0.013518,0.020292,-0.035672,-7.194688,-82.735556,-28.851354
03750,,9.801960,-0.101396,1.277001,-0.006327,0.022729,-0.032333,-7.035407,-82.724597,-29.015480
03751,,9.823560,-0.099695,1.268655,-0.004674,0.026686,-0.025979,-6.907938,-82.711227,-29.146685
03752,,9.855416,-0.103904,1.281937,0.004126,0.025803,-0.021792,-6.785135,-82.697511,-29.267946
03753,,9.877004,-0.102834,1.273702,0.014088,0.025063,-0.019432,-6.677732,-82.684555,-29.368091
03754,,9.869779,-0.071792,1.259214,0.015521,0.025912,-0.013365,-6.582803,-82.669999,-29.454612
03755,,9.861175,-0.051260,1.298381,0.020497,0.024784,-0.005173,-6.535591,-82.656230,-29.490372
03756,,9.810183,-0.019220,1.304945,0.020727,0.018210,-0.002785,-6.481150,-82.645264,-29.532940
03757,,9.816828,-0.048226,1.323974,0.020879,0.022206,0.003915,-6.475330,-82.632370,-29.526746
03758,,9.835087,-0.073275,1.311054,0.029453,0.023058,0.006771,-6.444355,-82.617471,-29.540424
03759,,9.780697,-0.065974,1.313479,0.046046,0.026668,0.009664,-6.447168,-82.601666,-29.510984
03760,,9.741307,-0.030523,1.288244,0.053848,0.026313,0.009418,-6.404567,-82.584202,-29.522152
03761,,9.717125,-0.043678,1.243708,0.065402,0.031929,0.010531,-6.397454,-82.565349,-29.491536
03762,,9.676246,-0.017816,1.272538,0.068280,0.030296,0.009700,-6.334485,-82.545741,-29.514737
03763,,9.625164,0.013447,1.279637,0.067004,0.028597,0.011387,-6.331796,-82.528736,-29.478732
03764,,9.709108,-0.014731,1.235560,0.068668,0.034051,0.003712,-6.226462,-82.507453,-29.544014
03765,,9.766098,0.001783,1.243320,0.061083,0.032673,0.005296,-6.198962,-82.488517,-29.536448
03766,,9.824771,-0.049026,1.205963,0.051562,0.034790,0.004538,-6.090506,-82.467411,-29.614843
03767,,9.817680,-0.096879,1.200511,0.046900,0.029408,0.012906,-6.105636,-82.449870,-29.572481
03768,,9.827512,-0.103545,1.224769,0.044824,0.025030,0.025517,-6.096820,-82.434818,-29.554051
03769,,9.823852,-0.129551,1.222697,0.055436,0.019104,0.031934,-6.193106,-82.421974,-29.424879
03770,,9.788054,-0.072843,1.200589,0.075885,0.015713,0.039536,-6.241649,-82.413026,-29.330712
03771,,9.718593,-0.018892,1.221150,0.085470,0.017501,0.032827,-6.324849,-82.400995,-29.197344
03772,,9.728516,0.050540,1.235602,0.086306,0.017793,0.029521,-6.302476,-82.393336,-29.167990
03773,,9.655699,0.081669,1.251945,0.077628,0.020218,0.025443,-6.356856,-82.380223,-29.068226
03774,,9.667269,0.084388,1.221617,0.066911,0.019745,0.019950,-6.280948,-82.372268,-29.104114
03775,,9.660250,0.035743,1.215112,0.063265,0.020159,0.017671,-6.310281,-82.359688,-29.037931
03776,,9.697202,0.061463,1.178191,0.062281,0.015828,0.014302,-6.222109,-82.354077,-29.088368
03777,,9.732523,0.078207,1.194689,0.061733,0.012882,0.012551,-6.234012,-82.345967,-29.040646
03778,,9.754347,0.076336,1.185164,0.050723,0.010227,0.013194,-6.115424,-82.349665,-29.127335
03779,,9.764345,0.070374,1.207851,0.033412,0.012741,0.012639,-6.144075,-82.341658,-29.079040
03780,,9.803009,0.034201,1.237362,0.024303,0.008955,0.008015,-6.005802,-82.344480,-29.200780
03781,,9.807936,-0.010227,1.197627,0.016936,0.005888,0.010940,-6.039633,-82.340511,-29.156789
03782,,9.799464,0.009074,1.234326,0.015628,0.001726,0.006092,-5.878562,-82.352830,-29.306647
03783,,9.831411,-0.074370,1.254603,0.016576,-0.001259,0.004001,-5.886449,-82.353362,-29.289015
03784,,9.774126,-0.013658,1.240560,0.021682,-0.004204,-0.000597,-5.709604,-82.370226,-29.450558
03785,,9.759069,0.035784,1.258834,0.020810,-0.006980,-0.003829,-5.684117,-82.374499,-29.464106
03786,,9.758993,-0.039675,1.267793,0.023450,0.000278,-0.014707,-5.416098,-82.386444,-29.718928
03787,,9.737046,-0.036295,1.278393,0.020214,-0.000402,-0.021914,-5.311225,-82.387884,-29.812932
03788,,9.733675,-0.057683,1.274137,0.013364,-0.003011,-0.023779,-5.085666,-82.400500,-30.028992
03789,,9.738746,-0.098873,1.233616,0.017739,0.000138,-0.026023,-4.964292,-82.401775,-30.141023
03790,,9.738798,-0.096102,1.233419,0.017411,-0.004528,-0.026418,-4.716143,-82.411190,-30.379143
03791,,9.742252,-0.146104,1.246353,0.022111,-0.006376,-0.026091,-4.594142,-82.416072,-30.489292
03792,,9.742350,-0.143247,1.245913,0.025317,-0.003351,-0.026510,-4.346755,-82.430967,-30.720138
03793,,9.742469,-0.140370,1.245311,0.026702,-0.009780,-0.025893,-4.223541,-82.437710,-30.828802
03794,,9.766298,-0.123751,1.291472,0.025722,-0.014117,-0.029253,-3.918305,-82.463175,-31.118757
03795,,9.791882,-0.174545,1.293100,0.026997,-0.012441,-0.030947,-3.773150,-82.471520,-31.249344
03796,,9.773519,-0.146019,1.306424,0.031590,-0.015842,-0.030750,-3.519505,-82.489547,-31.486309
03797,,9.763727,-0.214077,1.292864,0.039495,-0.014660,-0.030845,-3.367784,-82.498989,-31.616301
03798,,9.745365,-0.185277,1.306233,0.048566,-0.013356,-0.032767,-3.068518,-82.516583,-31.890441
03799,,9.787860,-0.193070,1.337668,0.057779,-0.012828,-0.026930,-2.922384,-82.524671,-32.004265
03800,,9.767754,-0.179847,1.293250,0.063897,-0.013770,-0.020538,-2.763450,-82.537692,-32.127288
03801,,9.781427,-0.158440,1.317829,0.063705,-0.009555,-0.015358,-2.663815,-82.543474,-32.190775
03802,,9.771396,-0.151233,1.295434,0.064465,-0.008328,-0.012262,-2.484490,-82.553466,-32.336866
03803,,9.746257,-0.172070,1.301374,0.056155,-0.008405,-0.007241,-2.424785,-82.558277,-32.364509
03804,,9.751260,-0.138408,1.250906,0.061101,-0.004630,-0.000125,-2.399623,-82.567502,-32.352151
03805,,9.764819,-0.119048,1.275999,0.056001,-0.006504,0.005569,-2.396611,-82.570882,-32.322613
03806,,9.756462,-0.098910,1.311490,0.058698,-0.008746,0.011035,-2.408704,-82.574994,-32.279919
03807,,9.783395,-0.068218,1.250226,0.056251,-0.005713,0.013456,-2.441125,-82.577615,-32.214568
03808,,9.775018,-0.048395,1.285889,0.048963,-0.004908,0.008892,-2.443701,-82.581398,-32.184976
03809,,9.800335,-0.026101,1.278757,0.049069,-0.003355,0.009018,-2.460500,-82.582747,-32.139565
03810,,9.796992,-0.050276,1.274985,0.039988,0.004998,0.008728,-2.421577,-82.584596,-32.156854
03811,,9.785190,-0.053881,1.307549,0.043162,0.000673,0.002877,-2.413716,-82.583803,-32.139756
03812,,9.785178,-0.053607,1.307651,0.038353,0.000960,0.002420,-2.441768,-82.580819,-32.089264
03813,,9.771635,-0.072186,1.282440,0.042719,0.004097,0.000158,-2.422091,-82.578084,-32.084341
03814,,9.790171,-0.097022,1.268562,0.045082,0.006848,0.003031,-2.384368,-82.575416,-32.097367
03815,,9.812021,-0.098024,1.258675,0.041439,0.007248,0.000747,-2.366628,-82.570919,-32.091272
03816,,9.833880,-0.098923,1.248744,0.038016,0.005935,-0.000175,-2.375005,-82.568419,-32.057341
03817,,9.845762,-0.171496,1.227267,0.044537,0.003887,0.001303,-2.359100,-82.565809,-32.047545
03818,,9.828709,-0.137470,1.188162,0.058958,0.003015,0.002679,-2.375889,-82.559585,-32.003189
03819,,9.762829,-0.133111,1.220429,0.058554,0.004144,0.007596,-2.380485,-82.556551,-31.964719
03820,,9.788087,-0.110834,1.213730,0.059105,-0.002551,0.011565,-2.437753,-82.555770,-31.876797
03821,,9.745825,-0.100119,1.180827,0.060269,-0.002445,0.009740,-2.452326,-82.556392,-31.827334
03822,,9.749322,-0.152737,1.194954,0.064199,-0.000720,0.005867,-2.437548,-82.562236,-31.804242
03823,,9.794946,-0.139608,1.231417,0.070497,-0.001062,0.005986,-2.429487,-82.562178,-31.771672
03824,,9.810098,-0.112018,1.202587,0.073157,-0.005828,0.004946,-2.487602,-82.562783,-31.672875
03825,,9.830501,-0.121215,1.245459,0.068676,-0.005695,0.005973,-2.482113,-82.565300,-31.638797
03826,,9.823800,-0.092597,1.226462,0.071158,-0.015850,0.012346,-2.592883,-82.570738,-31.487398
03827,,9.842551,-0.118315,1.210870,0.071371,-0.012743,0.012583,-2.617497,-82.577000,-31.421430
03828,,9.798858,-0.115883,1.230587,0.079711,-0.019819,0.016346,-2.688099,-82.589783,-31.306660
03829,,9.805789,-0.068476,1.236068,0.096671,-0.017391,0.014305,-2.707241,-82.598615,-31.231623
03830,,9.733386,-0.035238,1.248122,0.099725,-0.018499,0.007227,-2.739195,-82.609849,-31.143410
03831,,9.743739,0.037161,1.256804,0.095754,-0.022783,0.004600,-2.717288,-82.622028,-31.110319
03832,,9.747373,0.062142,1.258224,0.083115,-0.019847,-0.003283,-2.679616,-82.634880,-31.109114
03833,,9.742408,0.023407,1.195280,0.081399,-0.018101,-0.004310,-2.625248,-82.644607,-31.117136
03834,,9.742744,-0.051581,1.204587,0.076374,-0.020926,-0.004992,-2.595256,-82.653923,-31.121658
03835,,9.800393,-0.033777,1.206653,0.075931,-0.017523,-0.007736,-2.528539,-82.663334,-31.145474
03836,,9.765124,-0.050010,1.190350,0.079462,-0.019481,-0.005561,-2.450302,-82.678142,-31.189649
03837,,9.811049,-0.035199,1.224846,0.077855,-0.016178,-0.006480,-2.387177,-82.686742,-31.208825
03838,,9.844862,-0.032232,1.180309,0.071555,-0.015838,-0.006592,-2.369090,-82.695587,-31.185514
03839,,9.840208,-0.062227,1.229517,0.067186,-0.014136,-0.005453,-2.316642,-82.702942,-31.200105
03840,,9.837027,-0.084776,1.224772,0.073480,-0.014489,-0.005338,-2.235069,-82.718700,-31.237395
03841,,9.837228,-0.082981,1.223277,0.076419,-0.017184,-0.012523,-2.145524,-82.728004,-31.284010
03842,,9.818858,-0.055292,1.235936,0.081653,-0.011259,-0.011633,-2.136270,-82.729497,-31.250868
03843,,9.844278,-0.030766,1.227453,0.086346,-0.013122,-0.011282,-2.046851,-82.736318,-31.291690
03844,,9.790373,-0.020803,1.225892,0.079166,-0.010796,-0.015742,-2.026355,-82.736678,-31.271838
03845,,9.783574,0.010242,1.206741,0.077115,-0.004096,-0.019429,-1.905063,-82.738364,-31.350201
03846,,9.798614,0.039874,1.177332,0.067282,-0.001811,-0.021720,-1.844767,-82.736585,-31.370572
03847,,9.791711,0.071378,1.158714,0.054863,-0.000608,-0.028230,-1.697058,-82.736314,-31.488431
03848,,9.808616,0.118276,1.186708,0.040566,-0.002980,-0.028323,-1.614010,-82.736485,-31.544055
03849,,9.766274,0.131946,1.153037,-0.000979,-0.014309,-0.035539,-1.467881,-82.744049,-31.692561
03850,,9.824112,0.075653,1.167076,-0.043587,-0.019365,-0.041994,-1.331668,-82.755094,-31.863888
03851,,9.814374,0.007004,1.155622,-0.054645,-0.016127,-0.036067,-1.213809,-82.763559,-32.014956
03852,,9.821534,-0.017982,1.172434,-0.047127,-0.017431,-0.044172,-1.083240,-82.772640,-32.178274
03853,,9.803100,0.011602,1.184887,-0.038525,-0.012781,-0.048887,-0.897792,-82.779160,-32.388202
03854,,9.846153,-0.070432,1.228263,-0.036206,-0.012604,-0.052543,-0.713988,-82.786073,-32.600152
03855,,9.788986,-0.082227,1.223444,-0.037925,-0.010861,-0.053578,-0.506611,-82.791290,-32.831880
03856,,9.821908,-0.159608,1.245034,-0.038136,-0.013982,-0.053789,-0.289788,-82.799527,-33.091885
03857,,9.873549,-0.262436,1.252864,-0.032706,-0.004924,-0.052697,-0.082645,-82.801077,-33.320484
03858,,9.896789,-0.411967,1.265867,-0.012944,0.009142,-0.045021,0.087183,-82.798044,-33.494054
03859,,10.033422,-0.621963,1.241166,0.005945,0.006976,-0.030643,0.215971,-82.792630,-33.621322
03860,,10.142861,-0.946949,1.344671,0.037674,0.022100,-0.005170,0.209120,-82.781418,-33.589446
03861,,10.153319,-1.273841,1.359859,0.101208,0.034266,0.036392,0.088713,-82.760456,-33.410495
03862,,10.088126,-1.501695,1.433666,0.206314,0.044558,0.074634,-0.123243,-82.740671,-33.108233
03863,,9.997501,-1.584401,1.551218,0.315546,0.049943,0.111568,-0.454461,-82.710370,-32.593088
03864,,9.844062,-1.479873,1.627565,0.415502,0.059390,0.141551,-0.930686,-82.677136,-31.898770
03865,,9.774561,-1.319220,1.759219,0.487711,0.089763,0.162222,-1.374995,-82.622473,-31.170185
03866,,9.685651,-1.219338,1.809856,0.558790,0.150296,0.177595,-1.971092,-82.533297,-30.249581
03867,,9.609155,-1.263296,1.806103,0.633204,0.203447,0.202607,-2.462716,-82.410952,-29.388877
03868,,9.660741,-1.478469,1.828335,0.722783,0.252516,0.247467,-3.200005,-82.257144,-28.245517
03869,,9.600123,-1.699997,1.800510,0.804946,0.296362,0.303047,-3.931212,-82.075498,-27.043091
03870,,9.697317,-1.970198,1.727805,0.878710,0.313058,0.371310,-5.081056,-81.865363,-25.384403
03871,,9.878451,-2.187211,1.660346,0.934070,0.321111,0.444742,-6.181626,-81.655779,-23.732867
03872,,10.139825,-2.339926,1.763067,1.006199,0.341938,0.520105,-7.584683,-81.427033,-21.760256
03873,,10.282870,-2.416885,2.016909,1.071768,0.391001,0.600032,-8.987778,-81.154391,-19.720901
03874,,10.369386,-2.413883,2.258493,1.116898,0.436698,0.681002,-10.720933,-80.835192,-17.323671
03875,,10.472321,-2.367577,2.477293,1.182530,0.497740,0.764648,-12.310805,-80.466928,-15.027054
03876,,10.423391,-2.223670,2.696648,1.238051,0.573835,0.838473,-14.070120,-80.029874,-12.572733
03877,,10.393027,-2.159012,2.877380,1.261502,0.649629,0.907765,-15.611650,-79.535614,-10.273388
03878,,10.393959,-2.127585,2.968215,1.285756,0.722502,0.965768,-17.222344,-78.976714,-7.920172
03879,,10.444241,-1.986699,3.002844,1.314332,0.802813,1.016799,-18.533646,-78.359085,-5.816279
03880,,10.690498,-1.997118,3.012572,1.318597,0.904235,1.074268,-19.845915,-77.669954,-3.732044
03881,,10.844707,-1.998819,3.071228,1.307415,1.009086,1.128120,-20.891608,-76.902320,-1.893664
03882,,11.062006,-2.001297,3.172582,1.316114,1.106917,1.190640,-21.914402,-76.069790,-0.128914
03883,,11.263937,-2.059481,3.367859,1.302979,1.195139,1.248981,-22.734832,-75.164310,1.487135
03884,,11.279198,-1.877626,3.542748,1.264298,1.296449,1.309749,-23.544165,-74.197707,3.005855
03885,,11.269627,-1.644821,3.756885,1.160426,1.382776,1.383509,-24.256885,-73.152473,4.439532
03886,,11.214018,-1.333156,3.988488,0.963865,1.484504,1.477801,-25.113401,-72.018919,5.858373
03887,,11.134032,-1.322555,4.095938,0.656999,1.571453,1.569000,-25.993331,-70.819460,7.181956
03888,,11.189448,-1.859685,4.037436,0.379690,1.656438,1.674409,-27.063564,-69.497892,8.533981
03889,,11.068925,-1.576511,4.093037,0.126957,1.747291,1.782890,-28.129717,-68.138153,9.753478
03890,,10.713159,-2.016334,3.963938,-0.159771,1.818069,1.861522,-29.327697,-66.662422,10.939514
03891,,10.763990,-2.595224,4.012591,-0.316836,1.867524,1.937752,-30.469425,-65.182145,11.989237
03892,,10.786015,-2.655033,4.061485,-0.403857,1.955489,2.014740,-31.607524,-63.579435,12.982438
03893,,10.600074,-2.792721,4.199941,-0.493770,2.030648,2.073983,-32.643981,-61.962984,13.827861
03894,,10.526190,-3.046813,4.390101,-0.569145,2.081447,2.131072,-33.679876,-60.252560,14.625792
03895,,10.382964,-3.418138,4.385039,-0.557979,2.110854,2.201519,-34.617185,-58.544418,15.341237
03896,,10.284283,-3.679643,4.331217,-0.455241,2.106530,2.268865,-35.497322,-56.769173,16.060739
03897,,9.989988,-2.880025,4.465197,-0.354867,2.078129,2.334482,-36.271020,-55.021316,16.747414
03898,,9.797230,-1.281943,4.994800,-0.660955,2.010674,2.379933,-37.235790,-53.246706,17.456528
03899,,10.117325,-3.673072,4.395671,-0.983402,2.020534,2.398063,-38.289452,-51.490952,18.073220
03900,,9.603474,-5.087131,4.234990,-0.857039,2.056358,2.411530,-39.214049,-49.678664,18.622119
03901,,9.114722,-5.640536,4.158221,-0.628727,2.041840,2.463338,-39.965773,-47.878553,19.140214
03902,,8.678103,-5.471753,4.394857,-0.420571,1.999835,2.530838,-40.621122,-46.042530,19.690308
03903,,8.421057,-5.381338,4.578784,-0.306596,1.966776,2.584689,-41.181179,-44.222053,20.230152
03904,,8.063506,-5.566703,4.697380,-0.187303,1.964049,2.623392,-41.674026,-42.363191,20.771030
03905,,7.886173,-5.852454,4.921227,-0.005733,1.952973,2.652645,-42.019015,-40.516592,21.284663
03906,,7.793796,-5.864506,5.341523,0.141696,1.929498,2.689013,-42.294893,-38.645821,21.818804
03907,,7.552493,-5.633549,5.744105,0.198235,1.902366,2.704769,-42.499340,-36.796883,22.335742
03908,,7.396536,-5.545045,5.890558,0.171205,1.863702,2.707150,-42.729180,-34.947049,22.865336
03909,,7.144157,-5.660200,5.642857,0.188437,1.822958,2.697677,-42.908852,-33.131284,23.376069
03910,,7.006178,-5.720743,5.591497,0.231988,1.779909,2.678796,-43.068922,-31.328959,23.892212
03911,,6.761991,-5.819836,5.709658,0.263849,1.747303,2.655048,-43.169578,-29.559339,24.385774
03912,,6.431958,-5.682672,5.915637,0.277203,1.721464,2.613052,-43.260876,-27.810114,24.869011
03913,,6.064176,-5.651858,5.964723,0.275374,1.692229,2.558226,-43.309094,-26.100280,25.319617
03914,,5.563626,-5.739607,5.980781,0.319243,1.663432,2.513903,-43.333213,-24.417745,25.762830
03915,,5.227063,-5.770791,5.909649,0.385828,1.622405,2.488996,-43.288331,-22.764053,26.198732
03916,,4.841575,-5.793386,5.838594,0.462945,1.567407,2.452427,-43.207671,-21.149721,26.644944
03917,,4.667554,-5.565916,5.886849,0.587990,1.508524,2.393612,-43.024627,-19.582383,27.082069
03918,,4.410230,-5.267238,5.947057,0.680155,1.468303,2.315178,-42.790088,-18.068866,27.508332
03919,,4.170879,-4.912051,5.945731,0.750459,1.422976,2.221006,-42.481515,-16.608071,27.909961
03920,,3.955888,-4.592348,5.857821,0.790731,1.372632,2.124789,-42.151583,-15.216122,28.298995
03921,,3.768976,-4.605004,5.941466,0.799869,1.341375,2.071783,-41.790416,-13.851817,28.679172
03922,,3.453417,-5.106473,5.922853,0.830802,1.337307,2.031163,-41.414415,-12.518809,29.052761
03923,,2.943881,-5.362868,5.832454,0.910001,1.290081,1.986748,-40.972313,-11.213834,29.430015
03924,,2.656004,-5.139879,5.624343,0.948527,1.174643,1.903490,-40.516190,-10.007180,29.825342
03925,,2.506718,-4.251314,5.397622,0.862691,1.077944,1.765111,-40.085386,-8.882955,30.201694
03926,,2.369187,-3.612507,5.439705,0.655408,1.045848,1.602591,-39.771194,-7.851139,30.525627
03927,,2.074718,-3.600018,5.555351,0.457325,1.022113,1.468444,-39.546200,-6.864261,30.801286
03928,,1.637070,-3.686175,5.574039,0.343447,0.970521,1.365612,-39.389790,-5.956608,31.053720
03929,,1.256919,-3.937138,5.501158,0.277499,0.889264,1.283306,-39.256272,-5.097457,31.300212
03930,,1.112961,-4.292763,5.454040,0.271638,0.805045,1.205470,-39.131370,-4.323123,31.544688
03931,,1.032574,-4.525654,5.473551,0.314021,0.742509,1.141274,-38.969714,-3.581724,31.784466
03932,,0.952524,-4.544992,5.563585,0.380421,0.681918,1.068544,-38.775214,-2.913118,32.015866
03933,,0.928406,-4.360605,5.808970,0.436436,0.605604,1.029830,-38.537920,-2.274528,32.259553
03934,,0.931307,-3.763390,6.223906,0.413673,0.568894,0.920266,-38.318144,-1.711507,32.469510
03935,,0.527071,-3.961314,6.218725,0.243734,0.558547,0.784854,-38.184135,-1.182736,32.623978
03936,,0.028209,-4.601404,5.918029,0.211632,0.503232,0.681229,-38.073019,-0.735094,32.752191
03937,,-0.074861,-4.689911,6.103280,0.278989,0.448325,0.619390,-37.916018,-0.315154,32.873146
03938,,-0.091142,-4.552030,6.422312,0.253397,0.398158,0.554598,-37.778794,0.040893,32.983182
03939,,-0.065390,-4.572829,6.657152,0.147897,0.362330,0.497625,-37.695438,0.378613,33.081002
03940,,-0.186564,-4.829934,6.835657,0.062747,0.325314,0.459184,-37.665345,0.668830,33.174328
03941,,-0.438833,-4.958642,7.070057,-0.010132,0.276955,0.417724,-37.671601,0.939731,33.266216
03942,,-0.541629,-5.514695,6.951896,-0.074006,0.215316,0.378050,-37.718098,1.152822,33.361212
03943,,-0.527550,-6.031394,7.033095,-0.068675,0.159616,0.343821,-37.757025,1.344744,33.460449
03944,,-0.393384,-5.456775,7.453529,-0.121225,0.127730,0.275655,-37.830780,1.483716,33.539407
03945,,-0.296933,-4.434323,7.710818,-0.334144,0.105983,0.168931,-38.022940,1.590129,33.577847
03946,,-0.283948,-3.329825,7.791266,-0.708538,0.097567,0.081407,-38.433570,1.648077,33.578934
03947,,-0.530091,-2.877346,7.273614,-1.149822,0.053989,0.003746,-39.094641,1.672549,33.560648
03948,,-0.658433,-3.070577,6.314981,-1.466055,-0.043655,-0.030527,-39.935069,1.628200,33.562328
03949,,-0.499271,-3.627094,5.743783,-1.660053,-0.115304,-0.038584,-40.887242,1.562556,33.587774
03950,,-0.481733,-4.280098,5.549208,-1.782049,-0.157313,-0.070046,-41.905753,1.455669,33.616673
03951,,-0.437099,-5.025586,5.445206,-1.909562,-0.193876,-0.116544,-43.000979,1.327606,33.641866
03952,,-0.450017,-6.008114,5.230330,-1.990061,-0.217462,-0.153322,-44.138745,1.164972,33.663526
03953,,-0.358141,-7.055277,5.469105,-2.007093,-0.226031,-0.149653,-45.289899,1.011561,33.693227
03954,,-0.092243,-7.568166,6.196132,-2.021943,-0.213814,-0.119468,-46.447555,0.866099,33.732885
03955,,0.183332,-7.891459,6.879745,-2.095302,-0.152313,-0.086443,-47.649389,0.769308,33.762567
03956,,-0.028096,-7.687938,7.028622,-2.153668,-0.136928,-0.045921,-48.883723,0.686455,33.802981
03957,,0.102128,-7.883605,6.452659,-2.180411,-0.179728,-0.033486,-50.134006,0.603899,33.868437
03958,,0.470078,-8.604939,6.340244,-2.054335,-0.170004,-0.030858,-51.311442,0.517660,33.932058
03959,,0.620353,-9.292579,6.707081,-1.876159,-0.131620,-0.016228,-52.387682,0.462645,33.985261
03960,,0.516116,-9.818586,6.847583,-1.635521,-0.084405,0.012255,-53.326315,0.427485,34.027455
03961,,0.224641,-10.477035,6.764210,-1.293288,-0.025763,0.049574,-54.068835,0.440502,34.055844
03962,,0.053910,-10.735443,6.810548,-0.832307,-0.004009,0.088533,-54.548327,0.468459,34.086696
03963,,0.048960,-10.307011,6.729627,-0.392115,0.024223,0.123284,-54.774472,0.532966,34.115927
03964,,0.075256,-9.290405,6.499308,-0.060836,0.039938,0.116007,-54.812919,0.588720,34.134920
03965,,0.033702,-8.158244,6.036355,0.156805,0.044690,0.071695,-54.724784,0.635897,34.137399
03966,,-0.090812,-7.228620,5.560481,0.302962,0.030139,0.015983,-54.554868,0.641758,34.127980
03967,,-0.082441,-6.553892,5.402446,0.340682,0.006735,-0.049728,-54.361626,0.619666,34.107969
03968,,0.103643,-6.285789,5.468060,0.239634,0.002508,-0.090087,-54.227431,0.567362,34.076059
03969,,0.216338,-6.536624,5.423370,0.099479,0.019856,-0.106850,-54.172600,0.523209,34.030706
03970,,0.086846,-7.061259,5.237363,0.035009,0.051312,-0.113975,-54.154799,0.476272,33.968036
03971,,0.025263,-7.638391,5.251761,0.007539,0.060074,-0.123008,-54.152768,0.438141,33.898545
03972,,-0.062009,-7.916086,5.365271,0.016739,0.071829,-0.136555,-54.145518,0.387787,33.818756
03973,,-0.062443,-8.032144,5.473092,0.032829,0.072005,-0.142658,-54.128964,0.344553,33.737119
03974,,0.056649,-8.203348,5.590260,0.021536,0.069904,-0.145863,-54.119223,0.289603,33.655073
03975,,0.065259,-8.388526,5.756854,0.001322,0.066266,-0.126968,-54.120547,0.251746,33.581356
03976,,0.064777,-8.689321,5.721531,-0.002301,0.057581,-0.092701,-54.124592,0.217510,33.522874
03977,,-0.012336,-8.908589,5.591876,0.050756,0.039083,-0.071029,-54.097397,0.196497,33.480559
03978,,-0.016342,-8.983580,5.539063,0.127289,0.029548,-0.039337,-54.027815,0.177870,33.452989
03979,,-0.045496,-8.854244,5.566417,0.210069,0.014734,-0.025625,-53.909235,0.169789,33.437207
03980,,-0.085175,-8.523873,5.596772,0.284452,0.011694,-0.005057,-53.750520,0.161385,33.429440
03981,,-0.138856,-8.170645,5.594711,0.312007,0.005463,0.003043,-53.573491,0.163468,33.427629
03982,,-0.121318,-7.980721,5.574546,0.303723,-0.002888,0.007706,-53.404198,0.156415,33.430934
03983,,-0.084485,-7.911741,5.562929,0.289541,-0.014058,0.010209,-53.240012,0.155116,33.440560
03984,,-0.013570,-8.002036,5.653580,0.305481,-0.025062,0.000023,-53.069954,0.137276,33.451408
03985,,-0.009414,-8.059774,5.653967,0.359729,-0.019332,-0.017016,-52.865573,0.121641,33.454046
03986,,-0.175305,-7.941296,5.650716,0.518376,-0.017312,-0.029680,-52.573871,0.093109,33.450985
03987,,-0.105984,-7.457893,5.865248,0.647341,-0.014693,-0.053199,-52.204725,0.062643,33.438710
03988,,0.046204,-6.761102,6.259152,0.645801,0.009391,-0.081727,-51.840055,0.020463,33.405004
03989,,0.131248,-6.407511,6.335183,0.558787,0.036183,-0.118534,-51.521631,-0.021149,33.346275
03990,,0.270695,-6.506388,6.334836,0.472079,0.071137,-0.168524,-51.255112,-0.079608,33.253528
03991,,0.311313,-7.141677,6.380574,0.471557,0.119922,-0.215105,-50.986424,-0.133606,33.122316
03992,,0.287511,-8.062743,6.581930,0.631806,0.177460,-0.219590,-50.627058,-0.175411,32.963352
03993,,0.256595,-8.801672,7.109936,0.885651,0.238176,-0.179650,-50.120841,-0.168840,32.792218
03994,,0.183487,-9.249646,7.303890,1.162216,0.270750,-0.103245,-49.457599,-0.122478,32.634878
03995,,-0.045977,-9.386931,7.148527,1.440904,0.261440,-0.029994,-48.633585,-0.038451,32.510080
03996,,-0.135005,-9.359150,6.894112,1.693617,0.223439,0.027320,-47.666921,0.050178,32.424442
03997,,-0.252522,-9.418959,6.346099,1.949652,0.175769,0.057140,-46.551679,0.141538,32.372497
03998,,-0.449929,-9.656428,5.917928,2.290923,0.121881,0.073044,-45.244528,0.212172,32.350707
03999,,-0.678066,-9.887829,5.490349,2.687611,0.031762,0.105722,-43.706255,0.266445,32.380685
04000,,-0.721203,-9.659638,5.200596,3.121578,-0.087245,0.134735,-41.926013,0.275027,32.470454
04001,,-0.429166,-8.583119,5.409494,3.444491,-0.195647,0.155349,-39.953569,0.247552,32.610580
04002,,-0.041655,-6.787813,5.588211,3.598962,-0.269016,0.148310,-37.903321,0.174634,32.772645
04003,,0.220205,-4.521823,6.158449,3.437459,-0.268880,0.081228,-35.935264,0.078342,32.901760
04004,,0.349828,-2.431476,7.074630,2.932054,-0.223393,0.003506,-34.268388,-0.031535,32.976092
04005,,0.198763,-0.956607,7.880950,2.070769,-0.151614,-0.028119,-33.083721,-0.113816,33.010174
04006,,-0.234793,-1.045232,8.306656,1.053611,-0.059558,-0.007142,-32.489550,-0.151103,33.024293
04007,,-0.688490,-2.799851,8.219090,0.269208,-0.017106,0.036152,-32.337120,-0.149323,33.046337
04008,,-0.556904,-4.588744,8.327687,-0.067879,-0.003177,0.069098,-32.382080,-0.135296,33.079859
04009,,-0.044798,-5.455791,8.511380,-0.087439,0.012677,0.097926,-32.434025,-0.100147,33.122641
04010,,0.318824,-5.889375,8.447270,0.047357,0.025544,0.095760,-32.412506,-0.063506,33.160232
04011,,0.507309,-5.935589,8.323660,0.213373,0.003417,0.074960,-32.292044,-0.039926,33.194774
04012,,0.468076,-5.636516,8.300092,0.311537,-0.025707,0.055333,-32.119590,-0.040953,33.228554
04013,,0.198262,-5.174455,8.404936,0.292340,-0.049000,0.049390,-31.953885,-0.050798,33.266739
04014,,-0.089906,-4.952939,8.315212,0.201789,-0.070924,0.048943,-31.844373,-0.076164,33.311111
04015,,-0.098196,-4.735656,8.294299,0.096737,-0.085888,0.042714,-31.790785,-0.106137,33.357154
04016,,-0.022014,-4.636682,8.240828,-0.015953,-0.070737,0.022040,-31.805638,-0.139361,33.388348
04017,,0.007804,-4.598075,8.205705,-0.105870,-0.054564,-0.003500,-31.868102,-0.168043,33.402441
04018,,0.108968,-4.667314,8.159519,-0.175912,-0.039695,-0.010986,-31.974002,-0.195948,33.408241
04019,,0.119050,-4.786393,8.163737,-0.231913,-0.037377,-0.017042,-32.108655,-0.220352,33.410637
04020,,0.186944,-4.978701,8.226525,-0.259129,-0.040837,-0.015682,-32.261806,-0.250180,33.414620
04021,,0.146082,-5.192514,8.230879,-0.263684,-0.039122,-0.021186,-32.414660,-0.276690,33.415673
04022,,0.065260,-5.446716,8.107874,-0.219418,-0.054106,-0.029944,-32.544871,-0.317313,33.416977
04023,,0.034262,-5.442680,8.038099,-0.156308,-0.073187,-0.043561,-32.636206,-0.367172,33.417859
04024,,0.028084,-5.224287,8.055063,-0.097301,-0.082967,-0.064653,-32.696585,-0.432336,33.411479
04025,,0.082683,-4.956004,8.091868,-0.072167,-0.095379,-0.081132,-32.739623,-0.504529,33.401235
04026,,0.103051,-4.805858,8.123762,-0.071921,-0.096809,-0.105013,-32.785142,-0.588764,33.379814
04027,,0.127869,-4.761984,8.048416,-0.086576,-0.105436,-0.114878,-32.836263,-0.676298,33.356560
04028,,0.124740,-4.684244,7.942309,-0.107249,-0.115146,-0.137062,-32.901393,-0.779271,33.325572
04029,,0.168303,-4.672626,7.855227,-0.140958,-0.128866,-0.164327,-32.983354,-0.893534,33.286040
04030,,0.205081,-4.736984,7.788243,-0.179102,-0.133182,-0.192875,-33.088744,-1.022607,33.234165
04031,,0.182047,-4.886482,7.743160,-0.202149,-0.152845,-0.217938,-33.205249,-1.165313,33.176830
04032,,0.215553,-4.910515,7.652632,-0.216358,-0.170920,-0.247402,-33.331159,-1.329741,33.111199
04033,,0.243648,-4.808903,7.659145,-0.234159,-0.190098,-0.280107,-33.465248,-1.510127,33.036490
04034,,0.235662,-4.865262,7.639068,-0.245099,-0.210325,-0.312066,-33.606516,-1.714070,32.953190
04035,,0.232175,-4.767627,7.537137,-0.236564,-0.238749,-0.348747,-33.740930,-1.939820,32.862054
04036,,0.250415,-4.719559,7.376202,-0.218261,-0.271357,-0.409496,-33.864981,-2.204136,32.752725
04037,,0.373640,-4.544291,7.261128,-0.179468,-0.324301,-0.480929,-33.964413,-2.513204,32.626979
04038,,0.507587,-4.232059,7.136118,-0.159669,-0.376115,-0.568727,-34.051497,-2.878580,32.476434
04039,,0.690577,-3.883778,6.939268,-0.145567,-0.448098,-0.676335,-34.127077,-3.309527,32.298512
04040,,0.801569,-3.493593,6.745827,-0.158552,-0.524292,-0.810346,-34.206528,-3.823388,32.081818
04041,,0.829291,-3.153371,6.607154,-0.173562,-0.617051,-0.961601,-34.289210,-4.426829,31.824054
04042,,0.922603,-2.784307,6.493979,-0.193450,-0.705820,-1.147145,-34.374750,-5.136203,31.507354
04043,,1.083280,-2.464153,6.345166,-0.200704,-0.778004,-1.353772,-34.453836,-5.943464,31.116940
04044,,1.350797,-2.444463,6.366030,-0.161736,-0.851174,-1.524378,-34.496340,-6.844819,30.669070
04045,,1.824977,-3.030514,6.284554,-0.110091,-0.864284,-1.605988,-34.499811,-7.775240,30.186641
04046,,1.655720,-3.633030,6.003995,-0.035847,-0.892098,-1.583615,-34.452181,-8.715648,29.721753
04047,,1.411246,-3.488048,5.917604,0.025740,-0.969032,-1.569532,-34.369763,-9.683051,29.287389
04048,,1.248478,-3.130868,6.076268,-0.023801,-1.019168,-1.637005,-34.301235,-10.699943,28.833447
04049,,1.448683,-3.172785,6.170449,-0.110336,-1.068223,-1.795199,-34.265686,-11.786184,28.317799
04050,,2.257423,-3.510268,6.416281,-0.160382,-1.106036,-1.953591,-34.229937,-12.945446,27.733675
04051,,3.140058,-3.976987,6.695699,-0.222310,-1.153704,-2.033898,-34.216331,-14.148575,27.124285
04052,,3.833312,-4.335601,6.915531,-0.282986,-1.208417,-2.039679,-34.222795,-15.384400,26.525191
04053,,3.868217,-4.635084,6.880841,-0.396109,-1.241355,-2.021846,-34.291531,-16.625502,25.944949
04054,,3.440549,-4.970233,6.849953,-0.491728,-1.266116,-2.028914,-34.398428,-17.887517,25.365680
04055,,3.158935,-5.325894,6.796791,-0.564978,-1.296443,-2.042142,-34.541324,-19.163287,24.791037
04056,,3.128484,-5.594592,6.561365,-0.568058,-1.363813,-2.074671,-34.670485,-20.488985,24.219816
04057,,3.709764,-5.671315,6.276373,-0.501810,-1.458783,-2.127101,-34.755757,-21.871240,23.655179
04058,,4.709683,-5.709804,6.399153,-0.388128,-1.514083,-2.169253,-34.756320,-23.299979,23.082017
04059,,5.836580,-5.944690,6.903847,-0.264156,-1.525935,-2.142672,-34.681456,-24.718999,22.521762
04060,,6.288455,-6.329543,7.178098,-0.162012,-1.531745,-2.034736,-34.553325,-26.112003,22.008803
04061,,6.085931,-6.346608,7.039285,-0.055258,-1.543218,-1.954588,-34.372775,-27.475909,21.534180
04062,,5.684827,-5.964870,6.465172,0.014913,-1.590499,-1.902962,-34.155497,-28.852390,21.091584
04063,,5.259711,-5.655823,5.835341,0.078217,-1.672614,-1.900200,-33.904517,-30.257063,20.670095
04064,,5.458102,-5.135009,5.673316,0.167005,-1.797896,-1.908221,-33.606794,-31.731007,20.275470
04065,,6.310975,-4.570124,6.007695,0.172110,-1.904559,-1.925872,-33.306317,-33.250931,19.896449
04066,,7.375388,-4.365152,6.781084,0.083041,-1.894570,-1.932659,-33.034827,-34.776060,19.493020
04067,,7.611319,-4.833070,7.178849,-0.040829,-1.777615,-1.886786,-32.807030,-36.219713,19.057442
04068,,6.999641,-5.274123,7.016511,-0.012807,-1.707578,-1.802094,-32.559009,-37.612292,18.629304
04069,,6.775055,-5.034969,6.634423,0.085610,-1.720397,-1.700294,-32.279095,-38.967832,18.253923
04070,,7.073208,-4.520492,6.225970,0.101278,-1.781622,-1.627116,-32.018197,-40.339779,17.932673
04071,,7.556890,-4.027227,5.937439,0.083712,-1.865684,-1.606244,-31.782965,-41.734800,17.644785
04072,,8.034257,-3.449241,5.724594,0.016534,-1.933806,-1.612859,-31.587917,-43.175057,17.366368
04073,,8.330704,-2.874903,6.137089,-0.106148,-1.912459,-1.652343,-31.424165,-44.605213,17.039920
04074,,8.394933,-2.917293,6.509303,-0.310462,-1.798334,-1.674312,-31.317089,-45.997259,16.636069
04075,,8.233133,-3.602031,6.655720,-0.434936,-1.689974,-1.638349,-31.250026,-47.313400,16.198773
04076,,8.070849,-4.092922,6.291335,-0.418393,-1.627195,-1.568089,-31.173084,-48.589383,15.770040
04077,,8.275184,-4.094773,5.755414,-0.319898,-1.626143,-1.498292,-31.063582,-49.831881,15.381002
04078,,8.761044,-3.756229,5.227777,-0.217791,-1.649336,-1.464989,-30.905761,-51.086903,15.012143
04079,,9.293126,-2.989226,5.227939,-0.156533,-1.658461,-1.498355,-30.678224,-52.343871,14.605772
04080,,9.702357,-2.282510,5.656461,-0.191738,-1.621503,-1.597480,-30.367859,-53.622218,14.077073
04081,,9.737430,-1.967250,6.305233,-0.305093,-1.518402,-1.730583,-29.959781,-54.873852,13.356696
04082,,9.416860,-2.096842,6.656789,-0.395777,-1.359605,-1.825132,-29.424167,-56.081993,12.429799
04083,,8.974981,-2.372284,6.251587,-0.341287,-1.254153,-1.835408,-28.754682,-57.222441,11.392197
04084,,8.874504,-2.425015,5.506631,-0.183618,-1.242402,-1.795790,-27.953782,-58.350212,10.320463
04085,,9.299243,-2.109449,4.907217,-0.066513,-1.273231,-1.732911,-27.091303,-59.457206,9.266726
04086,,9.807818,-1.935368,4.458580,-0.108709,-1.297441,-1.674577,-26.238428,-60.564326,8.209607
04087,,10.313360,-1.993946,4.089957,-0.197612,-1.304366,-1.640857,-25.408320,-61.647791,7.130171
04088,,10.594941,-1.997357,3.952833,-0.321403,-1.275410,-1.617699,-24.576356,-62.714209,5.980818
04089,,10.604759,-2.087902,4.260934,-0.448320,-1.204989,-1.601832,-23.733830,-63.720948,4.747370
04090,,10.223883,-2.268657,4.749419,-0.575356,-1.096811,-1.571604,-22.856410,-64.666925,3.406081
04091,,9.535376,-2.579609,4.926274,-0.649271,-0.994632,-1.513522,-21.969385,-65.525605,2.016060
04092,,9.308392,-3.122540,4.452657,-0.647957,-0.938662,-1.417519,-21.078957,-66.335602,0.633702
04093,,9.385812,-3.520425,3.764835,-0.524920,-0.916727,-1.320957,-20.163036,-67.094926,-0.692765
04094,,9.594786,-3.594712,3.262582,-0.359802,-0.926959,-1.219858,-19.203382,-67.841089,-1.955844
04095,,9.914290,-3.339648,2.997763,-0.235693,-0.939224,-1.128652,-18.238207,-68.559453,-3.142690
04096,,10.060777,-2.881500,2.793933,-0.149464,-0.945175,-1.059464,-17.244469,-69.270553,-4.300995
04097,,10.116763,-2.096221,2.766435,-0.130527,-0.944315,-0.994962,-16.269164,-69.954103,-5.423144
04098,,10.129488,-1.588992,2.711663,-0.223669,-0.957675,-0.935977,-15.368116,-70.638637,-6.518156
04099,,10.127043,-1.210237,2.880447,-0.360031,-0.934938,-0.879542,-14.562993,-71.287373,-7.589951
04100,,10.056835,-0.901015,3.166345,-0.547516,-0.901872,-0.822778,-13.878234,-71.914617,-8.644086
04101,,9.907438,-1.017472,3.337250,-0.720104,-0.829708,-0.785252,-13.274623,-72.483405,-9.713256
04102,,9.796328,-1.359441,3.243881,-0.810754,-0.760226,-0.744593,-12.708255,-73.013928,-10.794550
04103,,9.672072,-1.655031,2.956698,-0.791426,-0.711225,-0.708468,-12.133353,-73.500258,-11.870300
04104,,9.721030,-1.763119,2.685873,-0.709230,-0.689007,-0.677988,-11.506229,-73.975916,-12.948758
04105,,9.704777,-1.755800,2.567401,-0.610208,-0.674281,-0.654950,-10.816656,-74.428624,-14.030613
04106,,9.713021,-1.653198,2.475948,-0.507262,-0.676507,-0.636307,-10.050657,-74.885255,-15.128340
04107,,9.740366,-1.453798,2.310949,-0.419290,-0.677137,-0.605096,-9.247691,-75.326869,-16.209671
04108,,9.706190,-1.219167,2.193198,-0.370352,-0.682894,-0.584098,-8.405215,-75.774094,-17.300934
04109,,9.773160,-0.930888,2.049212,-0.379982,-0.691246,-0.549859,-7.590207,-76.211126,-18.367167
04110,,9.794785,-0.690515,2.043948,-0.445448,-0.680787,-0.517348,-6.826254,-76.644526,-19.417807
04111,,9.783293,-0.497384,1.970797,-0.517786,-0.660694,-0.484798,-6.120920,-77.052952,-20.448660
04112,,9.761364,-0.306572,1.878559,-0.585165,-0.633481,-0.454109,-5.469694,-77.449572,-21.462274
04113,,9.706275,-0.217783,1.896443,-0.664667,-0.598022,-0.416206,-4.904936,-77.813323,-22.432193
04114,,9.783897,-0.330383,1.932281,-0.741150,-0.563123,-0.378455,-4.431458,-78.161804,-23.352570
04115,,10.008547,-0.606075,2.213370,-0.785633,-0.521385,-0.347174,-4.024389,-78.475327,-24.229772
04116,,10.237437,-1.101348,2.285776,-0.804977,-0.482455,-0.295278,-3.733203,-78.771630,-24.999393
04117,,10.189761,-1.306805,2.278040,-0.786697,-0.462350,-0.269367,-3.478570,-79.046652,-25.720069
04118,,10.259832,-1.407290,2.265105,-0.746662,-0.461538,-0.262284,-3.197383,-79.328086,-26.444077
04119,,10.332756,-1.594061,2.081933,-0.655242,-0.445889,-0.243826,-2.890980,-79.591550,-27.139486
04120,,10.201504,-1.725272,1.904758,-0.501307,-0.435022,-0.206371,-2.592330,-79.854520,-27.737203
04121,,10.148621,-1.682406,1.883126,-0.323701,-0.422231,-0.169000,-2.283238,-80.101265,-28.241308
04122,,9.975432,-1.485504,1.987945,-0.188394,-0.406362,-0.134688,-1.999281,-80.344962,-28.641370
04123,,9.889469,-1.344738,2.003369,-0.099061,-0.378578,-0.092650,-1.777275,-80.564423,-28.925935
04124,,9.874315,-1.220873,2.072483,-0.041952,-0.345182,-0.058197,-1.644607,-80.770901,-29.087202
04125,,9.909831,-1.150914,2.091443,-0.000206,-0.300830,-0.034230,-1.546642,-80.944665,-29.188440
04126,,9.967133,-1.199917,2.009140,0.056543,-0.257173,-0.013358,-1.505484,-81.099494,-29.199818
04127,,9.952993,-1.170874,1.998143,0.147698,-0.219954,0.001733,-1.441756,-81.226379,-29.180570
04128,,10.024004,-1.058954,2.047596,0.268027,-0.190784,0.016631,-1.387716,-81.342304,-29.082436
04129,,9.971819,-0.920164,1.995035,0.377105,-0.159301,0.029117,-1.289338,-81.434094,-28.965314
04130,,9.967687,-0.550351,2.063410,0.443503,-0.112003,0.057226,-1.287401,-81.503904,-28.712917
04131,,9.940273,-0.158766,2.200337,0.429838,-0.042394,0.083867,-1.360339,-81.528016,-28.392080
04132,,10.003497,0.169517,2.322325,0.305397,0.040037,0.091325,-1.557597,-81.509539,-28.018325
04133,,10.018748,0.307910,2.394340,0.137061,0.134247,0.078392,-1.757138,-81.432306,-27.739066
04134,,9.967619,0.060537,2.055214,0.001217,0.208189,0.054644,-1.960664,-81.317126,-27.535076
04135,,9.907822,-0.288254,1.792108,-0.033548,0.242971,0.025793,-2.038106,-81.178448,-27.478097
04136,,9.847648,-0.592192,1.642961,0.010748,0.257988,0.008289,-2.051186,-81.035247,-27.461207
04137,,9.761674,-0.671327,1.558568,0.082524,0.241580,-0.009830,-1.932370,-80.898080,-27.535574
04138,,9.663902,-0.547251,1.448996,0.148028,0.217304,-0.017614,-1.783798,-80.778554,-27.602798
04139,,9.533519,-0.365699,1.303803,0.164352,0.193322,-0.029682,-1.560112,-80.669299,-27.735976
04140,,9.419536,-0.235083,1.142777,0.150157,0.162944,-0.028250,-1.385915,-80.581046,-27.828024
04141,,9.323641,0.014953,0.985326,0.091215,0.132290,-0.024373,-1.233932,-80.506552,-27.931069
04142,,9.399377,0.110758,0.897896,-0.007511,0.108517,-0.010975,-1.216689,-80.449476,-27.955639
04143,,9.463175,0.048720,0.954099,-0.116309,0.095932,0.011032,-1.308244,-80.395353,-27.932331
04144,,9.443602,-0.150594,0.973209,-0.204708,0.083506,0.033743,-1.555369,-80.352386,-27.803387
04145,,9.479946,-0.315435,1.051589,-0.254447,0.062212,0.057940,-1.884505,-80.316744,-27.619364
04146,,9.576936,-0.443175,1.134591,-0.273135,0.038843,0.082281,-2.335488,-80.298438,-27.323402
04147,,9.563075,-0.485025,1.242641,-0.248921,0.010008,0.096540,-2.794668,-80.291241,-27.004221
04148,,9.726639,-0.380850,1.350653,-0.220195,-0.015522,0.100703,-3.285566,-80.302922,-26.637038
04149,,9.727531,-0.201256,1.425850,-0.198086,-0.021476,0.096176,-3.720605,-80.312869,-26.312819
04150,,9.670946,-0.132723,1.456042,-0.191258,-0.027641,0.085207,-4.148027,-80.331244,-25.993268
04151,,9.688917,-0.149838,1.498046,-0.187006,-0.031032,0.084225,-4.540966,-80.346374,-25.705353
04152,,9.778284,-0.181518,1.589666,-0.190336,-0.019669,0.079254,-4.947768,-80.359774,-25.406222
04153,,9.855324,-0.265119,1.733113,-0.204184,0.003428,0.072284,-5.301858,-80.355196,-25.167719
04154,,9.887759,-0.333077,1.765558,-0.205915,0.020581,0.073591,-5.686263,-80.345236,-24.900367
04155,,10.003257,-0.363925,1.799094,-0.207417,0.047667,0.064521,-6.000117,-80.315401,-24.704548
04156,,10.060520,-0.378936,1.754432,-0.202700,0.074975,0.071455,-6.353757,-80.273927,-24.466511
04157,,10.029904,-0.340114,1.807614,-0.191659,0.098625,0.080109,-6.687150,-80.213689,-24.241663
04158,,9.995123,-0.326023,1.860949,-0.187684,0.119827,0.085322,-7.054296,-80.145160,-23.981123
04159,,10.008706,-0.261742,1.825628,-0.204072,0.133400,0.084628,-7.387807,-80.064375,-23.763288
04160,,9.974919,-0.382539,1.728387,-0.228152,0.152248,0.082619,-7.746272,-79.976970,-23.534995
04161,,9.889946,-0.565221,1.588488,-0.220872,0.157679,0.086290,-8.074690,-79.881836,-23.331999
04162,,9.773601,-0.626177,1.532409,-0.187793,0.157316,0.080038,-8.390054,-79.791311,-23.123909
04163,,9.671966,-0.622276,1.559959,-0.159168,0.154005,0.076010,-8.643453,-79.698766,-22.961112
04164,,9.600578,-0.572196,1.582835,-0.132369,0.142939,0.073380,-8.905821,-79.616667,-22.774549
04165,,9.489844,-0.511161,1.568566,-0.121656,0.133199,0.067614,-9.115115,-79.536409,-22.634665
04166,,9.466728,-0.535546,1.532301,-0.115563,0.122173,0.062619,-9.339521,-79.466809,-22.476865
04167,,9.461518,-0.618740,1.557446,-0.098032,0.111745,0.060215,-9.518649,-79.399193,-22.353840
04168,,9.503494,-0.663580,1.623212,-0.064260,0.100519,0.053192,-9.692513,-79.342588,-22.217532
04169,,9.472651,-0.681202,1.561097,-0.047718,0.083162,0.039575,-9.792474,-79.292997,-22.145696
04170,,9.450064,-0.648866,1.502584,-0.020335,0.060876,0.018940,-9.858018,-79.262045,-22.094017
04171,,9.537629,-0.642243,1.528707,0.003311,0.039484,0.011528,-9.866982,-79.239839,-22.085036
04172,,9.585582,-0.770828,1.491740,0.012460,0.021905,0.008610,-9.903661,-79.231967,-22.043643
04173,,9.619555,-0.900648,1.484388,0.037149,-0.002191,0.016412,-9.929284,-79.232804,-21.997977
04174,,9.634519,-0.952448,1.468763,0.064238,-0.037392,0.024557,-10.016034,-79.256885,-21.875473
04175,,9.705479,-0.772658,1.521961,0.089143,-0.070603,0.028576,-10.084476,-79.295088,-21.755922
04176,,9.755002,-0.641687,1.598532,0.083844,-0.088605,0.023627,-10.187338,-79.348159,-21.605668
04177,,9.766118,-0.551885,1.654737,0.055113,-0.091082,0.020962,-10.265288,-79.398621,-21.496327
04178,,9.701844,-0.502356,1.731982,0.027975,-0.091076,0.025980,-10.411649,-79.452765,-21.334449
04179,,9.674338,-0.455046,1.769289,-0.010798,-0.080332,0.022989,-10.529766,-79.496877,-21.222710
04180,,9.656371,-0.515727,1.865045,-0.046615,-0.065524,0.025980,-10.707126,-79.536426,-21.072813
04181,,9.612137,-0.513888,1.877331,-0.068300,-0.043773,0.026838,-10.850832,-79.559444,-20.968590
04182,,9.524165,-0.525637,1.852384,-0.079277,-0.031740,0.021921,-11.016458,-79.580131,-20.849669
04183,,9.497498,-0.498405,1.838303,-0.086131,-0.024600,0.015902,-11.126534,-79.593480,-20.790049
04184,,9.495471,-0.544051,1.776597,-0.087961,-0.014754,0.010699,-11.253243,-79.605626,-20.715759
