// Start Time: Unknown
// Update Rate: 100.0Hz
// Filter Profile: human (46.1)
// Firmware Version: 4.3.5
PacketCounter,SampleTimeFine,Acc_X,Acc_Y,Acc_Z,Gyr_X,Gyr_Y,Gyr_Z,Roll,Pitch,Yaw
10166,,9.506495,-1.174532,2.648116,0.014069,0.007917,-0.014867,-22.614692,-73.076161,-3.699781
10167,,9.491768,-1.154081,2.654671,0.014070,0.007918,-0.014867,-22.575056,-73.075245,-3.732784
10168,,9.460886,-1.141359,2.644655,0.011721,0.010627,-0.013809,-22.551655,-73.072657,-3.744494
10169,,9.473135,-1.099783,2.651208,0.007316,0.011507,-0.012743,-22.517007,-73.069365,-3.776330
10170,,9.489132,-1.090912,2.668761,-0.004871,0.006596,-0.012314,-22.495839,-73.068642,-3.801385
10171,,9.498631,-1.102341,2.630332,-0.013988,0.012347,-0.016610,-22.466085,-73.065744,-3.840865
10172,,9.478862,-1.187481,2.654058,-0.016628,0.011264,-0.015402,-22.448432,-73.063391,-3.866860
10173,,9.506812,-1.249815,2.621388,-0.007375,0.011034,-0.018208,-22.413073,-73.061528,-3.908240
10174,,9.520530,-1.181732,2.649973,0.007613,0.006710,-0.017525,-22.383212,-73.061924,-3.933717
10175,,9.504450,-1.187553,2.634082,0.012462,0.007628,-0.015527,-22.343599,-73.061267,-3.967663
10176,,9.502063,-1.127128,2.645910,0.016435,0.005499,-0.012179,-22.323169,-73.061127,-3.977971
10177,,9.518125,-1.117907,2.663331,0.007619,0.006982,-0.013787,-22.289823,-73.060424,-4.008266
10178,,9.482177,-1.099670,2.619300,-0.004275,0.006124,-0.009776,-22.277565,-73.059690,-4.026322
10179,,9.487242,-1.105321,2.653205,-0.019839,0.003130,-0.006423,-22.275520,-73.059425,-4.040341
10180,,9.474878,-1.145238,2.647989,-0.020577,0.005873,-0.008438,-22.287193,-73.058576,-4.038084
10181,,9.484458,-1.157562,2.609059,-0.017783,0.004962,-0.006431,-22.282653,-73.057342,-4.053480
10182,,9.457377,-1.178501,2.609580,-0.009119,0.005211,-0.011773,-22.275887,-73.059397,-4.068144
10183,,9.473527,-1.169808,2.626463,-0.002797,0.000107,-0.013221,-22.254395,-73.062213,-4.092286
10184,,9.502084,-1.120548,2.648627,0.002048,0.000489,-0.018697,-22.233784,-73.066257,-4.117129
10185,,9.486245,-1.126421,2.631860,0.004992,-0.002690,-0.017215,-22.202837,-73.071410,-4.146491
10186,,9.486607,-1.124620,2.631325,0.001626,-0.009361,-0.018923,-22.204890,-73.079663,-4.141290
10187,,9.528834,-1.119834,2.624731,-0.000728,-0.006924,-0.021603,-22.172561,-73.088009,-4.175513
10188,,9.510752,-1.066971,2.618198,-0.008062,-0.010930,-0.019182,-22.167930,-73.101231,-4.189910
10189,,9.515064,-1.097743,2.628264,-0.012905,-0.011847,-0.021180,-22.146744,-73.112101,-4.219780
10190,,9.508413,-1.142279,2.655330,-0.012618,-0.008054,-0.021329,-22.134053,-73.121635,-4.247614
10191,,9.523626,-1.159365,2.648730,-0.009234,-0.009440,-0.016784,-22.116663,-73.130282,-4.271328
10192,,9.529263,-1.163936,2.681160,-0.004084,-0.013318,-0.019574,-22.128930,-73.146255,-4.258710
10193,,9.520773,-1.123679,2.635402,-0.004103,-0.004992,-0.018673,-22.102131,-73.152946,-4.289159
10194,,9.506318,-1.103691,2.640500,-0.005128,-0.005509,-0.013062,-22.115145,-73.161277,-4.280381
10195,,9.481020,-1.097581,2.662133,-0.015097,-0.011405,-0.020646,-22.095734,-73.171799,-4.309685
10196,,9.490481,-1.134782,2.705829,-0.015248,-0.008872,-0.016382,-22.115814,-73.180774,-4.297837
10197,,9.512771,-1.105842,2.671036,-0.024061,-0.007660,-0.021723,-22.096975,-73.189513,-4.331893
10198,,9.504881,-1.176740,2.675857,-0.023622,-0.006396,-0.026134,-22.090046,-73.199924,-4.358315
10199,,9.478368,-1.196391,2.675207,-0.018187,-0.006213,-0.025337,-22.060371,-73.208676,-4.400181
10200,,9.520651,-1.191481,2.668390,-0.013033,-0.009823,-0.024392,-22.047912,-73.221776,-4.431047
10201,,9.495402,-1.184738,2.690236,-0.002044,-0.003404,-0.022419,-22.011960,-73.228420,-4.469843
10202,,9.523993,-1.134987,2.712007,-0.006884,-0.004061,-0.020677,-22.016620,-73.232613,-4.473757
10203,,9.549974,-1.138168,2.689103,-0.009243,-0.001100,-0.015879,-21.994648,-73.236571,-4.502262
10204,,9.497440,-1.153970,2.711841,-0.019391,0.004117,-0.014553,-22.015865,-73.236792,-4.493539
10205,,9.481458,-1.160888,2.695197,-0.025253,0.002412,-0.014677,-22.002719,-73.238598,-4.522390
10206,,9.538085,-1.175710,2.683777,-0.023360,0.006512,-0.014157,-22.016439,-73.232737,-4.529788
10207,,9.536843,-1.201179,2.661720,-0.021154,0.006082,-0.014691,-21.998267,-73.232564,-4.561455
10208,,9.505364,-1.215757,2.735226,-0.014267,0.008836,-0.012700,-22.017197,-73.228465,-4.553184
10209,,9.480122,-1.183882,2.674555,-0.006200,0.010112,-0.013109,-21.990447,-73.225852,-4.584836
10210,,9.439457,-1.159575,2.703739,-0.000771,0.010294,-0.012312,-21.999281,-73.220210,-4.582751
10211,,9.422012,-1.192412,2.665716,0.000686,0.012867,-0.011118,-21.970139,-73.215720,-4.612788
10212,,9.475715,-1.147879,2.666633,0.006710,0.012053,-0.015258,-21.965773,-73.202717,-4.624701
10213,,9.564311,-1.146569,2.689440,-0.001045,0.006504,-0.012168,-21.940242,-73.201788,-4.652045
10214,,9.591141,-1.123931,2.690104,-0.005175,0.011160,-0.011245,-21.951882,-73.189715,-4.653242
10215,,9.571932,-1.209553,2.713528,-0.007812,0.010065,-0.010039,-21.931412,-73.186410,-4.679378
10216,,9.566683,-1.202529,2.680707,-0.005450,0.007369,-0.011100,-21.957795,-73.184667,-4.653680
10217,,9.551653,-1.183003,2.687507,0.007572,0.015628,-0.009123,-21.926359,-73.178271,-4.681993
10218,,9.494781,-1.166689,2.700297,0.003632,0.009952,-0.005902,-21.947132,-73.169205,-4.666060
10219,,9.474513,-1.141501,2.673630,0.007127,0.014617,-0.000975,-21.931002,-73.161627,-4.678651
10220,,9.417463,-1.125763,2.686761,0.007405,0.018411,-0.001119,-21.965129,-73.150431,-4.633782
10221,,9.417005,-1.125531,2.688465,0.001544,0.016701,-0.001248,-21.950468,-73.141830,-4.648090
10222,,9.478272,-1.147071,2.712264,-0.002428,0.019091,-0.000855,-21.978875,-73.126233,-4.623932
10223,,9.477865,-1.146814,2.713796,-0.003718,0.013994,-0.006315,-21.960333,-73.120163,-4.645425
10224,,9.466598,-1.159910,2.732226,0.006247,0.019120,-0.009931,-21.970549,-73.108719,-4.629898
10225,,9.547454,-1.204843,2.677845,0.010508,0.020269,-0.014205,-21.925811,-73.101037,-4.670187
10226,,9.556865,-1.215413,2.640690,0.020346,0.019595,-0.014465,-21.917682,-73.085685,-4.670048
10227,,9.538866,-1.136187,2.659606,0.029751,0.017395,-0.014052,-21.864322,-73.079458,-4.707816
10228,,9.534551,-1.101991,2.650457,0.024743,0.019256,-0.008052,-21.867583,-73.065044,-4.691096
10229,,9.533007,-1.127025,2.630111,0.016083,0.018711,-0.006455,-21.834576,-73.056480,-4.715730
10230,,9.527535,-1.120028,2.598346,0.010804,0.016517,-0.004050,-21.858266,-73.047422,-4.678635
10231,,9.521308,-1.139426,2.650412,0.010369,0.014990,-0.003377,-21.836794,-73.040216,-4.694520
10232,,9.519884,-1.165125,2.629428,0.011704,0.011504,-0.002563,-21.856412,-73.032770,-4.669976
10233,,9.473831,-1.134976,2.625445,0.021677,0.016638,-0.006174,-21.822502,-73.025323,-4.692072
10234,,9.461473,-1.173798,2.621720,0.020079,0.016071,-0.010580,-21.824600,-73.026759,-4.671620
10235,,9.446328,-1.153647,2.628997,0.034480,0.012538,-0.008678,-21.782143,-73.022189,-4.694860
10236,,9.504944,-1.114604,2.664006,0.027297,0.014048,-0.013367,-21.772543,-73.019828,-4.690342
10237,,9.484769,-1.088109,2.637664,0.024499,0.015219,-0.011639,-21.728877,-73.014544,-4.720795
10238,,9.522317,-1.051174,2.622277,0.010984,0.013998,-0.008317,-21.725837,-73.006315,-4.730372
10239,,9.496217,-1.045662,2.646054,-0.003114,0.013253,-0.007536,-21.706365,-73.001228,-4.752146
10240,,9.552593,-1.060634,2.636058,-0.011940,0.014968,-0.005422,-21.721648,-72.998516,-4.750391
10241,,9.540203,-1.100987,2.631931,-0.027384,0.017971,-0.001722,-21.722921,-72.989791,-4.765023
10242,,9.485945,-1.144728,2.633645,-0.024301,0.020603,-0.003596,-21.760270,-72.984864,-4.733101
10243,,9.485462,-1.145037,2.635251,-0.014314,0.017931,-0.000629,-21.756224,-72.976008,-4.745355
10244,,9.468053,-1.179003,2.597679,0.001568,0.016459,-0.004997,-21.775558,-72.970849,-4.721892
10245,,9.499618,-1.162818,2.632677,0.012743,0.012307,-0.004424,-21.753483,-72.965828,-4.736719
10246,,9.460652,-1.086274,2.600138,0.015125,0.009351,-0.009214,-21.754171,-72.967825,-4.730416
10247,,9.465571,-1.090982,2.634594,0.011045,0.005412,-0.012946,-21.723070,-72.968366,-4.755690
10248,,9.477506,-1.049442,2.640795,-0.000567,0.008033,-0.012849,-21.727830,-72.975168,-4.752241
10249,,9.491424,-1.093088,2.613246,-0.013156,0.001269,-0.015522,-21.709051,-72.978582,-4.779093
10250,,9.537266,-1.121271,2.619034,-0.018901,0.005614,-0.015285,-21.717646,-72.983104,-4.787329
10251,,9.525369,-1.160773,2.613594,-0.021838,0.000975,-0.010201,-21.713302,-72.985604,-4.804281
10252,,9.545357,-1.184759,2.641621,-0.012733,0.003062,-0.012457,-21.725874,-72.993415,-4.801847
10253,,9.513604,-1.199261,2.608162,-0.003905,0.001352,-0.014566,-21.703395,-72.996723,-4.827013
10254,,9.541592,-1.149835,2.630694,0.007984,0.002532,-0.014809,-21.708232,-73.002319,-4.818700
10255,,9.515847,-1.143700,2.653341,0.003731,0.001119,-0.014280,-21.682110,-73.005716,-4.843061
10256,,9.522867,-1.096181,2.625489,-0.001875,0.003451,-0.010831,-21.700769,-73.016616,-4.823928
10257,,9.482100,-1.072198,2.653725,-0.011120,0.003372,-0.011787,-21.686095,-73.018413,-4.845136
10258,,9.481176,-1.097875,2.631386,-0.021833,0.000972,-0.010202,-21.712651,-73.025184,-4.833194
10259,,9.491170,-1.109969,2.592142,-0.028014,0.003785,-0.009291,-21.711765,-73.026279,-4.850083
10260,,9.520166,-1.172807,2.664878,-0.026659,0.000043,-0.012213,-21.721519,-73.037995,-4.865718
10261,,9.515263,-1.166230,2.631158,-0.018171,0.003130,-0.009532,-21.714858,-73.039600,-4.882815
10262,,9.504356,-1.179697,2.648095,-0.012744,0.003325,-0.008718,-21.740184,-73.043167,-4.865691
10263,,9.478491,-1.174790,2.670638,-0.005567,0.001818,-0.004024,-21.736907,-73.044315,-4.871667
10264,,9.512214,-1.106413,2.642843,-0.006304,0.004569,-0.006036,-21.751827,-73.049263,-4.865678
10265,,9.485319,-1.128075,2.643068,-0.013218,0.002305,-0.000573,-21.758556,-73.049476,-4.865804
10266,,9.542023,-1.143404,2.631932,-0.019796,0.003077,-0.006465,-21.782604,-73.057738,-4.858129
10267,,9.543035,-1.117205,2.654142,-0.026527,-0.001708,-0.005267,-21.791548,-73.061178,-4.863917
10268,,9.504407,-1.179168,2.648150,-0.026666,0.000308,-0.008477,-21.822887,-73.077596,-4.847517
10269,,9.524505,-1.203469,2.675715,-0.017680,-0.003665,-0.011115,-21.817983,-73.083496,-4.862446
10270,,9.513851,-1.216679,2.691892,-0.006074,-0.006281,-0.011214,-21.845611,-73.105667,-4.834070
10271,,9.530085,-1.208053,2.707942,0.000088,-0.008839,-0.008390,-21.839098,-73.113933,-4.839957
10272,,9.515446,-1.188571,2.712900,0.010795,-0.006435,-0.009972,-21.859295,-73.132810,-4.811862
10273,,9.509826,-1.207222,2.762909,0.023273,-0.005987,-0.011413,-21.832353,-73.140368,-4.825138
10274,,9.521951,-1.165597,2.768249,0.025441,-0.005905,-0.004466,-21.836879,-73.147348,-4.813235
10275,,9.527169,-1.170625,2.801586,0.025443,-0.005904,-0.004465,-21.820736,-73.153406,-4.813964
10276,,9.545515,-1.247148,2.890648,0.013248,-0.010380,0.003396,-21.863024,-73.167874,-4.761835
10277,,9.499447,-1.381855,2.995835,0.030437,-0.022632,0.013882,-21.888231,-73.179032,-4.716320
10278,,9.367189,-1.464098,3.229056,0.066920,-0.038223,0.017077,-21.948481,-73.198159,-4.612914
10279,,9.161371,-1.589570,3.623945,0.124182,-0.062374,0.020742,-21.960608,-73.228995,-4.524899
10280,,9.000121,-1.793938,3.766627,0.205185,-0.082319,0.016958,-21.977950,-73.271131,-4.381050
10281,,8.776937,-2.184896,4.275760,0.359710,-0.114034,0.002522,-21.860317,-73.333436,-4.287564
10282,,8.767557,-2.629489,4.835493,0.621817,-0.130305,-0.020713,-21.598719,-73.403848,-4.191133
10283,,9.013220,-2.679188,5.377343,0.905410,-0.111666,-0.041742,-21.086089,-73.474517,-4.183571
10284,,9.111145,-2.326633,5.992761,1.149136,-0.063363,-0.058852,-20.395288,-73.497460,-4.229714
10285,,9.340121,-1.997500,6.724307,1.281419,0.019346,-0.081914,-19.501801,-73.505494,-4.394732
10286,,9.740188,-1.736312,7.261789,1.326249,0.137025,-0.106899,-18.534238,-73.423690,-4.596653
10287,,9.935490,-1.485877,7.534591,1.299433,0.270090,-0.115594,-17.421638,-73.299587,-4.979506
10288,,10.177628,-1.201751,7.739787,1.195243,0.398091,-0.108298,-16.359120,-73.056729,-5.364891
10289,,10.307821,-1.139848,7.843274,1.036320,0.533944,-0.091082,-15.332435,-72.779557,-5.816368
10290,,10.504536,-1.368621,7.751987,0.877274,0.656571,-0.066378,-14.440198,-72.381045,-6.201873
10291,,10.666609,-1.606208,7.701335,0.761335,0.789838,-0.033612,-13.607201,-71.949907,-6.617048
10292,,10.667429,-1.723856,7.662415,0.706898,0.917798,0.004334,-12.871422,-71.384792,-6.937453
10293,,10.717032,-1.893712,7.612275,0.699025,1.031111,0.035640,-12.157193,-70.807293,-7.267192
10294,,10.789784,-1.959649,7.667837,0.748798,1.133660,0.060530,-11.487561,-70.129208,-7.469304
10295,,10.858551,-1.893517,7.727564,0.803808,1.244276,0.083058,-10.781717,-69.424922,-7.728458
10296,,10.908281,-1.676691,7.790918,0.840200,1.356629,0.101581,-10.111655,-68.585649,-7.878114
10297,,11.028835,-1.337505,7.899305,0.820781,1.471078,0.111569,-9.442584,-67.749081,-8.089753
10298,,11.089552,-0.944879,7.919579,0.715019,1.591456,0.113468,-8.858429,-66.728721,-8.245021
10299,,11.085580,-0.797649,7.933081,0.545205,1.725268,0.120976,-8.366186,-65.745925,-8.438975
10300,,11.044508,-0.878811,8.010789,0.346820,1.849326,0.132613,-8.017997,-64.570837,-8.552373
10301,,11.022411,-1.234631,8.135402,0.182721,1.962593,0.153963,-7.775913,-63.449840,-8.702602
10302,,10.959635,-1.714827,8.498488,0.106841,2.085635,0.185417,-7.617198,-62.133901,-8.808743
10303,,10.940320,-2.058645,8.810130,0.099813,2.198987,0.223611,-7.488870,-60.872998,-8.887010
10304,,11.030092,-2.219863,8.974674,0.130988,2.311789,0.261279,-7.387217,-59.420507,-8.916676
10305,,11.171291,-2.311245,9.045121,0.149208,2.406875,0.290899,-7.283699,-58.036393,-8.935012
10306,,11.244658,-2.429167,9.061963,0.177127,2.498962,0.328800,-7.210706,-56.471990,-8.903951
10307,,11.284460,-2.528535,9.199793,0.228830,2.584861,0.350108,-7.100411,-54.982422,-8.875908
10308,,11.378855,-2.436495,9.278864,0.277211,2.668711,0.376487,-7.001725,-53.320095,-8.809416
10309,,11.450282,-2.407870,9.270751,0.311207,2.748954,0.398077,-6.869898,-51.733929,-8.747874
10310,,11.421475,-2.404757,9.224951,0.349008,2.825742,0.415307,-6.751147,-49.984161,-8.655998
10311,,11.331145,-2.484019,9.178277,0.383427,2.885823,0.428311,-6.590259,-48.318263,-8.575142
10312,,11.377492,-2.452927,9.087714,0.428012,2.937635,0.439293,-6.438734,-46.510461,-8.466652
10313,,11.396731,-2.157217,8.974573,0.426052,2.979558,0.445249,-6.259721,-44.790416,-8.372311
10314,,11.384262,-1.821785,8.835105,0.338489,3.016003,0.449408,-6.163109,-42.947382,-8.256985
10315,,11.254561,-1.470862,8.702279,0.157340,3.025547,0.435229,-6.127971,-41.201979,-8.171376
10316,,11.161638,-1.399856,8.753984,-0.090082,3.017611,0.431016,-6.259455,-39.371450,-8.077366
10317,,10.986199,-1.479303,9.035779,-0.326853,3.022406,0.434009,-6.489014,-37.627658,-8.005688
10318,,10.653206,-1.623165,9.200913,-0.561073,3.037228,0.455237,-6.880749,-35.797125,-7.921501
10319,,10.439451,-1.845116,9.242894,-0.781532,3.054982,0.492970,-7.371192,-34.030025,-7.842931
10320,,10.226232,-2.191295,9.080153,-0.946713,3.083107,0.557205,-7.993191,-32.177784,-7.735918
10321,,9.936284,-2.707274,8.696736,-1.020242,3.124879,0.632929,-8.636973,-30.358493,-7.617393
10322,,9.512599,-3.115491,8.107642,-1.013827,3.131800,0.729746,-9.321176,-28.475421,-7.455619
10323,,9.263692,-3.415820,7.337095,-0.940072,3.119721,0.824624,-9.945291,-26.638803,-7.265874
10324,,9.001062,-3.493756,6.873783,-0.814720,3.095777,0.924155,-10.542833,-24.768091,-7.030455
10325,,8.619758,-3.402165,6.478245,-0.677785,3.076523,1.025408,-11.038841,-22.931210,-6.758503
10326,,8.259135,-3.170020,6.125367,-0.568333,3.039150,1.119569,-11.516446,-21.081839,-6.442445
10327,,7.958809,-2.808020,5.898228,-0.500972,3.005192,1.204928,-11.921665,-19.260288,-6.093049
10328,,7.638099,-2.526694,5.641138,-0.478971,2.971588,1.298258,-12.355929,-17.437355,-5.702021
10329,,7.235501,-2.298254,5.333691,-0.485544,2.930663,1.382507,-12.753539,-15.630775,-5.274366
10330,,6.835436,-1.972882,4.918476,-0.501441,2.876125,1.451349,-13.194609,-13.849598,-4.819746
10331,,6.340604,-1.605255,4.535113,-0.563164,2.803313,1.505859,-13.622947,-12.091697,-4.338792
10332,,5.729458,-1.304393,4.239958,-0.647051,2.699837,1.541999,-14.127758,-10.401354,-3.845690
10333,,5.034515,-1.043021,4.046958,-0.731658,2.589188,1.560856,-14.629009,-8.746796,-3.338755
10334,,4.348468,-1.050925,3.710778,-0.794634,2.457318,1.551216,-15.189439,-7.190252,-2.842343
10335,,3.700195,-1.368218,3.698807,-0.769454,2.305809,1.519668,-15.683307,-5.689544,-2.349507
10336,,3.310032,-1.650449,3.780248,-0.668584,2.141433,1.476589,-16.142625,-4.316650,-1.876996
10337,,3.114104,-1.754564,3.987326,-0.521946,1.990480,1.434493,-16.469482,-2.995796,-1.405237
10338,,2.924843,-1.539001,4.238077,-0.378546,1.868400,1.381156,-16.739695,-1.787241,-0.960334
10339,,2.406760,-1.252891,4.455416,-0.317524,1.758996,1.328149,-16.928508,-0.606709,-0.521524
10340,,1.960805,-0.838235,4.391954,-0.314609,1.640038,1.246014,-17.142647,0.454069,-0.122998
10341,,1.519965,-0.777086,4.388616,-0.327947,1.494710,1.177286,-17.321685,1.467371,0.269877
10342,,1.217651,-0.845860,4.540880,-0.313472,1.333448,1.108719,-17.519677,2.338186,0.638599
10343,,1.216690,-0.987570,4.939485,-0.243253,1.192772,1.020447,-17.639812,3.161778,0.992273
10344,,1.132012,-1.221129,5.293126,-0.126995,1.069620,0.924093,-17.721632,3.857466,1.302549
10345,,0.984691,-1.427574,5.483973,0.017514,0.969009,0.840961,-17.687888,4.528403,1.595839
10346,,0.731828,-1.433518,5.622570,0.126793,0.868942,0.766365,-17.619472,5.086229,1.855823
10347,,0.409862,-1.267564,5.699570,0.203941,0.772458,0.689079,-17.477371,5.622736,2.102229
10348,,0.102969,-1.101928,5.750036,0.245151,0.673364,0.624956,-17.338607,6.048229,2.321693
10349,,-0.242182,-1.094541,5.981292,0.261124,0.575736,0.566648,-17.163240,6.454993,2.537533
10350,,-0.591339,-1.407910,6.308284,0.329240,0.475496,0.503547,-16.974327,6.751376,2.727492
10351,,-0.589634,-1.611931,6.804597,0.483167,0.383033,0.437120,-16.673677,7.029349,2.907301
10352,,-0.474525,-1.481756,7.132503,0.643635,0.327756,0.369751,-16.306730,7.222451,3.051721
10353,,-0.395314,-1.013965,7.283063,0.720191,0.274619,0.302978,-15.875742,7.417116,3.178181
10354,,-0.547258,-0.405785,7.338880,0.659785,0.233572,0.244140,-15.502794,7.537625,3.271923
10355,,-0.766012,0.080416,7.549510,0.450227,0.175839,0.176505,-15.232864,7.656898,3.345580
10356,,-0.825489,0.537356,7.760728,0.087739,0.117610,0.114457,-15.189913,7.694185,3.387967
10357,,-0.840650,1.301857,8.175581,-0.487621,0.051374,0.082920,-15.461624,7.730439,3.428572
10358,,-0.942645,3.287001,9.117479,-1.484275,-0.023558,0.108012,-16.310347,7.690853,3.491755
10359,,-0.500440,5.690861,10.187313,-3.067950,-0.069216,0.151805,-18.052822,7.674027,3.589792
10360,,0.236225,8.335178,11.088589,-5.273216,0.062941,0.259233,-21.049577,7.715237,3.724898
10361,,0.802743,10.758579,10.896570,-8.092720,0.329612,0.385910,-25.666113,7.971841,3.857043
10362,,1.016983,12.356496,8.596828,-11.258413,0.704352,0.500857,-32.076707,8.420352,3.932131
10363,,1.105413,12.385947,4.128025,-14.334802,1.105597,0.545514,-40.306001,9.111904,3.812753
10364,,1.082122,8.862770,-2.558774,-16.692181,1.455044,0.505485,-49.877298,9.862716,3.453480
10365,,-0.078119,0.958580,-8.833519,-17.749750,1.529398,0.504844,-60.143775,10.598923,2.898008
10366,,-1.397849,-9.011202,-12.227370,-17.273013,1.436637,0.549928,-70.104709,11.193596,2.304824
10367,,-2.909555,-17.411715,-12.743371,-15.300486,1.246772,0.622585,-78.988254,11.726614,1.705131
10368,,-3.537617,-21.773120,-11.392020,-12.550573,0.997020,0.686298,-86.264708,12.157361,1.194506
10369,,-3.930159,-22.092247,-9.145542,-9.651562,0.756165,0.677837,-91.884754,12.553196,0.762912
10370,,-4.000726,-20.653423,-6.968634,-6.989899,0.502068,0.589670,-95.957584,12.839343,0.450139
10371,,-3.920502,-19.154714,-4.969238,-4.744382,0.246989,0.481278,-98.712899,13.096147,0.275154
10372,,-3.309679,-17.091639,-3.309055,-2.926033,0.061172,0.380707,-100.410954,13.274849,0.203603
10373,,-2.296116,-14.474945,-1.882250,-1.523601,-0.019307,0.247593,-101.284212,13.417962,0.192411
10374,,-1.852910,-12.300589,-1.054835,-0.526279,-0.033064,0.157959,-101.589811,13.479679,0.194573
10375,,-1.780631,-10.134602,-0.808066,0.045377,-0.018982,0.032068,-101.558673,13.501631,0.206817
10376,,-1.803095,-9.208571,-0.805847,0.270708,-0.018386,-0.069672,-101.400802,13.433701,0.228570
10377,,-1.884287,-9.426802,-1.480895,0.380056,-0.020496,-0.112480,-101.173833,13.374545,0.258476
10378,,-2.078571,-10.093012,-2.210830,0.557573,-0.056266,-0.101141,-100.844458,13.293450,0.306151
10379,,-2.144558,-10.520983,-2.610062,0.837571,-0.098780,-0.070554,-100.346222,13.265805,0.376082
10380,,-2.120808,-10.571581,-2.741861,1.135301,-0.137168,-0.026161,-99.677787,13.234833,0.461783
10381,,-2.125466,-10.557800,-2.628840,1.423970,-0.166377,0.013168,-98.836582,13.259179,0.562381
10382,,-2.097276,-10.665049,-2.536381,1.737055,-0.183040,0.029584,-97.819725,13.261618,0.669351
10383,,-2.269169,-11.095713,-2.565957,2.135500,-0.205554,0.017858,-96.565426,13.287896,0.793346
10384,,-2.351519,-11.615852,-2.606656,2.645130,-0.254290,-0.009948,-95.019467,13.267674,0.945011
10385,,-2.391641,-12.078463,-2.726237,3.319993,-0.316172,-0.055190,-93.070649,13.250007,1.138289
10386,,-2.353503,-12.326634,-2.825449,4.117519,-0.389214,-0.106739,-90.665229,13.167024,1.370230
10387,,-2.481621,-12.577470,-3.185006,5.110167,-0.472655,-0.188779,-87.671115,13.055603,1.652051
10388,,-2.743042,-13.376525,-4.075708,6.383775,-0.607000,-0.302507,-83.947791,12.828190,1.993746
10389,,-3.069578,-14.907440,-4.649275,8.131111,-0.792440,-0.451001,-79.193106,12.506049,2.420618
10390,,-2.791791,-16.003544,-5.669911,10.328433,-0.976444,-0.612234,-73.195899,12.003270,2.885247
10391,,-2.916139,-15.764605,-7.018842,12.957033,-1.154961,-0.843302,-65.675834,11.317736,3.349606
10392,,-2.348148,-13.151944,-7.973425,15.595031,-1.430000,-1.093550,-56.697530,10.346522,3.759882
10393,,-1.806472,-9.481998,-8.759362,18.053025,-1.547247,-1.331353,-46.312848,9.196525,3.986544
10394,,-1.526323,-4.892613,-8.565966,20.017423,-1.692405,-1.506806,-34.902413,7.873970,3.941846
10395,,-0.912781,0.405535,-7.381059,21.162748,-1.699170,-1.583876,-22.815022,6.581406,3.618250
10396,,-0.461566,6.587543,-4.322800,20.975376,-1.583382,-1.523721,-10.919576,5.436824,3.021720
10397,,-0.104028,13.083490,1.031149,19.278576,-1.271789,-1.342817,0.067502,4.634595,2.324412
10398,,-0.493529,17.265930,6.304679,16.157671,-0.943685,-0.997038,9.231289,4.116764,1.693510
10399,,-0.462508,17.617937,9.810481,12.156665,-0.746606,-0.562305,16.170590,3.765035,1.284083
10400,,0.427527,15.926872,11.326859,8.179061,-0.478328,-0.216496,20.821584,3.518089,1.070473
10401,,-0.200709,13.992906,11.154706,4.762621,-0.271943,-0.036509,23.547699,3.376367,0.990874
10402,,-0.447927,12.984608,10.033406,1.964538,-0.225032,-0.036749,24.662362,3.239699,0.915019
10403,,-0.502194,11.284187,8.991798,-0.194997,-0.148481,-0.107417,24.547540,3.182665,0.822004
10404,,-0.225256,7.076832,8.218231,-1.389537,-0.152804,-0.156462,23.748747,3.111903,0.703786
10405,,0.056939,2.455284,8.354200,-1.406346,-0.136695,-0.139998,22.939362,3.066430,0.597567
10406,,0.160478,-0.161116,8.917306,-0.580331,-0.182051,-0.125387,22.606564,2.970506,0.490905
10407,,0.111377,0.748689,9.742037,0.354905,-0.202242,-0.095036,22.807108,2.879261,0.394482
10408,,-0.065673,3.413575,10.292813,0.787416,-0.215484,-0.059843,23.254944,2.751398,0.313049
10409,,-0.163128,5.515197,10.486323,0.624428,-0.199013,-0.033309,23.611802,2.649006,0.248707
10410,,-0.284787,5.760072,10.107564,0.139724,-0.166288,-0.009517,23.690611,2.536314,0.203895
10411,,-0.422338,4.912789,9.578321,-0.278085,-0.148644,0.012598,23.532138,2.450022,0.174930
10412,,0.037108,3.449074,9.084053,-0.451423,-0.163387,0.000961,23.274052,2.336683,0.137059
10413,,-0.223588,2.974056,9.029633,-0.307168,-0.167216,0.014705,23.098922,2.239913,0.105647
10414,,-0.039511,2.908027,9.227210,-0.082891,-0.173080,0.005239,23.051310,2.120499,0.068091
10415,,0.003200,3.342413,9.464693,0.126297,-0.150222,0.019229,23.124884,2.031608,0.043047
10416,,-0.061279,3.594770,9.563200,0.226082,-0.146867,0.017492,23.253821,1.923452,0.017345
10417,,-0.191716,4.649012,9.600417,0.141456,-0.119099,0.030019,23.336571,1.848577,0.004710
10418,,-0.118885,5.022471,9.495452,-0.116246,-0.105068,0.019655,23.269844,1.762260,-0.010553
10419,,-0.167477,4.754010,9.071449,-0.443364,-0.088353,0.014949,23.017524,1.706935,-0.024014
10420,,-0.103494,4.234073,8.666666,-0.691017,-0.093072,0.009621,22.622631,1.629386,-0.041073
10421,,-0.179816,3.781297,8.398374,-0.847819,-0.113670,0.010331,22.138407,1.561473,-0.061777
10422,,-0.146802,3.103567,8.163892,-0.889389,-0.143754,0.006607,21.630190,1.457740,-0.090218
10423,,-0.039331,2.608737,7.962927,-0.813244,-0.168602,0.011847,21.165610,1.359853,-0.120439
10424,,0.025548,2.180577,7.785134,-0.638335,-0.202300,0.029096,20.800970,1.220132,-0.147687
10425,,0.143117,2.122139,7.639038,-0.438232,-0.225518,0.034074,20.551423,1.086858,-0.176279
10426,,0.294699,2.407845,7.317195,-0.307232,-0.251882,0.072662,20.375947,0.911766,-0.189245
10427,,0.326473,2.858017,7.012544,-0.308597,-0.278628,0.101979,20.201225,0.736259,-0.190996
10428,,0.253034,3.182470,6.611959,-0.420243,-0.313465,0.141418,19.961365,0.514404,-0.178055
10429,,0.153805,3.129819,6.448970,-0.598595,-0.381917,0.172830,19.620634,0.269450,-0.160131
10430,,0.196706,2.611036,6.366160,-0.715959,-0.449341,0.185296,19.212206,-0.033834,-0.146807
10431,,0.456126,2.050146,6.034462,-0.718521,-0.525958,0.185709,18.802634,-0.358960,-0.145446
10432,,0.625742,1.697641,5.801581,-0.625521,-0.612070,0.191146,18.446298,-0.751342,-0.154783
10433,,0.828077,1.536759,5.533369,-0.496114,-0.698415,0.198418,18.164476,-1.172533,-0.173571
10434,,1.049436,1.723383,5.221970,-0.431697,-0.785895,0.211993,17.919407,-1.663665,-0.198702
10435,,1.253151,2.006300,4.854993,-0.458515,-0.884967,0.247262,17.659520,-2.195344,-0.219723
10436,,1.466770,2.135666,4.530557,-0.582882,-1.001211,0.284048,17.328321,-2.817445,-0.238035
10437,,1.759766,1.838619,4.558215,-0.710043,-1.138467,0.314374,16.924761,-3.499468,-0.258957
10438,,1.937106,1.287120,4.652269,-0.747414,-1.272724,0.336224,16.500987,-4.280445,-0.285147
10439,,2.001342,1.093754,4.918090,-0.680451,-1.399888,0.344401,16.116243,-5.111294,-0.321982
10440,,2.153168,1.223460,5.192154,-0.588208,-1.508676,0.336016,15.786862,-6.023827,-0.375627
10441,,2.372374,1.466116,5.292883,-0.552696,-1.607843,0.338828,15.479373,-6.968943,-0.438135
10442,,2.587734,1.661650,5.202067,-0.580674,-1.698280,0.354292,15.157152,-7.990930,-0.500893
10443,,2.445776,1.690093,5.294066,-0.612225,-1.794820,0.375649,14.817286,-9.045640,-0.560332
10444,,2.522495,1.364045,5.635965,-0.570328,-1.902475,0.367676,14.505553,-10.184778,-0.634398
10445,,2.978137,1.001542,6.050585,-0.430521,-2.006558,0.346141,14.278943,-11.353363,-0.730459
10446,,3.565287,1.077708,6.480447,-0.261095,-2.080307,0.325242,14.155659,-12.587083,-0.846035
10447,,4.029670,1.657936,6.690442,-0.190730,-2.129048,0.316079,14.077254,-13.819984,-0.971938
10448,,4.354318,2.271824,6.895187,-0.293588,-2.176185,0.317920,13.943673,-15.108263,-1.102211
10449,,4.782351,2.496017,6.787452,-0.545860,-2.222344,0.342242,13.665203,-16.397314,-1.220732
10450,,5.060170,2.333076,7.001569,-0.784650,-2.273042,0.395729,13.244329,-17.753222,-1.308250
10451,,5.147153,1.865847,7.733652,-0.887752,-2.303510,0.430127,12.756902,-19.100400,-1.368738
10452,,5.267562,1.115097,8.316424,-0.798484,-2.310594,0.452442,12.315645,-20.487575,-1.406527
10453,,5.588373,0.560687,8.819369,-0.534852,-2.301964,0.451055,12.021340,-21.837128,-1.434325
10454,,6.025511,0.777179,8.923594,-0.225769,-2.283584,0.450053,11.902486,-23.210684,-1.455951
10455,,6.451719,1.516286,8.616954,-0.053768,-2.280927,0.433086,11.885780,-24.546450,-1.485549
10456,,6.815175,1.846530,7.919519,-0.066553,-2.301080,0.438292,11.861519,-25.930112,-1.514765
10457,,7.214318,1.530604,7.600750,-0.106870,-2.369607,0.475620,11.808555,-27.320653,-1.528490
10458,,7.478354,1.461235,8.094482,-0.027043,-2.428273,0.473315,11.805311,-28.782001,-1.551373
10459,,7.719836,1.596120,8.879033,0.122858,-2.457753,0.465743,11.893979,-30.220827,-1.584174
10460,,7.852971,1.932552,9.481492,0.238303,-2.447510,0.443535,12.057748,-31.691140,-1.634688
10461,,8.101923,2.266409,9.636058,0.254265,-2.415518,0.411960,12.244367,-33.099677,-1.707124
10462,,8.415727,2.579013,9.423056,0.128821,-2.368018,0.370817,12.374961,-34.517142,-1.806698
10463,,8.653247,2.280953,8.809214,-0.099334,-2.345805,0.365157,12.379680,-35.880689,-1.909949
10464,,8.913382,1.579232,8.496121,-0.255592,-2.346747,0.395001,12.285217,-37.289996,-1.993967
10465,,8.930630,0.976265,8.663656,-0.233248,-2.358911,0.432893,12.188593,-38.669335,-2.050691
10466,,9.008517,0.471764,8.897835,-0.021205,-2.357368,0.458770,12.202016,-40.093442,-2.088879
10467,,9.188964,0.485232,9.221641,0.301219,-2.328535,0.476823,12.392143,-41.461115,-2.112488
10468,,9.386145,0.864574,9.347569,0.551064,-2.275099,0.476078,12.723632,-42.841427,-2.136025
10469,,9.653966,1.614429,9.062291,0.631027,-2.201054,0.459178,13.112198,-44.135399,-2.172188
10470,,9.870937,2.477548,8.730531,0.476245,-2.129873,0.435536,13.421021,-45.428803,-2.224241
10471,,10.017821,2.846718,8.230632,0.110276,-2.069127,0.425426,13.527801,-46.644474,-2.281879
10472,,10.030905,2.522846,7.924088,-0.288373,-2.032325,0.426933,13.398773,-47.881925,-2.331178
10473,,9.908464,1.756568,7.763532,-0.553944,-2.005097,0.447176,13.100094,-49.064916,-2.353375
10474,,9.450600,0.992391,8.144149,-0.585382,-1.971735,0.469844,12.754054,-50.273989,-2.339031
10475,,9.258385,0.255760,8.503040,-0.411998,-1.945303,0.489207,12.484132,-51.428927,-2.292672
10476,,9.672672,-0.061277,8.495666,-0.089271,-1.895613,0.478681,12.387917,-52.595064,-2.236355
10477,,10.075933,0.331223,8.318404,0.205726,-1.818940,0.473878,12.454216,-53.677328,-2.169276
10478,,10.310630,1.200804,8.026266,0.298959,-1.732530,0.466272,12.556925,-54.749293,-2.087097
10479,,10.347970,1.944595,7.558764,0.154053,-1.660264,0.443072,12.589749,-55.739110,-2.017077
10480,,10.314227,2.121461,7.013590,-0.124925,-1.601860,0.425649,12.454137,-56.731534,-1.942324
10481,,10.057073,1.880842,6.647209,-0.384880,-1.561197,0.414927,12.172469,-57.662292,-1.867110
10482,,9.603107,1.502404,6.545165,-0.541823,-1.543742,0.408777,11.783730,-58.618511,-1.776567
10483,,9.269677,1.045522,6.627085,-0.585066,-1.534186,0.404217,11.367428,-59.532300,-1.679642
10484,,9.508244,0.545069,6.687599,-0.512301,-1.535271,0.396012,10.962054,-60.479724,-1.446416
10485,,9.934723,0.347516,6.769989,-0.376762,-1.513559,0.384725,10.652318,-61.379102,-1.336667
10486,,10.225318,0.442236,6.699073,-0.274452,-1.469838,0.365696,10.373741,-62.284073,-1.106934
10487,,10.344379,0.716961,6.573533,-0.252506,-1.420483,0.329811,10.152785,-63.124861,-1.018793
10488,,10.281081,0.945970,6.371117,-0.341166,-1.373431,0.292592,9.877510,-63.965973,-0.859511
10489,,10.190514,0.925403,6.043574,-0.496807,-1.333347,0.260146,9.558401,-64.750426,-0.819029
10490,,10.103963,0.767638,5.841305,-0.655608,-1.298289,0.237934,9.129888,-65.541829,-0.701858
10491,,9.785394,0.575290,5.752227,-0.783779,-1.258837,0.220739,8.653467,-66.280309,-0.669684
10492,,9.436193,0.251824,5.728547,-0.852239,-1.229932,0.216712,8.093756,-67.029089,-0.539038
10493,,9.395475,-0.055811,5.716964,-0.850324,-1.207950,0.205444,7.555325,-67.737149,-0.481359
10494,,9.645902,-0.331968,5.608605,-0.805630,-1.171353,0.184678,7.018512,-68.447776,-0.359116
10495,,9.693639,-0.352515,5.460537,-0.756157,-1.132938,0.170611,6.534758,-69.110306,-0.302785
10496,,9.622689,-0.309202,5.281206,-0.750433,-1.097540,0.147983,6.033929,-69.774195,-0.190810
10497,,9.516673,-0.361321,5.073780,-0.778067,-1.073458,0.131406,5.554654,-70.400130,-0.153087
10498,,9.444366,-0.525113,4.816848,-0.816728,-1.075055,0.114986,5.030154,-71.047243,-0.069316
10499,,9.392345,-0.725491,4.682607,-0.834352,-1.069552,0.106039,4.525448,-71.669433,-0.039092
10500,,9.282239,-0.871043,4.552936,-0.834351,-1.065710,0.101313,3.972775,-72.308668,0.058040
10501,,9.181222,-1.044291,4.396584,-0.814807,-1.070181,0.096573,3.457506,-72.930600,0.110838
10502,,9.262752,-1.166569,4.237574,-0.782420,-1.083065,0.094413,2.901377,-73.577516,0.240884
10503,,9.516767,-1.338345,4.216347,-0.722847,-1.071868,0.092686,2.402448,-74.199930,0.331154
10504,,9.694397,-1.479309,4.156502,-0.626447,-1.044043,0.085971,1.897101,-74.822280,0.494347
10505,,9.680551,-1.532420,4.154818,-0.507670,-1.016874,0.084348,1.489160,-75.412571,0.617488
10506,,9.617593,-1.393879,4.199294,-0.403054,-0.992922,0.088256,1.050223,-76.003535,0.838907
10507,,9.570943,-1.146990,4.252335,-0.303118,-0.962804,0.096797,0.682847,-76.562457,1.040279
10508,,9.593741,-0.880209,4.293567,-0.265990,-0.930771,0.111188,0.208889,-77.115364,1.369779
10509,,9.607832,-0.566113,4.291005,-0.250253,-0.885195,0.115690,-0.232258,-77.629035,1.676880
10510,,9.628068,-0.243284,4.327257,-0.283109,-0.834656,0.118793,-0.807942,-78.123508,2.100026
10511,,9.667287,-0.076205,4.264948,-0.340832,-0.770413,0.110542,-1.353010,-78.570153,2.459105
10512,,9.819432,-0.045696,4.149414,-0.408464,-0.713084,0.096622,-2.006436,-78.991451,2.881395
10513,,9.953651,0.080065,4.161183,-0.472712,-0.653878,0.060567,-2.539986,-79.370916,3.150764
10514,,10.358515,1.618365,4.803670,-0.595031,-0.561114,-0.003110,-3.039919,-79.704413,3.306434
10515,,10.633377,6.418149,6.440053,-1.195786,-0.388816,-0.073564,-3.566767,-79.935726,3.147505
10516,,10.386974,8.887759,7.183100,-2.610098,-0.242679,-0.099535,-4.860474,-80.087700,2.938164
10517,,10.605063,4.406885,5.723833,-3.621983,-0.152401,-0.095672,-6.678958,-80.186512,2.679427
10518,,9.949601,0.850408,4.708409,-3.497352,-0.088283,-0.142589,-8.274059,-80.252727,2.259449
10519,,9.585910,0.939235,4.205859,-3.184058,-0.079553,-0.184854,-9.536947,-80.320493,1.691711
10520,,9.688635,0.137668,3.766584,-2.921038,-0.036686,-0.251492,-10.415421,-80.369332,0.882306
10521,,9.816374,-1.539663,3.386623,-2.475491,0.028928,-0.322231,-10.754758,-80.393237,-0.210225
10522,,10.278707,-3.033535,3.120145,-1.870163,0.078714,-0.318435,-10.736160,-80.384538,-1.320775
10523,,10.499486,-3.808043,2.757111,-1.191978,0.151006,-0.272013,-10.433429,-80.334395,-2.318712
10524,,10.238098,-3.815298,2.415358,-0.532909,0.206461,-0.227374,-9.902387,-80.241410,-3.172337
10525,,10.012992,-3.035676,2.177504,-0.040169,0.207796,-0.180196,-9.230790,-80.147472,-3.875384
10526,,9.995145,-1.972819,2.066867,0.213285,0.194991,-0.141626,-8.597535,-80.049589,-4.404806
10527,,9.897599,-1.364283,2.048554,0.267384,0.202630,-0.104123,-8.022377,-79.949671,-4.831418
10528,,9.822732,-1.231676,1.922241,0.214705,0.199298,-0.065996,-7.655445,-79.841517,-5.088199
10529,,9.772489,-1.326192,1.960944,0.152512,0.215920,-0.039311,-7.361738,-79.728166,-5.295998
10530,,9.619413,-1.352102,2.017684,0.095921,0.200500,-0.008875,-7.253534,-79.614600,-5.363233
10531,,9.507457,-1.272581,1.967849,0.011488,0.187307,0.015254,-7.227572,-79.513394,-5.381100
10532,,9.495867,-1.148592,1.926551,-0.094523,0.185162,0.036102,-7.377069,-79.405118,-5.297769
10533,,9.444021,-1.183631,1.847965,-0.213336,0.184595,0.065315,-7.630195,-79.301716,-5.162755
10534,,9.351929,-1.377155,1.730648,-0.296202,0.170682,0.090597,-8.063991,-79.197301,-4.901050
10535,,9.275250,-1.591483,1.607225,-0.309614,0.147147,0.106729,-8.501184,-79.111378,-4.634711
10536,,9.306355,-1.704019,1.612061,-0.257990,0.120771,0.120876,-9.013103,-79.031905,-4.277544
10537,,9.425102,-1.688931,1.662325,-0.163030,0.099448,0.134148,-9.457573,-78.969608,-3.918109
10538,,9.471222,-1.388229,1.734319,-0.059963,0.089814,0.135048,-9.907325,-78.905288,-3.507717
10539,,9.583914,-0.941290,1.823296,0.020521,0.087556,0.138979,-10.257854,-78.848201,-3.136705
10540,,9.609558,-0.469404,1.912339,0.062365,0.084412,0.126786,-10.613596,-78.786842,-2.744809
10541,,9.692958,-0.261499,1.982143,0.093741,0.077058,0.103751,-10.821058,-78.738622,-2.476758
10542,,9.821204,0.012868,2.073953,0.177480,0.056831,0.091626,-11.017067,-78.695978,-2.184324
10543,,9.840716,0.686756,2.309508,0.223802,0.044973,0.075828,-11.085893,-78.668557,-1.981601
10544,,9.861979,1.190329,2.425724,0.190100,0.039402,0.047186,-11.153587,-78.640398,-1.809943
10545,,9.901373,1.215598,2.489247,0.102686,0.042812,0.013819,-11.118562,-78.620988,-1.783911
10546,,9.969962,1.000089,2.418500,0.045664,0.047191,-0.022421,-11.060937,-78.596053,-1.824247
10547,,9.930661,0.791002,2.388675,-0.005155,0.059651,-0.059212,-10.875367,-78.575141,-2.014841
10548,,9.862369,0.599712,2.294508,-0.044693,0.063583,-0.085680,-10.680259,-78.547691,-2.244739
10549,,9.827361,0.281479,2.182532,-0.089302,0.067358,-0.106538,-10.409066,-78.527116,-2.571936
10550,,9.775070,-0.025616,2.126024,-0.132532,0.062420,-0.114050,-10.183430,-78.502876,-2.884555
10551,,9.714292,-0.297252,1.962626,-0.157607,0.056906,-0.109200,-9.951231,-78.487916,-3.211954
10552,,9.599345,-0.621269,1.863118,-0.174533,0.035407,-0.106816,-9.782481,-78.477856,-3.491947
10553,,9.648282,-1.042117,1.819950,-0.148330,0.009183,-0.096048,-9.604891,-78.488147,-3.758214
10554,,9.680624,-1.224577,1.767667,-0.089902,-0.005131,-0.084653,-9.469512,-78.498743,-3.955077
10555,,9.630648,-1.230605,1.795165,-0.034887,0.003727,-0.083766,-9.262814,-78.510663,-4.184710
10556,,9.458896,-1.184029,1.880202,-0.013726,-0.011234,-0.079871,-9.102417,-78.524207,-4.362764
10557,,9.439684,-1.228378,1.902209,-0.013232,-0.022969,-0.064851,-8.946974,-78.549254,-4.527422
10558,,9.505375,-1.207308,1.938853,-0.015593,-0.029877,-0.048719,-8.885028,-78.570474,-4.606219
10559,,9.509409,-1.194742,1.881585,-0.016012,-0.039186,-0.035974,-8.818188,-78.602050,-4.682094
10560,,9.500243,-1.150191,1.983613,-0.007660,-0.042933,-0.024548,-8.828466,-78.628564,-4.681472
10561,,9.492103,-1.076340,2.101681,0.003520,-0.044278,-0.007134,-8.833573,-78.660474,-4.672546
10562,,9.594752,-0.915113,2.228807,-0.004495,-0.048148,0.007813,-8.937305,-78.686991,-4.577101
10563,,9.678996,-0.698735,2.287112,-0.026360,-0.033634,0.020392,-9.033239,-78.710402,-4.493024
10564,,9.715456,-0.587042,2.361048,-0.049749,-0.007408,0.023624,-9.190657,-78.712173,-4.369976
10565,,9.707001,-0.570396,2.396234,-0.059898,-0.005995,0.023246,-9.301857,-78.719610,-4.289946
10566,,9.731355,-0.530476,2.459390,-0.039645,-0.002810,0.023729,-9.450817,-78.718411,-4.171137
10567,,9.772436,-0.348732,2.514378,-0.016084,0.006095,0.017735,-9.515800,-78.719463,-4.112649
10568,,9.796330,-0.259798,2.454072,0.008120,0.014197,0.010612,-9.592769,-78.709559,-4.036097
10569,,9.791312,-0.200421,2.454408,0.030197,0.020346,0.003748,-9.584853,-78.703867,-4.024918
10570,,9.796905,-0.098891,2.451513,0.041663,0.025203,-0.010029,-9.575956,-78.689447,-4.018335
10571,,9.832447,-0.116503,2.341983,0.035720,0.029286,-0.018304,-9.498410,-78.680790,-4.074949
10572,,9.834570,-0.104797,2.291205,0.028320,0.031235,-0.023763,-9.454843,-78.664103,-4.108678
10573,,9.783489,-0.167143,2.236951,0.007904,0.039420,-0.028491,-9.360081,-78.650639,-4.199123
10574,,9.760537,-0.146969,2.209366,-0.033572,0.041488,-0.032034,-9.321893,-78.628827,-4.264320
10575,,9.725388,-0.280879,2.067775,-0.065930,0.056585,-0.038016,-9.235319,-78.606489,-4.389589
10576,,9.661448,-0.445682,1.986443,-0.071049,0.055756,-0.036089,-9.199827,-78.576965,-4.473938
10577,,9.564186,-0.581741,1.962852,-0.073331,0.049476,-0.038971,-9.118849,-78.558675,-4.597857
10578,,9.614348,-0.695657,1.960850,-0.068148,0.035250,-0.036122,-9.091459,-78.540815,-4.672102
10579,,9.596663,-0.735440,1.933222,-0.055529,0.027561,-0.036005,-9.018839,-78.534605,-4.777110
10580,,9.591544,-0.803003,1.956421,-0.047901,0.022743,-0.034516,-8.992980,-78.523779,-4.833915
10581,,9.575144,-0.812165,1.943820,-0.032020,0.012294,-0.032669,-8.923121,-78.525869,-4.922376
10582,,9.643471,-0.754380,1.946543,-0.025205,0.005140,-0.025810,-8.915954,-78.524266,-4.950151
10583,,9.615610,-0.623772,2.000339,-0.029442,0.001835,-0.021619,-8.880019,-78.531270,-5.002499
10584,,9.644455,-0.638719,2.065609,-0.039337,0.000978,-0.022309,-8.892908,-78.531778,-5.018749
10585,,9.629201,-0.618981,2.067617,-0.046998,-0.002698,-0.015609,-8.885792,-78.540807,-5.051967
10586,,9.651185,-0.554288,2.201405,-0.045257,-0.001595,-0.011328,-8.934082,-78.541809,-5.035817
10587,,9.659998,-0.573934,2.164856,-0.048536,0.000560,-0.016747,-8.923289,-78.549091,-5.073695
10588,,9.688795,-0.589952,2.230079,-0.036903,0.002519,-0.011775,-8.963431,-78.547737,-5.061780
10589,,9.688775,-0.589211,2.230363,-0.016312,0.006576,-0.015762,-8.934325,-78.551522,-5.099517
10590,,9.742350,-0.483213,2.252192,-0.004943,0.010188,-0.014187,-8.946946,-78.545967,-5.095264
10591,,9.747778,-0.381466,2.248897,-0.004372,0.015394,-0.015570,-8.907724,-78.544732,-5.136354
10592,,9.736917,-0.420892,2.254054,-0.004858,0.019922,-0.014983,-8.913016,-78.533648,-5.139970
10593,,9.735660,-0.449859,2.239563,-0.002487,0.019621,-0.015523,-8.871099,-78.530003,-5.182721
10594,,9.744971,-0.437880,2.221466,-0.001590,0.016566,-0.016948,-8.870298,-78.520917,-5.190006
10595,,9.719562,-0.427982,2.245499,0.003322,0.020300,-0.014880,-8.826662,-78.516816,-5.231130
10596,,9.716617,-0.517146,2.198374,0.011237,0.021733,-0.021866,-8.802028,-78.505164,-5.255327
10597,,9.705781,-0.555716,2.203880,0.019259,0.018978,-0.017525,-8.742595,-78.502022,-5.303266
10598,,9.682568,-0.566114,2.158035,0.025469,0.020528,-0.021410,-8.712202,-78.490960,-5.323848
10599,,9.685281,-0.554307,2.106465,0.030220,0.020532,-0.018796,-8.642432,-78.487023,-5.375942
10600,,9.643590,-0.555464,2.116744,0.023366,0.019780,-0.013782,-8.633613,-78.475680,-5.378467
10601,,9.635032,-0.615972,2.052102,0.012419,0.018836,-0.008822,-8.602596,-78.471828,-5.401432
10602,,9.650895,-0.603514,2.068191,0.002043,0.023100,-0.005248,-8.628429,-78.457882,-5.381220
10603,,9.587816,-0.558854,2.063448,-0.010864,0.024532,0.003100,-8.641493,-78.449771,-5.372823
10604,,9.596233,-0.579652,2.029129,-0.030565,0.017393,0.005639,-8.718523,-78.438131,-5.319702
10605,,9.657607,-0.656391,2.021231,-0.039788,0.017546,0.014878,-8.783681,-78.432937,-5.275059
10606,,9.705045,-0.654208,2.048583,-0.036590,0.020798,0.016357,-8.892747,-78.418454,-5.192237
10607,,9.695607,-0.636809,2.086621,-0.036578,0.021407,0.020048,-8.968551,-78.410578,-5.134857
10608,,9.697369,-0.548865,2.137922,-0.037457,0.025676,0.028855,-9.110430,-78.392183,-5.018957
10609,,9.708730,-0.451087,2.169905,-0.053861,0.030945,0.028374,-9.214561,-78.378096,-4.942772
10610,,9.709508,-0.394905,2.205647,-0.074498,0.033505,0.035759,-9.392484,-78.354526,-4.810980
10611,,9.663191,-0.313296,2.232157,-0.092110,0.033180,0.030397,-9.522495,-78.338898,-4.730747
10612,,9.666390,-0.278833,2.197912,-0.132061,0.034349,0.028123,-9.710358,-78.315409,-4.622195
10613,,9.684238,-0.311848,2.285896,-0.152388,0.032914,0.024121,-9.857257,-78.300441,-4.559987
10614,,9.713449,-0.385197,2.266989,-0.163885,0.030473,0.015412,-10.030173,-78.280268,-4.481852
10615,,9.745145,-0.496470,2.318416,-0.155412,0.026264,0.000457,-10.117206,-78.271350,-4.482557
10616,,9.707229,-0.592499,2.311848,-0.133434,0.022167,-0.009185,-10.207052,-78.258207,-4.475226
