// Start Time: Unknown
// Update Rate: 100.0Hz
// Filter Profile: human (46.1)
// Firmware Version: 4.3.5
PacketCounter,SampleTimeFine,Acc_X,Acc_Y,Acc_Z,Gyr_X,Gyr_Y,Gyr_Z,Roll,Pitch,Yaw
41444,,9.415705,-1.386699,2.696908,-0.028124,0.028380,-0.012616,-28.376314,-71.642107,-6.863950
41445,,9.425467,-1.416334,2.685177,-0.034042,0.028999,-0.008748,-28.358752,-71.629869,-6.903006
41446,,9.378892,-1.437617,2.655206,-0.036102,0.025419,-0.004467,-28.347625,-71.618793,-6.938627
41447,,9.411083,-1.427814,2.658832,-0.029747,0.022547,0.002400,-28.349856,-71.606771,-6.954237
41448,,9.399294,-1.448983,2.652418,-0.025889,0.018350,0.002814,-28.351790,-71.597998,-6.968411
41449,,9.440172,-1.458940,2.619220,-0.019258,0.014812,-0.003303,-28.345708,-71.591428,-6.986449
41450,,9.429486,-1.429539,2.634059,-0.012495,0.007230,0.002580,-28.348498,-71.589261,-6.992512
41451,,9.418014,-1.450155,2.626825,-0.006921,0.010999,0.001232,-28.345341,-71.583380,-7.000019
41452,,9.417782,-1.450304,2.627576,0.002982,0.005541,0.000845,-28.331908,-71.583555,-7.019027
41453,,9.453225,-1.399396,2.674035,0.010945,-0.000743,-0.001135,-28.324524,-71.584238,-7.020200
41454,,9.454117,-1.349234,2.695795,0.005065,-0.006299,0.001484,-28.340526,-71.592312,-6.991683
41455,,9.488986,-1.348413,2.719409,-0.003045,-0.005219,-0.002378,-28.342933,-71.595590,-6.990985
41456,,9.474231,-1.348813,2.666131,-0.010623,-0.009492,-0.004156,-28.343007,-71.607650,-6.999481
41457,,9.465970,-1.329083,2.701461,-0.019196,-0.006782,0.000368,-28.360114,-71.610970,-6.993044
41458,,9.469949,-1.349225,2.745132,-0.022344,-0.005506,-0.002297,-28.374597,-71.623010,-6.983552
41459,,9.471232,-1.409299,2.744612,-0.015932,-0.005302,-0.002834,-28.383771,-71.626455,-6.983503
41460,,9.489213,-1.399335,2.693314,-0.009457,-0.005422,-0.001840,-28.375902,-71.638849,-6.997410
41461,,9.513734,-1.368644,2.730867,-0.003538,-0.006036,-0.005705,-28.374213,-71.643448,-7.001327
41462,,9.507404,-1.358027,2.788807,0.000995,-0.006981,-0.006305,-28.357424,-71.657924,-7.014436
41463,,9.505787,-1.347412,2.765928,0.000870,-0.006334,-0.009370,-28.347873,-71.663668,-7.023973
41464,,9.515367,-1.316618,2.751009,0.000995,-0.006981,-0.006305,-28.319343,-71.677401,-7.052781
41465,,9.496002,-1.316046,2.778622,-0.001440,-0.008625,-0.011225,-28.310142,-71.684804,-7.063345
41466,,9.508627,-1.354972,2.786125,-0.009646,-0.004454,-0.006435,-28.280561,-71.697352,-7.097143
41467,,9.483409,-1.325178,2.747183,-0.008261,-0.004123,-0.009700,-28.273875,-71.702058,-7.109174
41468,,9.507159,-1.343963,2.762887,-0.006319,-0.003296,-0.008107,-28.232738,-71.720823,-7.151188
41469,,9.464094,-1.324141,2.774882,-0.008733,0.000908,-0.010247,-28.221329,-71.723145,-7.168473
41470,,9.474546,-1.353254,2.761005,-0.010653,0.005929,-0.009062,-28.177417,-71.736878,-7.209886
41471,,9.474534,-1.352414,2.761458,-0.007820,0.006271,-0.014059,-28.155258,-71.737516,-7.237921
41472,,9.496222,-1.360677,2.755743,0.000880,0.002921,-0.015523,-28.081695,-71.755011,-7.308566
41473,,9.483920,-1.319574,2.748117,-0.004190,0.009217,-0.017000,-28.050501,-71.754931,-7.343926
41474,,9.495025,-1.298143,2.756942,-0.005145,0.010025,-0.011941,-27.985079,-71.765829,-7.405334
41475,,9.514631,-1.296763,2.729426,-0.016711,0.010588,-0.017191,-27.959636,-71.765109,-7.442178
41476,,9.523021,-1.315659,2.694059,-0.025047,0.015398,-0.015465,-27.886990,-71.775034,-7.524054
41477,,9.478872,-1.345679,2.685242,-0.025415,0.013934,-0.015726,-27.866061,-71.772205,-7.561388
41478,,9.510804,-1.384146,2.666029,-0.025416,0.013933,-0.015724,-27.784739,-71.785779,-7.655357
41479,,9.502108,-1.363390,2.703333,-0.020882,0.012993,-0.016324,-27.761020,-71.783572,-7.692907
41480,,9.445594,-1.353562,2.686449,-0.018335,0.017397,-0.017266,-27.673549,-71.793048,-7.790160
41481,,9.425699,-1.352840,2.715926,-0.016285,0.011729,-0.015391,-27.649651,-71.791175,-7.825140
41482,,9.455833,-1.380980,2.674388,-0.013387,0.011752,-0.018854,-27.575340,-71.804458,-7.900595
41483,,9.453827,-1.369680,2.653218,-0.012657,0.014680,-0.018326,-27.542464,-71.801844,-7.942812
41484,,9.423483,-1.338775,2.696830,-0.011636,0.013552,-0.021852,-27.471370,-71.817390,-8.011400
41485,,9.447029,-1.356370,2.713906,-0.014308,0.009796,-0.023973,-27.434670,-71.818731,-8.058586
41486,,9.488446,-1.363558,2.680362,-0.010554,0.012100,-0.023845,-27.350595,-71.839558,-8.142114
41487,,9.486583,-1.351622,2.659006,-0.012860,0.009808,-0.025703,-27.310307,-71.841356,-8.192180
41488,,9.454475,-1.310429,2.679916,-0.017763,0.009278,-0.025366,-27.226206,-71.860043,-8.284483
41489,,9.486768,-1.347868,2.660252,-0.021028,0.007786,-0.022167,-27.197639,-71.861895,-8.327143
41490,,9.467096,-1.346816,2.689032,-0.024054,0.008408,-0.021766,-27.143018,-71.876213,-8.388458
41491,,9.468529,-1.405416,2.689464,-0.020779,0.006484,-0.016040,-27.124933,-71.877070,-8.419888
41492,,9.455602,-1.414575,2.659500,-0.016305,0.005876,-0.018170,-27.054335,-71.901980,-8.496278
41493,,9.479817,-1.382622,2.698179,-0.010317,0.004959,-0.020499,-27.024407,-71.904805,-8.533876
41494,,9.469375,-1.351368,2.712646,-0.010255,0.004633,-0.018968,-26.960648,-71.916472,-8.603974
41495,,9.467611,-1.339822,2.690714,-0.016859,0.005387,-0.023026,-26.930143,-71.919634,-8.646137
41496,,9.500527,-1.327462,2.692908,-0.020186,0.004216,-0.021359,-26.875950,-71.942167,-8.706505
41497,,9.469866,-1.346632,2.713288,-0.021763,0.004852,-0.022689,-26.849141,-71.945529,-8.747709
41498,,9.469942,-1.345165,2.713751,-0.023336,0.011329,-0.021227,-26.801252,-71.954368,-8.803133
41499,,9.493596,-1.363201,2.730334,-0.024727,0.005144,-0.020757,-26.778950,-71.957079,-8.841343
41500,,9.482618,-1.382177,2.722586,-0.022063,0.008902,-0.018628,-26.732228,-71.975618,-8.891752
41501,,9.450334,-1.341962,2.743335,-0.022427,0.007437,-0.018893,-26.709649,-71.976801,-8.928823
41502,,9.481158,-1.320168,2.723635,-0.028118,0.010137,-0.017826,-26.668265,-71.986864,-8.981426
41503,,9.463272,-1.329944,2.774587,-0.034835,0.008116,-0.016027,-26.656761,-71.986981,-9.014302
41504,,9.439609,-1.310067,2.758913,-0.043680,0.012086,-0.017619,-26.619753,-72.001765,-9.072156
41505,,9.415558,-1.340272,2.720788,-0.050698,0.008270,-0.014556,-26.619548,-72.001392,-9.102686
41506,,9.439138,-1.359663,2.736981,-0.050701,0.008268,-0.014553,-26.591349,-72.013998,-9.156132
41507,,9.417421,-1.350503,2.743037,-0.058934,0.006550,-0.012553,-26.600342,-72.014022,-9.181949
41508,,9.450144,-1.340326,2.744786,-0.067168,0.004830,-0.010553,-26.614497,-72.023025,-9.195761
41509,,9.480508,-1.370050,2.702161,-0.070031,0.013731,-0.011662,-26.625733,-72.019100,-9.225804
41510,,9.456240,-1.401155,2.664332,-0.061747,0.020955,-0.009316,-26.614971,-72.018055,-9.267381
41511,,9.393912,-1.493184,2.682975,-0.046546,0.017550,-0.009790,-26.612774,-72.011638,-9.297367
41512,,9.444287,-1.471606,2.635481,-0.028675,0.012069,-0.010937,-26.590803,-72.027398,-9.325640
41513,,9.469627,-1.500309,2.674744,-0.005792,0.015753,-0.015455,-26.557786,-72.023406,-9.363411
41514,,9.393636,-1.441284,2.708755,0.009477,0.012022,-0.014403,-26.530724,-72.030517,-9.372920
41515,,9.468171,-1.387623,2.699943,0.015305,0.002836,-0.015227,-26.496344,-72.033088,-9.399287
41516,,9.457592,-1.356282,2.714715,0.008824,0.002929,-0.016224,-26.461950,-72.031766,-9.432455
41517,,9.444860,-1.364694,2.684617,0.000467,0.001864,-0.017290,-26.433636,-72.035168,-9.461405
41518,,9.457742,-1.402808,2.692322,-0.003881,-0.004041,-0.014911,-26.413304,-72.045692,-9.479463
41519,,9.468737,-1.431182,2.677667,-0.003035,-0.001774,-0.011313,-26.399306,-72.049494,-9.495436
41520,,9.459857,-1.460233,2.691553,0.002105,0.000897,-0.014432,-26.381915,-72.055264,-9.506100
41521,,9.458106,-1.449005,2.669468,0.011928,-0.001458,-0.006190,-26.367293,-72.057589,-9.513657
41522,,9.451293,-1.438515,2.728321,0.015553,0.001519,-0.009109,-26.355697,-72.060593,-9.510475
41523,,9.405955,-1.408661,2.718909,0.018274,0.004946,-0.005441,-26.333714,-72.059391,-9.521883
41524,,9.416819,-1.387487,2.728016,0.014388,0.009123,-0.005830,-26.311958,-72.056906,-9.537607
41525,,9.440535,-1.356307,2.767522,0.010701,0.006476,-0.004440,-26.294716,-72.054590,-9.548617
41526,,9.460074,-1.404562,2.717304,0.006528,0.003024,-0.006377,-26.281647,-72.063601,-9.553799
41527,,9.496583,-1.412856,2.764243,0.006763,0.005148,-0.009166,-26.260235,-72.063136,-9.571550
41528,,9.541880,-1.440498,2.774984,0.015541,0.007353,-0.006298,-26.240905,-72.066018,-9.578612
41529,,9.500083,-1.479874,2.787882,0.030670,0.007735,-0.017201,-26.191021,-72.066297,-9.611865
41530,,9.530749,-1.505878,2.746593,0.055744,0.005112,-0.016796,-26.129969,-72.067752,-9.647090
41531,,9.507494,-1.432958,2.754320,0.080142,0.002668,-0.024300,-26.044344,-72.072326,-9.688176
41532,,9.486275,-1.369255,2.783988,0.090141,-0.003063,-0.023164,-25.971502,-72.079154,-9.708558
41533,,9.458060,-1.345303,2.849464,0.096858,-0.006870,-0.027741,-25.878185,-72.089435,-9.747638
41534,,9.469623,-1.369338,2.835348,0.098517,-0.019514,-0.030461,-25.795385,-72.108428,-9.774834
41535,,9.420208,-1.384654,2.882910,0.100578,-0.027599,-0.040289,-25.695671,-72.132499,-9.818389
41536,,9.340380,-1.518925,2.905409,0.127588,-0.043490,-0.055537,-25.590947,-72.164194,-9.841319
41537,,9.334448,-1.767627,2.976202,0.182773,-0.059842,-0.076592,-25.410169,-72.213784,-9.920427
41538,,9.319259,-1.931596,3.083682,0.293330,-0.082155,-0.106987,-25.145763,-72.279882,-10.019674
41539,,9.240489,-2.060693,3.210772,0.427711,-0.099787,-0.132078,-24.762450,-72.363424,-10.163976
41540,,9.187476,-2.100108,3.399578,0.577930,-0.126883,-0.168275,-24.262971,-72.467301,-10.345199
41541,,9.164353,-2.116916,3.673143,0.729744,-0.135635,-0.194365,-23.623007,-72.583355,-10.577025
41542,,9.112250,-2.092423,3.991499,0.864976,-0.139674,-0.217762,-22.898359,-72.687903,-10.819864
41543,,9.210215,-2.203391,4.185749,1.007384,-0.139467,-0.239094,-22.013088,-72.813890,-11.141687
41544,,9.264069,-2.339083,4.481992,1.164990,-0.118564,-0.262458,-21.023139,-72.912955,-11.467383
41545,,9.460205,-2.168307,5.170654,1.340968,-0.081783,-0.292250,-19.797559,-73.015180,-11.944724
41546,,9.709732,-1.683446,6.142832,1.453306,0.009232,-0.345171,-18.403889,-73.040403,-12.522237
41547,,9.891059,-1.166686,6.547167,1.392473,0.111248,-0.389547,-16.846834,-73.047205,-13.314957
41548,,10.005608,-0.831066,6.713251,1.192237,0.246100,-0.410260,-15.337618,-72.924929,-14.170650
41549,,9.818397,-0.468030,6.848236,0.878553,0.370986,-0.424804,-13.898857,-72.780724,-15.148448
41550,,9.758611,-0.724201,6.789224,0.530215,0.468115,-0.429657,-12.670907,-72.508190,-16.074323
41551,,9.868121,-1.550342,6.839575,0.312389,0.543642,-0.426920,-11.535261,-72.255066,-17.076642
41552,,10.016410,-2.167336,7.169311,0.265747,0.624569,-0.406983,-10.481685,-71.878180,-17.974106
41553,,10.220589,-2.503498,7.386496,0.318450,0.709468,-0.371692,-9.454504,-71.515108,-18.862092
41554,,10.477385,-2.633795,7.367550,0.400129,0.786118,-0.318814,-8.527679,-71.019026,-19.513999
41555,,10.616752,-2.577836,7.374609,0.497278,0.877830,-0.259830,-7.619394,-70.542800,-20.171852
41556,,10.783383,-2.381754,7.432712,0.564064,0.963836,-0.205649,-6.811199,-69.935986,-20.591515
41557,,10.926852,-2.116823,7.574164,0.566116,1.063375,-0.167906,-6.047042,-69.342799,-21.057697
41558,,11.118463,-2.078067,7.641405,0.526794,1.176261,-0.121792,-5.447856,-68.587589,-21.266559
41559,,11.208045,-2.123428,7.860325,0.487896,1.300805,-0.069758,-4.901666,-67.850953,-21.550132
41560,,11.326371,-2.019141,7.934483,0.429465,1.423398,-0.009659,-4.570297,-66.914231,-21.593603
41561,,11.384387,-1.942711,7.844819,0.349276,1.541984,0.053361,-4.284298,-66.033144,-21.683550
41562,,11.438233,-1.870340,7.722530,0.264401,1.654952,0.131021,-4.241943,-64.947170,-21.522449
41563,,11.543386,-1.942277,7.610557,0.210799,1.764988,0.196659,-4.200865,-63.932474,-21.430324
41564,,11.437818,-2.039277,7.677977,0.187144,1.864247,0.265561,-4.336191,-62.719843,-21.105070
41565,,11.534917,-2.082377,7.810543,0.185611,1.944947,0.337243,-4.433365,-61.596051,-20.871046
41566,,11.724507,-2.141908,7.741140,0.183024,2.040828,0.403466,-4.672427,-60.276763,-20.406837
41567,,11.784599,-2.199407,7.733148,0.189488,2.140724,0.475730,-4.853660,-59.033880,-20.067071
41568,,11.787831,-2.131308,7.817982,0.186974,2.230892,0.542383,-5.159681,-57.601886,-19.492684
41569,,11.862704,-2.036763,7.785419,0.171241,2.313640,0.604847,-5.403578,-56.252017,-19.080456
41570,,11.763474,-1.803363,7.771706,0.115136,2.403496,0.666124,-5.778907,-54.719166,-18.574066
41571,,11.679630,-1.885920,7.672271,0.058306,2.470763,0.725926,-6.112237,-53.270030,-18.116503
41572,,11.698151,-1.996697,7.600226,0.043996,2.527089,0.784883,-6.538106,-51.665107,-17.581192
41573,,11.602717,-1.915344,7.658842,0.056522,2.591014,0.833963,-6.875352,-50.136846,-17.100506
41574,,11.368392,-1.747989,7.545120,0.048813,2.629815,0.882749,-7.285914,-48.474149,-16.560590
41575,,11.273606,-1.584349,7.365412,0.032281,2.660338,0.918542,-7.622210,-46.896374,-16.076188
41576,,11.124469,-1.622626,7.198733,0.025038,2.695470,0.947092,-8.011335,-45.200548,-15.558091
41577,,10.844016,-1.669902,7.133901,0.045005,2.714927,0.960517,-8.301421,-43.584505,-15.101703
41578,,10.710876,-1.663211,7.077946,0.079158,2.719207,0.973146,-8.611539,-41.884361,-14.624378
41579,,10.559188,-1.484001,7.044721,0.092440,2.721224,0.982156,-8.835639,-40.259707,-14.197490
41580,,10.319324,-1.355561,6.891618,0.083776,2.736517,0.993956,-9.101210,-38.560894,-13.754229
41581,,9.751196,-1.242059,6.963539,0.089726,2.736211,0.995336,-9.289864,-36.923950,-13.356483
41582,,9.564281,-1.122166,6.994405,0.071701,2.695951,0.989651,-9.519036,-35.261937,-12.951403
41583,,9.462377,-1.014338,6.915079,0.029426,2.675685,0.988794,-9.707865,-33.657552,-12.581873
41584,,9.235380,-0.936404,6.765512,-0.024773,2.662559,0.995126,-9.957166,-32.027085,-12.203803
41585,,8.841732,-1.077195,6.616166,-0.059482,2.654695,0.993946,-10.168001,-30.431681,-11.856335
41586,,8.354066,-1.169543,6.623674,-0.067923,2.619245,0.992081,-10.408228,-28.839123,-11.506494
41587,,8.212786,-1.197246,6.569871,-0.084190,2.563466,1.003878,-10.612906,-27.291798,-11.166769
41588,,8.082703,-1.136218,6.559608,-0.122211,2.535671,1.031474,-10.869605,-25.753920,-10.809358
41589,,7.670166,-1.117157,6.610811,-0.183029,2.517061,1.081182,-11.127284,-24.221747,-10.439597
41590,,7.253891,-0.991614,6.722368,-0.253078,2.487081,1.135265,-11.456763,-22.710090,-10.040414
41591,,6.978667,-0.933730,6.626244,-0.350643,2.442857,1.189483,-11.810512,-21.203427,-9.622606
41592,,6.793246,-0.962218,6.299438,-0.442127,2.400226,1.255832,-12.244675,-19.733174,-9.171943
41593,,6.315992,-0.891231,6.151398,-0.528089,2.379609,1.319543,-12.697350,-18.240306,-8.700245
41594,,5.948190,-1.086193,5.820676,-0.583363,2.330732,1.369272,-13.200597,-16.798670,-8.208937
41595,,5.695754,-1.360227,5.498133,-0.588419,2.288536,1.398069,-13.671691,-15.338807,-7.712836
41596,,5.280793,-1.741266,5.120773,-0.526164,2.248704,1.415368,-14.118608,-13.938518,-7.217187
41597,,4.786732,-1.921200,4.831582,-0.402693,2.179526,1.423456,-14.459893,-12.528667,-6.719522
41598,,4.351999,-1.924016,4.812331,-0.239343,2.097569,1.412945,-14.719653,-11.214763,-6.227733
41599,,4.001571,-1.864953,4.762719,-0.067824,2.004681,1.396132,-14.845112,-9.901666,-5.736692
41600,,3.650239,-1.682689,4.781421,0.093424,1.901517,1.356433,-14.891569,-8.708103,-5.259408
41601,,3.313085,-1.275832,4.807320,0.192129,1.788069,1.309721,-14.844397,-7.526964,-4.789936
41602,,2.834374,-0.934009,4.882374,0.229668,1.695218,1.258552,-14.790512,-6.466562,-4.339407
41603,,2.277495,-0.733023,5.065524,0.233225,1.587815,1.177078,-14.697533,-5.416754,-3.914086
41604,,1.866279,-0.578580,5.273832,0.218429,1.461787,1.081518,-14.626738,-4.514522,-3.527209
41605,,1.615319,-0.586919,5.395032,0.186044,1.337460,0.980169,-14.541903,-3.633149,-3.173412
41606,,1.442936,-0.518243,5.542156,0.148304,1.212957,0.870122,-14.492454,-2.900299,-2.866656
41607,,1.286702,-0.418048,5.598159,0.095119,1.096077,0.760326,-14.446454,-2.185046,-2.599126
41608,,0.869728,-0.324869,5.553828,0.029276,0.988873,0.647153,-14.451672,-1.608222,-2.383259
41609,,0.499289,-0.330129,5.526820,0.019864,0.852241,0.534013,-14.441045,-1.060738,-2.206366
41610,,0.418672,-0.394980,5.628668,0.001535,0.704505,0.444472,-14.453757,-0.668779,-2.061898
41611,,0.467686,-0.704558,6.008510,-0.027489,0.602884,0.361558,-14.467115,-0.284292,-1.945183
41612,,0.531761,-0.972927,6.531876,-0.040889,0.511480,0.288361,-14.499264,-0.019562,-1.859423
41613,,0.576152,-1.068544,6.768890,-0.047303,0.460984,0.209032,-14.522894,0.264402,-1.807283
41614,,0.329137,-1.147125,6.893749,-0.024865,0.404933,0.127295,-14.543347,0.448498,-1.795378
41615,,0.218762,-1.187756,7.068405,0.019347,0.336199,0.052700,-14.529061,0.640774,-1.812123
41616,,0.077846,-1.136028,7.273616,0.060725,0.254629,-0.013152,-14.499031,0.723300,-1.856024
41617,,0.117660,-0.792515,7.479476,0.048276,0.170451,-0.075897,-14.468868,0.805195,-1.920185
41618,,0.140858,-0.306957,7.801034,-0.041259,0.104137,-0.132460,-14.495296,0.789343,-2.008023
41619,,0.176348,0.397095,8.240075,-0.272643,0.042141,-0.197202,-14.649702,0.782480,-2.121086
41620,,0.382588,0.921684,8.179645,-0.693467,-0.012637,-0.247232,-15.045061,0.686455,-2.254352
41621,,0.308860,1.218632,8.056192,-1.252566,-0.052217,-0.294160,-15.761092,0.611059,-2.406503
41622,,0.105657,1.731147,8.059154,-1.949129,-0.141094,-0.345942,-16.868202,0.426582,-2.570471
41623,,0.161078,2.210643,8.248444,-2.860973,-0.241626,-0.385588,-18.505004,0.225862,-2.736429
41624,,0.246294,3.059538,8.440991,-4.086187,-0.365229,-0.367585,-20.825720,-0.091133,-2.858643
41625,,0.363806,4.817379,9.307632,-5.747754,-0.512197,-0.307644,-24.115362,-0.431160,-2.906769
41626,,0.952359,6.003117,8.819384,-7.971704,-0.568267,-0.213477,-28.648190,-0.824251,-2.862987
41627,,1.466924,6.012793,6.938908,-10.390873,-0.498020,-0.114731,-34.599977,-1.102674,-2.766590
41628,,1.703849,4.958494,4.409041,-12.787114,-0.387162,0.004919,-41.876524,-1.322096,-2.614968
41629,,1.785203,2.910618,1.376467,-14.873972,-0.250590,0.160052,-50.399262,-1.355836,-2.445059
41630,,1.843620,0.435041,-1.712890,-16.541175,-0.058145,0.346423,-59.819289,-1.260331,-2.290610
41631,,1.557721,-2.086060,-4.957470,-17.633365,0.162632,0.527763,-69.919976,-0.946867,-2.243687
41632,,0.742560,-4.558763,-8.212004,-18.094181,0.324967,0.739790,-80.235059,-0.538610,-2.302274
41633,,0.271499,-6.898845,-11.317261,-17.705380,0.366600,0.892584,-90.375350,-0.010921,-2.466988
41634,,0.279857,-10.072037,-13.785044,-16.760830,0.445627,0.960525,-99.951671,0.467085,-2.763312
41635,,-0.361568,-14.487089,-14.841575,-14.953050,0.505656,0.872419,-108.520493,0.882182,-3.164758
41636,,-0.728260,-17.875742,-14.355267,-12.353656,0.484342,0.664373,-115.601350,1.086535,-3.563686
41637,,-0.652839,-18.362846,-12.788500,-9.417416,0.439766,0.427175,-121.000374,1.185170,-3.900138
41638,,-0.415689,-16.806855,-11.210026,-6.856031,0.390287,0.240164,-124.938257,1.137535,-4.164131
41639,,-0.455107,-14.561875,-9.702430,-4.731482,0.357992,0.080506,-127.649426,1.056115,-4.355754
41640,,-0.403685,-11.614849,-8.240916,-3.218355,0.298427,-0.007744,-129.498876,0.906644,-4.488119
41641,,-0.068119,-9.179380,-7.612400,-2.234212,0.209446,-0.037056,-130.776706,0.815935,-4.565336
41642,,0.000526,-8.068175,-7.596583,-1.720861,0.163905,-0.050190,-131.765360,0.694772,-4.618145
41643,,-0.138005,-8.126505,-8.086081,-1.302241,0.103829,-0.059302,-132.508289,0.632582,-4.638701
41644,,-0.435418,-9.118087,-8.705092,-0.805645,0.052440,-0.097822,-132.972358,0.534937,-4.624041
41645,,-0.530216,-9.894552,-8.926832,-0.101484,-0.010749,-0.152185,-133.026497,0.478305,-4.559331
41646,,-0.078965,-9.662053,-8.652207,0.647269,-0.043258,-0.192539,-132.657404,0.380391,-4.467291
41647,,0.059176,-9.019931,-8.299397,1.254301,-0.055337,-0.208894,-131.934673,0.316138,-4.362504
41648,,0.166633,-8.620502,-8.040829,1.781891,-0.065425,-0.229781,-130.915422,0.209653,-4.248188
41649,,0.224319,-8.381988,-7.644891,2.195678,-0.067870,-0.254233,-129.653594,0.126598,-4.123432
41650,,0.201961,-8.448022,-7.472938,2.585714,-0.048544,-0.275041,-128.174789,-0.010171,-4.003585
41651,,-0.072612,-9.063818,-7.658362,3.064306,-0.059488,-0.325610,-126.415821,-0.135051,-3.862357
41652,,0.018559,-10.287146,-8.087086,3.797867,-0.064654,-0.412724,-124.244234,-0.336989,-3.696047
41653,,-0.104858,-11.768736,-8.945550,4.945239,-0.051505,-0.528100,-121.408898,-0.572439,-3.505920
41654,,-0.244827,-13.636582,-9.666121,6.485384,-0.074797,-0.678004,-117.701288,-0.918208,-3.277541
41655,,-0.138434,-14.683431,-10.208861,8.403641,-0.109118,-0.833360,-112.888029,-1.320477,-3.015341
41656,,-0.165247,-15.223721,-11.913068,10.696145,-0.144561,-0.989429,-106.776297,-1.852644,-2.745652
41657,,-0.274036,-15.713771,-12.325016,13.110410,-0.159813,-1.172159,-99.270268,-2.483695,-2.502881
41658,,0.607142,-14.198263,-13.036455,15.497948,-0.190360,-1.227659,-90.420333,-3.199751,-2.336273
41659,,1.121081,-11.224624,-12.811387,17.597138,-0.108868,-1.218785,-80.334925,-3.898500,-2.327571
41660,,1.067808,-7.366539,-11.262723,19.052978,-0.094999,-1.132792,-69.451926,-4.563405,-2.447418
41661,,1.400681,-3.036846,-9.352016,19.914390,-0.033683,-1.007163,-58.018543,-5.088275,-2.682763
41662,,1.832945,0.102400,-6.847031,20.120606,0.130331,-0.881750,-46.515731,-5.469019,-3.055904
41663,,2.193642,1.820003,-3.779982,19.599860,0.362028,-0.731869,-35.238967,-5.587386,-3.507031
41664,,1.948300,4.602144,0.470327,18.414265,0.573209,-0.687339,-24.701553,-5.532281,-4.018126
41665,,1.026719,8.304728,4.614413,16.376862,0.622292,-0.610516,-15.272419,-5.319027,-4.467688
41666,,0.269966,11.766874,8.568300,13.283596,0.608187,-0.476413,-7.679455,-5.067856,-4.809326
41667,,-0.134468,13.812325,11.560542,9.623565,0.511185,-0.325455,-2.144236,-4.794757,-5.018923
41668,,-0.225952,14.163453,13.364346,5.859297,0.399982,-0.197832,1.198342,-4.601313,-5.136204
41669,,-0.169347,11.137282,13.132334,2.665281,0.319208,-0.138351,2.734336,-4.418695,-5.207731
41670,,-0.030885,5.898395,11.691974,0.749654,0.290575,-0.198042,3.168782,-4.278809,-5.312245
41671,,0.768260,1.454910,10.132615,0.025335,0.165478,-0.200416,3.194542,-4.180703,-5.420358
41672,,1.126737,-0.952907,9.782692,0.231231,0.118793,-0.204823,3.337446,-4.136790,-5.532841
41673,,1.204174,-1.504093,9.661107,0.721532,0.005415,-0.175831,3.761264,-4.130414,-5.631910
41674,,1.330660,-0.608739,9.658422,1.161616,-0.052984,-0.119263,4.431395,-4.186440,-5.701721
41675,,1.076275,1.256858,9.721507,1.304396,-0.064376,-0.049316,5.184215,-4.223833,-5.731574
41676,,0.851217,2.937588,10.021973,1.044480,-0.050917,-0.014723,5.782428,-4.282673,-5.742239
41677,,0.894881,3.422591,10.018034,0.503913,-0.016009,0.021746,6.073449,-4.296134,-5.729348
41678,,0.841297,2.426808,9.584402,0.007594,0.023115,0.048745,6.078024,-4.315933,-5.699201
41679,,1.008210,1.370763,9.284384,-0.218920,0.002139,0.065350,5.952930,-4.321705,-5.660328
41680,,1.095746,0.983131,9.347179,-0.270409,0.002225,0.087985,5.797969,-4.355141,-5.608877
41681,,1.177132,0.544708,9.243569,-0.169836,-0.009513,0.099891,5.699516,-4.369371,-5.550907
41682,,1.130190,0.528353,9.146567,0.003448,-0.025068,0.095086,5.700879,-4.418480,-5.496983
41683,,1.242827,0.900562,9.148009,0.150635,-0.037671,0.083004,5.786842,-4.447802,-5.450290
41684,,0.943837,1.489404,9.303608,0.158730,-0.066076,0.062487,5.878391,-4.518456,-5.417503
41685,,1.011439,1.810228,9.271139,0.054157,-0.107864,0.039494,5.911289,-4.585359,-5.399909
41686,,1.047709,2.113982,9.283087,-0.152152,-0.137925,0.015168,5.828187,-4.693813,-5.398351
41687,,1.035934,1.929607,9.226608,-0.380505,-0.168284,-0.000773,5.614159,-4.792822,-5.407057
41688,,1.094162,1.283190,8.997346,-0.524291,-0.192420,-0.019436,5.321303,-4.930116,-5.427609
41689,,1.135356,0.643494,8.832627,-0.494979,-0.216017,-0.037042,5.043669,-5.054576,-5.458646
41690,,1.222600,0.163558,8.653348,-0.334548,-0.235634,-0.047397,4.861316,-5.215096,-5.496404
41691,,1.217959,0.211158,8.635489,-0.121779,-0.263358,-0.053393,4.798680,-5.365995,-5.538366
41692,,1.257837,0.680436,8.644230,0.005848,-0.290716,-0.056060,4.811426,-5.557538,-5.583529
41693,,1.293407,1.229201,8.514857,0.001705,-0.308190,-0.050482,4.819850,-5.734198,-5.625983
41694,,1.261753,1.539774,8.423999,-0.121295,-0.329304,-0.047495,4.760060,-5.948098,-5.668102
41695,,1.336517,1.443675,8.216215,-0.270716,-0.347553,-0.042083,4.612345,-6.147737,-5.707225
41696,,1.409460,1.027960,7.978150,-0.353211,-0.372713,-0.037591,4.420619,-6.386961,-5.744744
41697,,1.553213,0.762596,7.777828,-0.363073,-0.404470,-0.034476,4.219942,-6.619703,-5.780727
41698,,1.647780,0.601002,7.559413,-0.333594,-0.448299,-0.022758,4.039329,-6.903096,-5.811487
41699,,1.666192,0.612088,7.311064,-0.287978,-0.490266,-0.015845,3.880947,-7.185849,-5.838736
41700,,1.802446,0.758187,7.040239,-0.283093,-0.531842,0.001014,3.728099,-7.518396,-5.857640
41701,,1.779873,0.778095,6.814262,-0.310317,-0.579934,0.019986,3.554692,-7.853884,-5.865970
41702,,1.827829,0.724033,6.576301,-0.365826,-0.646067,0.039114,3.352245,-8.253646,-5.865066
41703,,1.929498,0.481147,6.515167,-0.387448,-0.704214,0.062791,3.131373,-8.661678,-5.850373
41704,,1.996105,0.297904,6.470776,-0.355960,-0.753243,0.080316,2.931146,-9.124505,-5.826212
41705,,2.116551,-0.151517,6.373851,-0.226361,-0.798246,0.098932,2.798935,-9.587291,-5.790544
41706,,2.240846,-0.284475,6.404362,-0.019618,-0.840979,0.112827,2.787392,-10.101758,-5.748180
41707,,2.462812,0.016546,6.452612,0.156686,-0.885626,0.137300,2.870407,-10.615625,-5.692309
41708,,2.650636,0.510324,6.307584,0.223231,-0.910356,0.179698,2.989689,-11.172684,-5.614170
41709,,2.499143,1.009491,6.171803,0.179911,-0.968876,0.213749,3.076946,-11.736710,-5.517921
41710,,2.600519,1.049474,6.237398,0.081448,-1.038392,0.229495,3.108891,-12.369742,-5.416048
41711,,2.705296,0.878750,6.599558,0.024256,-1.111342,0.227354,3.104241,-13.015833,-5.316661
41712,,2.983398,0.592994,6.954724,0.017628,-1.178720,0.223286,3.099774,-13.729763,-5.222658
41713,,3.285345,0.413145,7.129262,0.070883,-1.235884,0.214843,3.122131,-14.446742,-5.134129
41714,,3.629856,0.482567,7.250214,0.129038,-1.290792,0.214455,3.181415,-15.225557,-5.049161
41715,,3.925121,0.730955,7.208123,0.121689,-1.349734,0.218770,3.231163,-16.007950,-4.962711
41716,,4.181949,0.841500,7.207892,0.067209,-1.427367,0.219722,3.253399,-16.866589,-4.879964
41717,,4.402787,0.790782,7.138653,-0.004927,-1.507860,0.209076,3.231420,-17.739194,-4.804466
41718,,4.501657,0.690403,7.495245,-0.044133,-1.603948,0.180132,3.196721,-18.699220,-4.750562
41719,,4.996063,0.448559,7.783144,-0.089131,-1.697370,0.146067,3.138109,-19.678170,-4.717565
41720,,5.506795,0.336095,8.064184,-0.122879,-1.743565,0.135753,3.066620,-20.718242,-4.692986
41721,,5.885031,0.446715,8.415219,-0.225371,-1.763730,0.150607,2.927329,-21.735220,-4.655792
41722,,6.454366,0.508213,8.375481,-0.447017,-1.767792,0.215055,2.648360,-22.793255,-4.576776
41723,,6.807437,0.826187,8.120416,-0.780621,-1.749749,0.324261,2.141914,-23.805989,-4.418816
41724,,6.689996,0.964909,7.747267,-1.190655,-1.738775,0.448773,1.364729,-24.852571,-4.171146
41725,,6.294835,0.330967,7.828093,-1.520992,-1.758474,0.547539,0.354361,-25.867991,-3.839171
41726,,6.315014,-0.933735,7.969943,-1.631430,-1.838816,0.603081,-0.746381,-26.965423,-3.450347
41727,,6.970913,-1.979728,8.039098,-1.543068,-1.899766,0.628711,-1.828271,-28.048809,-3.015027
41728,,7.694439,-2.676193,7.819930,-1.299892,-1.916490,0.608847,-2.782672,-29.178663,-2.567686
41729,,8.028940,-2.351465,7.654257,-1.027771,-1.901258,0.565624,-3.588401,-30.251563,-2.123554
41730,,7.843413,-1.438980,7.497611,-0.898633,-1.877726,0.512185,-4.321468,-31.353782,-1.694680
41731,,7.543259,-0.802021,6.824807,-0.952668,-1.873570,0.478901,-5.089914,-32.404372,-1.266941
41732,,6.637902,-0.635872,6.766230,-1.018176,-1.880733,0.443747,-5.905486,-33.503865,-0.839690
41733,,6.205225,-1.101525,7.080394,-1.073001,-1.988874,0.370931,-6.745858,-34.616277,-0.431027
41734,,6.687348,-1.837100,7.496437,-1.030893,-2.110823,0.290289,-7.561862,-35.847236,-0.041135
41735,,7.547793,-2.372000,7.963219,-0.912365,-2.196601,0.209431,-8.298833,-37.080415,0.324851
41736,,8.333777,-2.423629,8.385981,-0.742789,-2.198876,0.118365,-8.927284,-38.367563,0.653312
41737,,8.697226,-1.995019,8.542044,-0.640822,-2.157012,0.017640,-9.460553,-39.589155,0.922616
41738,,8.573156,-1.441230,8.350819,-0.673786,-2.089399,-0.058295,-9.997038,-40.826532,1.151154
41739,,7.968211,-1.348727,7.935049,-0.771098,-2.024876,-0.107073,-10.566650,-41.982226,1.349379
41740,,7.046445,-1.762846,7.826443,-0.788471,-2.027401,-0.154682,-11.166640,-43.189985,1.868891
41741,,6.873758,-2.330018,8.085112,-0.679877,-2.126719,-0.217280,-11.669208,-44.412265,2.036980
41742,,7.873124,-2.702525,8.427746,-0.494150,-2.212739,-0.281674,-12.082212,-45.734753,2.464415
41743,,8.787016,-2.629771,8.762102,-0.280718,-2.208527,-0.338849,-12.323600,-47.015852,2.580307
41744,,9.172406,-2.113871,8.813329,-0.145227,-2.159384,-0.387746,-12.487643,-48.318843,2.889746
41745,,9.279339,-1.517615,8.713131,-0.129081,-2.098826,-0.444000,-12.575363,-49.551231,2.912459
41746,,9.293893,-1.105827,8.360325,-0.232268,-2.045346,-0.501043,-12.706044,-50.802951,3.067983
41747,,9.481841,-0.829708,7.893032,-0.432097,-2.009562,-0.556397,-12.883235,-51.999692,2.982237
41748,,9.556601,-0.914176,7.419960,-0.672358,-1.958303,-0.590118,-13.192700,-53.213156,3.022023
41749,,9.509221,-1.232068,7.243612,-0.881199,-1.907869,-0.620153,-13.571028,-54.362195,2.869338
41750,,9.380965,-1.733836,7.167723,-1.005667,-1.889336,-0.631250,-14.036115,-55.542784,2.838536
41751,,9.510353,-2.208473,7.145255,-1.040903,-1.893251,-0.640512,-14.501464,-56.687880,2.684745
41752,,9.847537,-2.515743,7.110857,-0.994382,-1.886378,-0.652260,-14.957344,-57.869562,2.631157
41753,,10.047459,-2.559733,6.957701,-0.910355,-1.846906,-0.675714,-15.321412,-58.995504,2.450239
41754,,10.062980,-2.473528,6.762140,-0.838076,-1.790150,-0.693840,-15.637856,-60.129533,2.330783
41755,,10.025234,-2.510307,6.485473,-0.767155,-1.729060,-0.701749,-15.868861,-61.195529,2.095446
41756,,9.957538,-2.628146,6.134745,-0.681372,-1.665782,-0.713038,-16.040013,-62.263025,1.902613
41757,,9.854745,-2.629543,5.926842,-0.582367,-1.616047,-0.721098,-16.102258,-63.270528,1.601164
41758,,9.894935,-2.618084,5.669903,-0.479253,-1.601175,-0.723040,-16.108835,-64.302531,1.336731
41759,,10.158651,-2.399680,5.827554,-0.375951,-1.572684,-0.714157,-16.021082,-65.285076,1.005423
41760,,10.054509,-2.329922,6.169701,-0.276957,-1.512317,-0.688636,-15.892622,-66.260400,0.721717
41761,,9.808160,-2.274968,6.441910,-0.184388,-1.482297,-0.679047,-15.667823,-67.186955,0.365689
41762,,9.873499,-2.118017,6.575528,-0.093806,-1.459627,-0.667752,-15.396955,-68.126159,0.036170
41763,,10.100775,-1.811305,6.635419,-0.038314,-1.407589,-0.672638,-15.013905,-69.009016,-0.395275
41764,,10.223952,-1.519495,6.622067,-0.033549,-1.331401,-0.676016,-14.581200,-69.873250,-0.866041
41765,,10.154507,-1.142143,6.506096,-0.097895,-1.247087,-0.679413,-14.082931,-70.665491,-1.451378
41766,,10.092736,-0.834062,6.368463,-0.205849,-1.159924,-0.682921,-13.582080,-71.428916,-2.100629
41767,,10.005184,-0.604474,6.184402,-0.357807,-1.078063,-0.684775,-13.064379,-72.124051,-2.857942
41768,,10.024359,-0.527893,5.986186,-0.521738,-1.000556,-0.679255,-12.586937,-72.790894,-3.669511
41769,,9.975079,-0.505382,5.719736,-0.698081,-0.918562,-0.656116,-12.154990,-73.389231,-4.535501
41770,,9.934490,-0.429236,5.543775,-0.892055,-0.852506,-0.623934,-11.837128,-73.959921,-5.396091
41771,,9.836862,-0.496615,5.285273,-1.114137,-0.789722,-0.573099,-11.669767,-74.473557,-6.229879
41772,,9.837754,-0.729295,4.946042,-1.326573,-0.748081,-0.514634,-11.703434,-74.968806,-6.988195
41773,,9.852481,-1.015340,4.668066,-1.505589,-0.714438,-0.446230,-11.942671,-75.425608,-7.629528
41774,,9.869062,-1.264655,4.441601,-1.657286,-0.684932,-0.378559,-12.398555,-75.868298,-8.147208
41775,,9.956106,-1.501799,4.380141,-1.779941,-0.654098,-0.305330,-13.070472,-76.276133,-8.502211
41776,,9.973774,-1.767385,4.291175,-1.860955,-0.610992,-0.237942,-13.940326,-76.659492,-8.710376
41777,,10.022254,-2.133485,4.168917,-1.872273,-0.556639,-0.177909,-14.939206,-76.997412,-8.782792
41778,,10.039330,-2.478769,3.998840,-1.814257,-0.499741,-0.126989,-16.025090,-77.301533,-8.745670
41779,,10.026299,-2.700062,3.839124,-1.711042,-0.436150,-0.084663,-17.125942,-77.558433,-8.618793
41780,,10.071262,-2.989872,3.624637,-1.569036,-0.377860,-0.042744,-18.245386,-77.778597,-8.406076
41781,,10.056532,-3.119933,3.471160,-1.396477,-0.317513,-0.006068,-19.312989,-77.955397,-8.129075
41782,,10.005718,-3.263120,3.247111,-1.202380,-0.255169,0.029382,-20.346390,-78.091502,-7.791483
41783,,9.993572,-3.307927,3.136973,-0.998496,-0.198655,0.058988,-21.272764,-78.189230,-7.426080
41784,,10.042446,-3.221000,3.074992,-0.799298,-0.135822,0.086369,-22.133733,-78.245423,-7.034642
41785,,10.019908,-3.095753,3.024849,-0.623098,-0.077834,0.126450,-22.906648,-78.262113,-6.606455
41786,,9.987183,-2.849428,2.981412,-0.473908,-0.015370,0.155954,-23.642573,-78.235191,-6.152335
41787,,9.927497,-2.580722,3.015617,-0.359408,0.041689,0.196641,-24.307162,-78.170744,-5.680402
41788,,9.826289,-2.311542,2.934129,-0.305438,0.091374,0.237025,-25.024182,-78.065107,-5.143633
41789,,9.724188,-2.091550,2.920801,-0.276324,0.137056,0.276628,-25.710210,-77.929322,-4.600772
41790,,9.657409,-1.874705,2.853861,-0.286148,0.174331,0.313169,-26.477648,-77.757749,-4.002887
41791,,9.633226,-1.727211,2.837421,-0.309631,0.200022,0.351025,-27.250870,-77.567609,-3.389638
41792,,9.766806,-1.615338,2.840643,-0.350225,0.235162,0.375093,-28.085144,-77.344292,-2.755444
41793,,9.854597,-1.429958,2.859904,-0.423248,0.264230,0.393980,-28.896288,-77.106429,-2.169032
41794,,9.941058,-1.191853,2.801357,-0.546451,0.309631,0.404151,-29.760131,-76.833037,-1.623598
41795,,10.000160,-0.981035,2.689697,-0.731435,0.345546,0.413441,-30.635524,-76.545534,-1.151360
41796,,9.984995,-0.927201,2.554317,-0.950117,0.379278,0.416819,-31.609741,-76.230168,-0.725908
41797,,9.876942,-0.978554,2.441634,-1.164766,0.405658,0.420361,-32.612976,-75.907908,-0.376532
41798,,9.750539,-1.141075,2.333084,-1.333178,0.415655,0.419177,-33.699102,-75.571044,-0.061743
41799,,9.618845,-1.403349,2.252625,-1.448399,0.407764,0.420022,-34.799228,-75.244976,0.220839
41800,,9.528963,-1.682924,2.148446,-1.491737,0.395242,0.429854,-35.956363,-74.911474,0.518689
41801,,9.411711,-1.943042,2.100685,-1.467873,0.365845,0.428459,-37.074592,-74.599265,0.809315
41802,,9.316660,-2.160897,2.062683,-1.387923,0.344045,0.433676,-38.183885,-74.284935,1.121296
41803,,9.273244,-2.362338,1.992320,-1.262156,0.307613,0.426667,-39.201504,-73.996721,1.430720
41804,,9.309385,-2.531857,1.953843,-1.096252,0.278470,0.422993,-40.160855,-73.712318,1.760621
41805,,9.306422,-2.702313,1.971397,-0.892829,0.250607,0.410137,-40.971741,-73.452455,2.075988
41806,,9.309717,-2.811389,1.937233,-0.663884,0.225646,0.393167,-41.671472,-73.199362,2.395589
41807,,9.250556,-2.826003,1.935530,-0.429571,0.202731,0.369305,-42.190171,-72.973481,2.683791
41808,,9.281093,-2.765508,1.944440,-0.197819,0.186330,0.347336,-42.586774,-72.752819,2.965712
41809,,9.237652,-2.688206,1.969859,0.009448,0.168267,0.311204,-42.801580,-72.562919,3.199718
41810,,9.216998,-2.469757,1.964226,0.182134,0.150960,0.285598,-42.931188,-72.380315,3.431206
41811,,9.210785,-2.227387,1.969993,0.299667,0.130340,0.256804,-42.947303,-72.227250,3.631636
41812,,9.259733,-2.040647,1.963827,0.378575,0.114100,0.223492,-42.923738,-72.084313,3.822720
41813,,9.289372,-1.840327,1.963209,0.415674,0.099464,0.193286,-42.825686,-71.969032,3.973299
41814,,9.280090,-1.713592,2.030932,0.422840,0.089381,0.162403,-42.724807,-71.860753,4.108052
41815,,9.309908,-1.638471,2.034082,0.405102,0.077452,0.131818,-42.579594,-71.778782,4.202777
41816,,9.309638,-1.594039,2.074467,0.365940,0.071817,0.098365,-42.449165,-71.703374,4.274615
41817,,9.319057,-1.576204,2.096115,0.314730,0.061140,0.071199,-42.297743,-71.651852,4.308318
41818,,9.324776,-1.592179,2.068235,0.262510,0.059143,0.043044,-42.170708,-71.603742,4.325830
41819,,9.313170,-1.632847,2.109590,0.208843,0.050178,0.018058,-42.025334,-71.577334,4.301969
41820,,9.295673,-1.683781,2.059240,0.169093,0.043458,-0.004415,-41.907353,-71.554632,4.267965
41821,,9.325216,-1.718447,2.042116,0.137936,0.036316,-0.021284,-41.768570,-71.549136,4.208205
41822,,9.346234,-1.723044,2.040665,0.121261,0.029391,-0.041062,-41.646935,-71.546867,4.143658
41823,,9.381021,-1.802726,2.106871,0.107745,0.020585,-0.056716,-41.497937,-71.561489,4.054881
41824,,9.378678,-1.842424,2.084114,0.100927,0.016767,-0.066821,-41.368178,-71.574770,3.968949
41825,,9.394050,-1.838354,2.139429,0.095097,0.005454,-0.080537,-41.212431,-71.604766,3.865427
41826,,9.457972,-1.847000,2.100178,0.089125,0.004109,-0.088458,-41.074549,-71.631918,3.763557
41827,,9.463747,-1.800310,2.149322,0.087222,-0.005801,-0.098902,-40.911308,-71.673507,3.647411
41828,,9.442725,-1.838373,2.152017,0.078244,-0.006879,-0.104848,-40.769449,-71.711786,3.535853
41829,,9.423713,-1.816457,2.159090,0.074183,-0.014028,-0.111133,-40.605695,-71.761317,3.411342
41830,,9.429548,-1.839457,2.222933,0.065962,-0.018733,-0.116423,-40.467389,-71.809227,3.296935
41831,,9.421235,-1.857688,2.234145,0.057138,-0.014508,-0.117796,-40.303618,-71.861228,3.162186
41832,,9.390656,-1.853860,2.230531,0.048805,-0.018055,-0.127658,-40.157778,-71.913077,3.031521
41833,,9.394635,-1.852623,2.250922,0.038463,-0.020396,-0.127274,-39.996978,-71.970923,2.888714
41834,,9.437454,-1.907406,2.210380,0.030238,-0.018240,-0.134091,-39.850546,-72.025232,2.744123
41835,,9.387300,-1.904401,2.234146,0.030299,-0.020578,-0.144404,-39.669429,-72.089184,2.575125
41836,,9.406135,-1.834775,2.289734,0.022876,-0.022436,-0.149030,-39.509384,-72.150747,2.412490
41837,,9.421303,-1.801072,2.297464,0.005451,-0.024438,-0.156016,-39.328480,-72.220315,2.228871
41838,,9.438150,-1.850063,2.342914,-0.021192,-0.023712,-0.164713,-39.170494,-72.288019,2.042350
41839,,9.409989,-1.855968,2.358481,-0.041233,-0.024035,-0.169395,-38.994474,-72.361905,1.835915
41840,,9.412961,-1.900368,2.350675,-0.050280,-0.024819,-0.176826,-38.834143,-72.434251,1.630022
41841,,9.372161,-1.913439,2.334294,-0.063366,-0.030858,-0.178680,-38.662286,-72.514143,1.414814
41842,,9.405442,-1.984203,2.280926,-0.070561,-0.030145,-0.187520,-38.500746,-72.592407,1.195150
41843,,9.392739,-1.993635,2.347592,-0.065655,-0.029680,-0.187817,-38.312236,-72.674629,0.961295
41844,,9.385621,-1.996516,2.333582,-0.063869,-0.034291,-0.190704,-38.142896,-72.755512,0.735696
41845,,9.378642,-1.999136,2.319384,-0.060923,-0.034557,-0.192622,-37.946301,-72.841184,0.496413
41846,,9.419346,-1.996372,2.360496,-0.061310,-0.036415,-0.191374,-37.773598,-72.922841,0.271282
41847,,9.424042,-1.979723,2.355773,-0.058697,-0.038513,-0.192096,-37.576855,-73.009660,0.033383
41848,,9.440288,-2.003530,2.355738,-0.058644,-0.039315,-0.189007,-37.404826,-73.091344,-0.191899
41849,,9.448210,-2.010585,2.393570,-0.055264,-0.038509,-0.189086,-37.206408,-73.176659,-0.429292
41850,,9.474697,-2.063176,2.376909,-0.052046,-0.040715,-0.183416,-37.036819,-73.256568,-0.647610
41851,,9.481123,-2.058773,2.393290,-0.049043,-0.041351,-0.183824,-36.841957,-73.340925,-0.877376
41852,,9.487572,-2.054371,2.409688,-0.039390,-0.042938,-0.180264,-36.668769,-73.420269,-1.092364
41853,,9.491143,-2.086081,2.378444,-0.035891,-0.042901,-0.177318,-36.474138,-73.502687,-1.313846
41854,,9.508839,-2.062800,2.404856,-0.031579,-0.040350,-0.172209,-36.302644,-73.577580,-1.522120
41855,,9.515081,-2.059165,2.421765,-0.030750,-0.038248,-0.168490,-36.109708,-73.654450,-1.738600
41856,,9.488352,-2.066349,2.435933,-0.026626,-0.038316,-0.159165,-35.951082,-73.723503,-1.927835
41857,,9.478327,-2.000339,2.406065,-0.029442,-0.033581,-0.149571,-35.778714,-73.791484,-2.121967
41858,,9.472618,-2.018560,2.414058,-0.031882,-0.027396,-0.139656,-35.638933,-73.848463,-2.295494
41859,,9.499447,-2.027412,2.425382,-0.039334,-0.021377,-0.130896,-35.485603,-73.904239,-2.475604
41860,,9.480733,-2.007795,2.429767,-0.045792,-0.014027,-0.115430,-35.375623,-73.946519,-2.626873
41861,,9.448589,-1.997150,2.403298,-0.056183,-0.013925,-0.106229,-35.261637,-73.990421,-2.776020
41862,,9.494135,-2.006933,2.387222,-0.064664,-0.006959,-0.093889,-35.187872,-74.021935,-2.902765
41863,,9.486822,-2.031593,2.396914,-0.073079,-0.000393,-0.080035,-35.109781,-74.050728,-3.024609
41864,,9.466605,-2.017472,2.402600,-0.075448,0.005384,-0.068617,-35.069632,-74.067897,-3.120767
41865,,9.446089,-2.004691,2.408325,-0.084476,0.002529,-0.055437,-35.034672,-74.087161,-3.204537
41866,,9.479638,-1.991604,2.410119,-0.100369,0.013172,-0.044636,-35.038878,-74.092568,-3.271421
41867,,9.480121,-1.990430,2.409192,-0.115712,0.012653,-0.035071,-35.043559,-74.100372,-3.332586
41868,,9.496060,-1.963679,2.337617,-0.134052,0.018017,-0.020467,-35.101451,-74.095387,-3.363668
41869,,9.486846,-1.996881,2.347899,-0.151802,0.021362,-0.011281,-35.155924,-74.091284,-3.394575
41870,,9.504165,-1.984776,2.297610,-0.164476,0.024478,0.000571,-35.258806,-74.076223,-3.396191
41871,,9.505012,-2.048541,2.291054,-0.171667,0.032267,0.008194,-35.343939,-74.060591,-3.407066
41872,,9.436627,-2.062684,2.263391,-0.171014,0.031697,0.016120,-35.468112,-74.036896,-3.389280
41873,,9.435107,-2.115607,2.235856,-0.158547,0.033447,0.023415,-35.568995,-74.015651,-3.375970
41874,,9.410207,-2.100520,2.221677,-0.136023,0.029859,0.029911,-35.697411,-73.988058,-3.335177
41875,,9.397758,-2.125780,2.211827,-0.115086,0.032651,0.038213,-35.797958,-73.962207,-3.296318
41876,,9.394675,-2.072440,2.218944,-0.090710,0.030622,0.043287,-35.921130,-73.929605,-3.234090
41877,,9.389251,-2.054164,2.177932,-0.075886,0.028877,0.049423,-36.021175,-73.901682,-3.172383
41878,,9.442398,-2.011714,2.202752,-0.068784,0.028984,0.055217,-36.152861,-73.865663,-3.087405
41879,,9.470029,-1.936435,2.192843,-0.067935,0.031065,0.058926,-36.260332,-73.833432,-3.013216
41880,,9.475131,-1.946996,2.134862,-0.078612,0.027005,0.058980,-36.405104,-73.796909,-2.921277
41881,,9.518993,-1.937307,2.170495,-0.091620,0.032108,0.063291,-36.531029,-73.762609,-2.841991
41882,,9.539288,-1.907023,2.192138,-0.100468,0.029619,0.061942,-36.688959,-73.723762,-2.749861
41883,,9.548627,-1.895893,2.203113,-0.111342,0.026795,0.057466,-36.822346,-73.693778,-2.674559
41884,,9.548750,-1.916310,2.224447,-0.117865,0.026505,0.058080,-36.986523,-73.657575,-2.587256
41885,,9.535900,-1.943803,2.214297,-0.117709,0.025259,0.062630,-37.132574,-73.626391,-2.502548
41886,,9.503696,-1.928266,2.259810,-0.116081,0.024131,0.065435,-37.309297,-73.588604,-2.399740
41887,,9.478465,-1.915765,2.246071,-0.109601,0.024400,0.064862,-37.454225,-73.556892,-2.311344
41888,,9.489627,-1.917758,2.277427,-0.097918,0.017910,0.066832,-37.629033,-73.521277,-2.198398
41889,,9.522479,-1.928405,2.301693,-0.089583,0.019748,0.064857,-37.767059,-73.491529,-2.105224
41890,,9.490360,-1.912506,2.347459,-0.079536,0.020042,0.067173,-37.927467,-73.454633,-1.998508
41891,,9.520475,-1.850684,2.358582,-0.070261,0.021807,0.058575,-38.041579,-73.426029,-1.918716
41892,,9.511867,-1.855032,2.418699,-0.065726,0.021339,0.056369,-38.174465,-73.392197,-1.833409
41893,,9.502329,-1.799494,2.486354,-0.066922,0.027449,0.046752,-38.261462,-73.365143,-1.779908
41894,,9.500850,-1.805325,2.487781,-0.072190,0.028977,0.039573,-38.362803,-73.333717,-1.729232
41895,,9.467379,-1.773969,2.514049,-0.080209,0.032963,0.031710,-38.427873,-73.309484,-1.706568
41896,,9.431519,-1.775967,2.491680,-0.089613,0.040373,0.018403,-38.492721,-73.280407,-1.704165
41897,,9.357367,-1.797438,2.546424,-0.096832,0.046835,0.012758,-38.522374,-73.256693,-1.728436
41898,,9.320847,-1.844742,2.496230,-0.098670,0.043578,0.002308,-38.563423,-73.231864,-1.756982
41899,,9.253955,-1.867491,2.491798,-0.095020,0.052790,0.001197,-38.567811,-73.209610,-1.806577
41900,,9.272067,-1.912030,2.438559,-0.084193,0.048635,-0.010789,-38.574336,-73.187115,-1.863447
41901,,9.306488,-1.974275,2.458554,-0.064978,0.051977,-0.021586,-38.528854,-73.173348,-1.947184
41902,,9.327359,-1.982141,2.455194,-0.047876,0.051459,-0.028334,-38.485611,-73.155752,-2.031445
41903,,9.346790,-1.976167,2.431399,-0.035487,0.052675,-0.037389,-38.399241,-73.147246,-2.140276
41904,,9.399230,-1.958754,2.411669,-0.031364,0.055614,-0.051650,-38.306820,-73.135925,-2.266607
41905,,9.430130,-1.931779,2.399146,-0.031745,0.054166,-0.052001,-38.195101,-73.131816,-2.399708
41906,,9.462139,-1.963761,2.378866,-0.037001,0.055719,-0.059181,-38.094094,-73.122946,-2.539973
41907,,9.493238,-1.936025,2.366236,-0.045968,0.054114,-0.063596,-37.973489,-73.122798,-2.690898
41908,,9.471005,-1.968938,2.349014,-0.051815,0.057143,-0.063797,-37.873065,-73.114771,-2.837172
