// Start Time: Unknown
// Update Rate: 100.0Hz
// Filter Profile: human (46.1)
// Firmware Version: 4.3.5
PacketCounter,SampleTimeFine,Acc_X,Acc_Y,Acc_Z,Gyr_X,Gyr_Y,Gyr_Z,Roll,Pitch,Yaw
40763,,9.515523,-1.378110,2.859895,-0.009015,-0.031315,-0.058343,-25.759071,-71.534676,-12.521891
40764,,9.560838,-1.404960,2.863161,-0.010205,-0.018308,-0.056808,-26.171224,-71.540502,-12.301034
40765,,9.600504,-1.413884,2.905179,-0.010009,-0.012167,-0.055404,-25.925722,-71.542441,-12.474512
40766,,9.666381,-1.446529,2.821378,-0.009130,-0.002372,-0.056496,-25.845441,-71.557796,-12.564657
40767,,9.708429,-1.462091,2.805836,-0.004140,0.008498,-0.052949,-25.772409,-71.566670,-12.634509
40768,,9.623766,-1.475747,2.835279,0.006551,0.019723,-0.043492,-25.686583,-71.567307,-12.721020
40769,,9.598102,-1.438695,2.802059,0.011485,0.016801,-0.036617,-25.623342,-71.568601,-12.771598
40770,,9.590768,-1.471968,2.757852,0.009005,0.025458,-0.035938,-25.543564,-71.564336,-12.850252
40771,,9.543962,-1.425627,2.733524,0.004443,0.033988,-0.025258,-25.484243,-71.553730,-12.906396
40772,,9.525579,-1.419853,2.685425,-0.007095,0.037809,-0.021345,-25.427314,-71.539426,-12.970697
40773,,9.499094,-1.385417,2.653769,-0.022577,0.039793,-0.019010,-25.396992,-71.525389,-13.008659
40774,,9.436951,-1.420072,2.618055,-0.035625,0.043954,-0.014836,-25.362139,-71.506280,-13.066929
40775,,9.452094,-1.478281,2.588869,-0.039064,0.043188,-0.014594,-25.344162,-71.490485,-13.106075
40776,,9.477374,-1.506208,2.547013,-0.033858,0.049371,-0.012151,-25.308655,-71.467895,-13.163980
40777,,9.437361,-1.496647,2.588206,-0.031273,0.047233,-0.012954,-25.294229,-71.451590,-13.195331
40778,,9.457678,-1.501933,2.503612,-0.024076,0.047246,-0.007294,-25.262341,-71.428897,-13.243520
40779,,9.464430,-1.459954,2.473103,-0.014718,0.040120,-0.008443,-25.256762,-71.417330,-13.259433
40780,,9.489966,-1.487807,2.430830,-0.013893,0.036120,-0.006213,-25.228912,-71.400129,-13.297214
40781,,9.488125,-1.421440,2.496702,-0.014997,0.031014,-0.004011,-25.251816,-71.396487,-13.281568
40782,,9.474815,-1.440454,2.490626,-0.020866,0.028070,-0.005624,-25.234749,-71.383314,-13.312192
40783,,9.474232,-1.440662,2.492723,-0.023395,0.022926,-0.001633,-25.282180,-71.387447,-13.275889
40784,,9.461381,-1.530997,2.503921,-0.015018,0.024114,-0.002354,-25.269657,-71.375530,-13.298183
40785,,9.455991,-1.508429,2.462896,0.001964,0.018455,0.002448,-25.323062,-71.384168,-13.242649
40786,,9.445623,-1.609610,2.495652,0.029771,0.019507,0.001014,-25.293385,-71.373816,-13.255965
40787,,9.484324,-1.617451,2.460951,0.074555,0.011345,-0.001325,-25.319999,-71.390483,-13.186912
40788,,9.443802,-1.539433,2.563334,0.106790,0.011742,-0.005049,-25.242518,-71.385635,-13.204105
40789,,9.444502,-1.409976,2.632216,0.120416,0.008275,-0.005825,-25.252436,-71.409768,-13.126750
40790,,9.483170,-1.344684,2.579358,0.116204,0.004226,-0.004618,-25.175679,-71.408705,-13.137486
40791,,9.471746,-1.305042,2.656710,0.103720,0.001947,-0.008539,-25.193938,-71.438401,-13.064443
40792,,9.467303,-1.350152,2.633412,0.087724,0.002847,-0.008060,-25.129164,-71.438895,-13.079751
40793,,9.492990,-1.379633,2.670149,0.080107,0.001363,-0.014006,-25.162744,-71.467819,-13.003064
40794,,9.480638,-1.395335,2.662448,0.082756,-0.008043,-0.011587,-25.103248,-71.474815,-13.015801
40795,,9.547716,-1.374357,2.664693,0.085434,-0.003666,-0.012517,-25.128727,-71.503102,-12.953273
40796,,9.544255,-1.293005,2.706410,0.076651,0.000586,-0.013756,-25.063047,-71.506133,-12.976233
40797,,9.477208,-1.236797,2.687314,0.053562,0.004657,-0.011735,-25.110046,-71.541611,-12.900916
40798,,9.490189,-1.286159,2.715556,0.033325,0.008785,-0.013295,-25.063910,-71.540274,-12.929427
40799,,9.531624,-1.304782,2.701550,0.017688,0.011511,-0.014092,-25.115202,-71.572241,-12.872205
40800,,9.514464,-1.370692,2.669867,0.019273,0.010796,-0.012813,-25.076370,-71.569725,-12.901501
40801,,9.478923,-1.437105,2.667822,0.027070,0.018159,-0.018555,-25.091902,-71.600672,-12.880156
40802,,9.501884,-1.455753,2.684117,0.055000,0.018464,-0.016871,-25.020610,-71.595170,-12.922096
40803,,9.499241,-1.441102,2.665226,0.075743,0.018722,-0.020857,-25.021485,-71.628417,-12.883664
40804,,9.490815,-1.407180,2.684450,0.094228,0.022935,-0.025299,-24.911259,-71.622592,-12.942942
40805,,9.490129,-1.331415,2.668971,0.099899,0.019736,-0.025044,-24.904384,-71.649188,-12.900300
40806,,9.479262,-1.286072,2.666508,0.092441,0.021079,-0.022234,-24.801335,-71.643561,-12.953060
40807,,9.512399,-1.272651,2.670280,0.073463,0.019062,-0.026979,-24.789278,-71.677934,-12.931040
40808,,9.487057,-1.307188,2.656217,0.058390,0.019207,-0.017066,-24.715163,-71.672033,-12.973852
40809,,9.499384,-1.284809,2.666928,0.040927,0.016845,-0.022074,-24.731751,-71.705957,-12.939091
40810,,9.523986,-1.370486,2.621292,0.036232,0.015324,-0.016995,-24.673224,-71.702024,-12.978850
40811,,9.465384,-1.415122,2.605829,0.039577,0.016454,-0.018749,-24.716834,-71.733614,-12.914543
40812,,9.501042,-1.414195,2.630274,0.054366,0.010838,-0.018461,-24.648893,-71.732326,-12.953223
40813,,9.496228,-1.388958,2.588716,0.065393,0.009522,-0.018396,-24.667593,-71.770464,-12.902400
40814,,9.527697,-1.435908,2.589304,0.082776,0.015529,-0.022294,-24.573878,-71.767650,-12.951039
40815,,9.483552,-1.399977,2.585385,0.097719,0.016065,-0.020631,-24.571151,-71.796659,-12.908393
40816,,9.491865,-1.297741,2.636303,0.105310,0.013981,-0.020327,-24.468742,-71.794210,-12.952533
40817,,9.504297,-1.273934,2.647080,0.095022,0.011676,-0.019647,-24.459951,-71.828452,-12.915380
40818,,9.487520,-1.210806,2.680833,0.080129,0.014382,-0.014087,-24.381532,-71.824309,-12.949442
40819,,9.464149,-1.186287,2.668543,0.062425,0.009816,-0.016316,-24.406137,-71.855588,-12.893419
40820,,9.472414,-1.213064,2.654393,0.046212,0.008529,-0.013124,-24.352920,-71.854223,-12.921392
40821,,9.503879,-1.261626,2.654463,0.037264,0.010228,-0.010103,-24.387457,-71.893350,-12.863993
40822,,9.470474,-1.268643,2.654869,0.031009,0.005804,-0.011988,-24.346724,-71.893085,-12.887987
40823,,9.524690,-1.267989,2.649025,0.031681,0.002554,-0.012779,-24.351674,-71.928231,-12.873905
40824,,9.506286,-1.266470,2.679016,0.037597,0.005165,-0.009629,-24.311258,-71.927765,-12.893647
40825,,9.473027,-1.273302,2.679006,0.039199,0.000835,-0.014007,-24.342804,-71.961454,-12.846071
40826,,9.498156,-1.232304,2.695921,0.034190,0.000769,-0.015073,-24.298812,-71.964590,-12.871576
40827,,9.477464,-1.219736,2.703808,0.024670,0.001732,-0.015402,-24.340000,-71.995045,-12.816247
40828,,9.441930,-1.215896,2.681516,0.012323,-0.000964,-0.017836,-24.305415,-71.999648,-12.845009
40829,,9.426096,-1.225127,2.732644,0.000051,0.002853,-0.020472,-24.317379,-72.029960,-12.845411
40830,,9.417463,-1.250599,2.665302,-0.008197,-0.002328,-0.023916,-24.285642,-72.036799,-12.883516
40831,,9.467935,-1.298532,2.634691,-0.003512,-0.000830,-0.028986,-24.299329,-72.060575,-12.883060
40832,,9.491646,-1.316689,2.648920,0.005432,-0.002528,-0.031996,-24.246826,-72.069428,-12.934762
40833,,9.530263,-1.325916,2.693179,0.013859,-0.001690,-0.031146,-24.275364,-72.119251,-12.890132
40834,,9.520680,-1.352326,2.707046,0.022378,0.002033,-0.036163,-24.203138,-72.126690,-12.952176
40835,,9.497881,-1.327080,2.693024,0.032573,-0.002172,-0.036618,-24.197400,-72.163960,-12.938030
40836,,9.498390,-1.322787,2.693341,0.038070,-0.001005,-0.033740,-24.122288,-72.172350,-12.993574
40837,,9.469548,-1.278725,2.716603,0.036231,-0.002475,-0.032228,-24.096885,-72.216267,-12.993557
40838,,9.470025,-1.274849,2.716763,0.031384,-0.003263,-0.030225,-24.032808,-72.224929,-13.041531
40839,,9.447182,-1.250285,2.702360,0.019948,-0.003429,-0.030580,-24.019907,-72.251238,-13.050144
40840,,9.448586,-1.317403,2.722287,0.020440,-0.002331,-0.028774,-23.963663,-72.259053,-13.096476
40841,,9.463890,-1.305577,2.752166,0.020189,-0.004497,-0.025973,-23.962010,-72.284904,-13.091899
40842,,9.506185,-1.323000,2.737081,0.022373,-0.008089,-0.027002,-23.911671,-72.295321,-13.130836
40843,,9.558407,-1.310444,2.708308,0.017259,-0.004173,-0.023946,-23.898746,-72.325177,-13.138636
40844,,9.564776,-1.326617,2.671204,0.019234,0.003456,-0.024131,-23.846353,-72.328901,-13.181629
40845,,9.525696,-1.314022,2.708264,0.020407,0.001305,-0.023110,-23.846352,-72.358652,-13.168156
40846,,9.487721,-1.299218,2.664361,0.017891,0.003085,-0.020815,-23.800454,-72.361821,-13.205065
40847,,9.532137,-1.327909,2.672093,0.020216,0.005655,-0.020520,-23.790618,-72.379384,-13.207253
40848,,9.496499,-1.323974,2.650396,0.022212,0.006415,-0.018960,-23.742820,-72.380349,-13.243578
40849,,9.439928,-1.309818,2.636168,0.025630,0.007190,-0.019179,-23.766115,-72.401872,-13.196886
40850,,9.488175,-1.289651,2.667392,0.025490,-0.002196,-0.013093,-23.732623,-72.405992,-13.216054
40851,,9.475941,-1.307170,2.659773,0.029045,0.004740,-0.011993,-23.740672,-72.422488,-13.192601
40852,,9.444063,-1.254658,2.661520,0.027047,0.003977,-0.013551,-23.701061,-72.423506,-13.217203
40853,,9.409577,-1.321588,2.659676,0.027730,0.000727,-0.014330,-23.704239,-72.442148,-13.199120
40854,,9.443085,-1.310113,2.660663,0.034429,-0.003883,-0.016084,-23.661904,-72.447881,-13.222121
40855,,9.443380,-1.307487,2.660909,0.038091,-0.000946,-0.019104,-23.659387,-72.464886,-13.203517
40856,,9.463415,-1.244501,2.633683,0.045773,-0.003349,-0.017250,-23.608254,-72.470596,-13.228884
40857,,9.463737,-1.241575,2.633909,0.042189,-0.003423,-0.020097,-23.576548,-72.483707,-13.251278
40858,,9.466620,-1.249337,2.655657,0.037706,-0.009272,-0.017605,-23.533509,-72.492615,-13.273115
40859,,9.485541,-1.246060,2.626100,0.038961,-0.008558,-0.022451,-23.543938,-72.516810,-13.232714
40860,,9.488517,-1.253583,2.647654,0.034447,-0.007542,-0.021718,-23.494816,-72.525764,-13.262726
40861,,9.476697,-1.270195,2.639171,0.035296,-0.011496,-0.019422,-23.472140,-72.548392,-13.275999
40862,,9.498192,-1.277597,2.631151,0.033299,-0.012263,-0.020977,-23.428081,-72.559695,-13.301475
40863,,9.459430,-1.264958,2.666900,0.034967,-0.013304,-0.018148,-23.435875,-72.582479,-13.270472
40864,,9.468634,-1.292015,2.650721,0.031466,-0.013733,-0.019460,-23.396506,-72.594182,-13.292080
40865,,9.481644,-1.269826,2.657538,0.036419,-0.020158,-0.018154,-23.407619,-72.617118,-13.260463
40866,,9.472573,-1.296958,2.670251,0.038896,-0.015080,-0.022206,-23.360373,-72.630150,-13.285812
40867,,9.464654,-1.264092,2.684589,0.041984,-0.016108,-0.021154,-23.340671,-72.661217,-13.282962
40868,,9.447027,-1.261051,2.712657,0.047094,-0.020029,-0.024185,-23.288793,-72.677360,-13.308252
40869,,9.489726,-1.277974,2.696719,0.044084,-0.019354,-0.023695,-23.273281,-72.696786,-13.308150
40870,,9.469583,-1.264160,2.702967,0.043141,-0.015059,-0.027528,-23.214244,-72.711070,-13.343335
40871,,9.476457,-1.279674,2.664803,0.040819,-0.017636,-0.027807,-23.208287,-72.727321,-13.329193
40872,,9.500689,-1.296526,2.678597,0.045776,-0.010681,-0.028512,-23.142900,-72.739496,-13.369376
40873,,9.491740,-1.322434,2.691838,0.054749,-0.019226,-0.029719,-23.104000,-72.762498,-13.388354
40874,,9.492588,-1.317960,2.691042,0.059209,-0.013382,-0.032222,-23.026298,-72.776948,-13.433414
40875,,9.511819,-1.313037,2.661035,0.065668,-0.020139,-0.031140,-22.977184,-72.806494,-13.450002
40876,,9.440223,-1.307635,2.696109,0.072487,-0.018579,-0.031581,-22.896400,-72.823547,-13.490361
40877,,9.441186,-1.302694,2.695130,0.074758,-0.022519,-0.031041,-22.861863,-72.838104,-13.487297
40878,,9.465813,-1.318183,2.708445,0.079947,-0.026790,-0.032518,-22.780982,-72.859548,-13.523317
40879,,9.478258,-1.352973,2.713892,0.091355,-0.026585,-0.032147,-22.749463,-72.873333,-13.503310
40880,,9.387794,-1.406096,2.776902,0.108212,-0.032188,-0.041692,-22.640460,-72.899503,-13.551770
40881,,9.349324,-1.448222,2.810677,0.136209,-0.046242,-0.047787,-22.550507,-72.929167,-13.578538
40882,,9.322036,-1.529200,2.932040,0.175539,-0.053761,-0.068347,-22.371711,-72.972460,-13.659721
40883,,9.298247,-1.616885,3.075542,0.230206,-0.066031,-0.085140,-22.177851,-73.023814,-13.735436
40884,,9.263360,-1.719554,3.211747,0.307302,-0.080238,-0.112911,-21.862870,-73.090530,-13.880074
40885,,9.335419,-1.807310,3.312813,0.392530,-0.092922,-0.142817,-21.485480,-73.167740,-14.054188
40886,,9.400545,-1.798688,3.429945,0.476965,-0.095897,-0.172165,-20.974631,-73.254516,-14.301866
40887,,9.375653,-1.842794,3.533913,0.554347,-0.086204,-0.191614,-20.429047,-73.329851,-14.544497
40888,,9.335854,-1.951865,3.611908,0.628039,-0.082551,-0.200431,-19.763855,-73.413531,-14.862706
40889,,9.405144,-1.935919,3.758165,0.720058,-0.075316,-0.210505,-19.077867,-73.491187,-15.147027
40890,,9.567609,-1.925516,3.863354,0.798878,-0.062875,-0.205067,-18.284182,-73.562885,-15.496795
40891,,9.704763,-1.945640,4.120593,0.867421,-0.029775,-0.192957,-17.518210,-73.598653,-15.778865
40892,,9.783319,-2.006352,4.451511,0.930906,0.009399,-0.180776,-16.644338,-73.623922,-16.133147
40893,,9.855816,-1.978026,5.006756,1.003510,0.062276,-0.159187,-15.823824,-73.595867,-16.378509
40894,,9.904990,-1.757712,5.587201,1.039637,0.132251,-0.127579,-14.922783,-73.542233,-16.696088
40895,,10.000093,-1.289792,6.147045,1.009533,0.217314,-0.105913,-14.116937,-73.416330,-16.925907
40896,,10.105113,-0.906161,6.256410,0.859338,0.319149,-0.080855,-13.331102,-73.249919,-17.231284
40897,,9.972226,-0.733977,6.304522,0.626672,0.453171,-0.037134,-12.783784,-72.963862,-17.411510
40898,,9.909031,-1.185559,6.301194,0.399719,0.564145,-0.008354,-12.314529,-72.649705,-17.661845
40899,,9.976708,-1.974857,6.470430,0.284430,0.655084,0.021713,-12.001288,-72.244150,-17.785555
40900,,10.098535,-2.621370,6.825905,0.299945,0.747118,0.050674,-11.648441,-71.819769,-17.974355
40901,,10.179670,-3.000434,7.237283,0.412729,0.856685,0.088279,-11.314807,-71.298761,-18.038904
40902,,10.322496,-3.097601,7.775606,0.581803,0.956556,0.128551,-10.886362,-70.747754,-18.137622
40903,,10.658480,-2.924784,8.220388,0.718470,1.081438,0.171450,-10.481880,-70.090829,-18.066674
40904,,10.888265,-2.497349,8.487196,0.784388,1.212936,0.211878,-10.022216,-69.386927,-18.075198
40905,,11.007619,-2.099178,8.638453,0.715066,1.352619,0.251509,-9.698301,-68.552295,-17.920435
40906,,11.140109,-1.972501,8.751437,0.588529,1.487878,0.288456,-9.415268,-67.686282,-17.859157
40907,,11.288114,-2.081118,8.894302,0.471677,1.620340,0.317339,-9.277816,-66.656546,-17.674656
40908,,11.356421,-2.163670,9.043846,0.380288,1.753597,0.352651,-9.147594,-65.634669,-17.575686
40909,,11.436720,-2.125827,9.097408,0.296623,1.881383,0.391452,-9.148433,-64.429783,-17.352994
40910,,11.437509,-1.959383,9.104050,0.176116,1.997432,0.433919,-9.176336,-63.262596,-17.206308
40911,,11.584488,-2.074209,8.960438,0.048008,2.111643,0.470948,-9.344678,-61.913817,-16.937452
40912,,11.677956,-2.521350,8.924658,-0.016279,2.217313,0.501668,-9.491824,-60.615703,-16.777013
40913,,11.775743,-2.969488,9.139913,0.031600,2.302835,0.510509,-9.646448,-59.152420,-16.515670
40914,,12.071032,-3.071115,9.218031,0.105079,2.373275,0.536595,-9.707167,-57.762506,-16.370403
40915,,12.294196,-2.844837,8.997292,0.153748,2.473172,0.559929,-9.789677,-56.197482,-16.060821
40916,,12.254979,-2.622660,8.652227,0.170895,2.573390,0.596060,-9.815197,-54.688608,-15.907418
40917,,12.147155,-2.525917,8.219325,0.157960,2.649899,0.643692,-9.916485,-53.019149,-15.533129
40918,,11.994230,-2.445165,7.906654,0.134878,2.724016,0.697259,-9.997718,-51.415008,-15.328869
40919,,11.759111,-2.418270,7.767295,0.094524,2.767833,0.752836,-10.169150,-49.676320,-15.058139
40920,,11.704968,-2.612753,7.568265,0.078151,2.799014,0.812239,-10.320861,-48.017548,-14.793307
40921,,11.643093,-2.780113,7.457459,0.101994,2.812031,0.862630,-10.517044,-46.251723,-14.472213
40922,,11.691169,-2.613179,7.344370,0.128677,2.824203,0.907637,-10.658937,-44.567691,-14.165343
40923,,11.568904,-2.354975,7.056130,0.133124,2.858040,0.950712,-10.845551,-42.777439,-13.817033
40924,,11.078010,-2.080488,6.845034,0.111117,2.883379,0.986876,-10.997815,-41.050272,-13.489428
40925,,10.632368,-1.886462,6.572890,0.042767,2.879991,1.014229,-11.227053,-39.252971,-13.133479
40926,,10.316885,-1.913912,6.078563,-0.035768,2.869564,1.037390,-11.451537,-37.526131,-12.800311
40927,,9.903851,-2.077967,5.833122,-0.082935,2.856243,1.067491,-11.738083,-35.748191,-12.442171
40928,,9.328637,-2.286068,5.765284,-0.073010,2.822463,1.086603,-11.971421,-34.039682,-12.102326
40929,,8.902879,-2.509782,5.750453,0.015501,2.767285,1.097909,-12.184679,-32.319645,-11.746002
40930,,8.751832,-2.552821,5.518274,0.139508,2.728982,1.096355,-12.276023,-30.660501,-11.412532
40931,,8.321259,-2.292920,5.410158,0.263566,2.687020,1.087260,-12.323016,-28.998525,-11.074132
40932,,7.874025,-1.785513,5.336954,0.315505,2.632630,1.072312,-12.289703,-27.395876,-10.755883
40933,,7.500020,-1.426036,5.049337,0.271350,2.576457,1.060752,-12.310266,-25.811232,-10.431711
40934,,7.043297,-1.476678,4.779289,0.200400,2.519873,1.057773,-12.326070,-24.273420,-10.116246
40935,,6.440543,-1.808748,4.705897,0.203686,2.441780,1.043639,-12.367584,-22.777317,-9.796676
40936,,6.184870,-2.019239,4.712167,0.274513,2.328001,1.018022,-12.323461,-21.351633,-9.487701
40937,,5.894491,-1.933703,4.827592,0.374675,2.235529,1.004726,-12.252076,-19.985446,-9.171411
40938,,5.645552,-1.568111,4.838372,0.444463,2.151138,0.971355,-12.094769,-18.665330,-8.868469
40939,,5.269199,-1.214366,4.637542,0.431082,2.067740,0.942894,-11.972838,-17.410099,-8.568170
40940,,4.815114,-0.836698,4.453456,0.352341,1.974768,0.908349,-11.851853,-16.197635,-8.278358
40941,,4.323516,-0.707405,4.365086,0.251773,1.868481,0.873641,-11.814796,-15.070310,-7.995059
40942,,3.858192,-0.918566,4.454158,0.195759,1.747785,0.828711,-11.767653,-13.995076,-7.724479
40943,,3.527218,-1.123777,4.574999,0.214606,1.609242,0.780511,-11.734272,-13.029537,-7.466229
40944,,3.439755,-1.034671,4.714664,0.267305,1.456751,0.717270,-11.630737,-12.131039,-7.225230
40945,,3.396947,-0.727694,4.844512,0.311358,1.344865,0.640210,-11.523071,-11.334534,-7.016128
40946,,3.048638,-0.394901,4.869921,0.301723,1.243464,0.571090,-11.382368,-10.573402,-6.831766
40947,,2.666422,-0.147337,4.940208,0.228226,1.142014,0.492545,-11.304147,-9.911607,-6.682106
40948,,2.224137,-0.348469,5.162719,0.187307,1.026958,0.417165,-11.214497,-9.289984,-6.559075
40949,,2.104892,-0.620639,5.499666,0.185504,0.891093,0.341743,-11.145822,-8.788091,-6.465950
40950,,2.223582,-0.716296,5.809847,0.214157,0.770634,0.283341,-11.031738,-8.325715,-6.388923
40951,,2.292073,-0.606891,6.055489,0.236051,0.677982,0.240236,-10.925921,-7.956126,-6.328516
40952,,2.159166,-0.439539,6.301458,0.240591,0.603226,0.200886,-10.792027,-7.597174,-6.278350
40953,,1.980713,-0.380316,6.460067,0.226771,0.540716,0.159684,-10.684518,-7.314849,-6.247323
40954,,1.832601,-0.390209,6.563307,0.199338,0.484780,0.134572,-10.570794,-7.029823,-6.220782
40955,,1.545219,-0.394758,6.993545,0.185985,0.422469,0.113716,-10.482161,-6.819529,-6.202115
40956,,1.474885,-0.561157,7.343898,0.171630,0.357255,0.089644,-10.382799,-6.611129,-6.186786
40957,,1.541586,-0.738043,7.633608,0.183822,0.302402,0.075115,-10.291751,-6.472172,-6.176588
40958,,1.615818,-0.703569,7.943065,0.201690,0.250518,0.062550,-10.174675,-6.326783,-6.164975
40959,,1.631435,-0.381859,8.162846,0.179704,0.204431,0.055042,-10.083783,-6.244868,-6.155400
40960,,1.531040,0.017948,8.423693,0.086813,0.171270,0.045888,-10.032380,-6.145905,-6.144819
40961,,1.405784,0.575110,8.644425,-0.123930,0.131602,0.022804,-10.111152,-6.108002,-6.145714
40962,,1.330612,1.095418,8.560415,-0.462405,0.070647,0.003180,-10.372906,-6.070106,-6.149360
40963,,1.164444,2.405577,8.941240,-1.022232,-0.035195,0.010151,-10.962392,-6.126733,-6.139772
40964,,1.081186,4.353634,9.586360,-2.070764,-0.181996,0.073701,-12.152992,-6.222666,-6.075305
40965,,1.288570,6.450152,10.230609,-3.728998,-0.346384,0.209065,-14.300361,-6.425025,-5.910874
40966,,1.762073,8.300865,10.547002,-5.977248,-0.429612,0.385772,-17.754525,-6.602650,-5.626687
40967,,2.008525,9.570219,9.504651,-8.729945,-0.447292,0.595833,-22.779328,-6.760689,-5.211291
40968,,2.179725,10.186288,7.593635,-11.755812,-0.401936,0.837565,-29.575481,-6.757382,-4.673277
40969,,2.330503,9.021401,3.561368,-14.550021,-0.282123,1.007218,-37.932418,-6.608518,-4.093753
40970,,2.332723,5.728762,-1.401151,-16.721480,-0.138727,1.169770,-47.572005,-6.213380,-3.542148
40971,,1.869964,1.435508,-5.811359,-17.790949,0.018732,1.272941,-57.755294,-5.668177,-3.098057
40972,,1.384379,-3.040201,-8.896890,-18.004057,0.130854,1.348920,-68.094885,-4.946899,-2.809332
40973,,0.930835,-7.304757,-11.296351,-17.476743,0.178804,1.475418,-78.079092,-4.151104,-2.653396
40974,,0.284662,-10.740144,-13.090691,-16.285083,0.194515,1.574112,-87.407491,-3.242462,-2.647319
40975,,-0.434680,-12.737901,-13.241039,-14.874285,0.371393,1.540770,-95.902454,-2.406781,-2.881414
40976,,-1.410880,-14.882029,-13.029483,-13.149300,0.264171,1.411085,-103.423757,-1.634094,-3.163963
40977,,-0.967164,-15.979129,-12.241696,-11.310934,0.189538,1.226437,-109.901715,-1.027671,-3.469342
40978,,-0.778728,-16.549444,-11.454383,-9.216746,0.144489,0.970167,-115.175766,-0.544054,-3.756860
40979,,-0.475650,-16.317719,-9.984268,-7.281286,0.130244,0.743626,-119.359203,-0.231331,-4.020689
40980,,-0.356065,-14.725424,-8.438059,-5.611093,0.153473,0.569749,-122.570810,0.005698,-4.262396
40981,,-0.286386,-12.323978,-7.148363,-4.334907,0.160839,0.433372,-125.068131,0.131080,-4.479854
40982,,-0.008977,-10.385885,-6.589177,-3.457287,0.150013,0.297124,-127.046691,0.220645,-4.648116
40983,,0.143997,-9.558171,-6.574248,-2.874124,0.154330,0.176592,-128.705125,0.218033,-4.782427
40984,,0.067452,-9.763936,-7.024606,-2.292577,0.136643,0.078425,-130.016170,0.205747,-4.870173
40985,,-0.102030,-9.844063,-7.371099,-1.663122,0.109283,0.009950,-130.978651,0.142166,-4.923549
40986,,-0.227278,-9.758990,-7.724989,-0.987479,0.045118,-0.041557,-131.541618,0.109897,-4.926073
40987,,-0.149201,-9.813142,-7.685739,-0.296568,-0.027360,-0.082600,-131.719341,0.059005,-4.884586
40988,,0.079539,-9.215785,-7.342362,0.264131,-0.077946,-0.073652,-131.565124,0.059843,-4.821971
40989,,0.016493,-7.849664,-6.965865,0.598852,-0.126675,-0.052048,-131.228371,0.060613,-4.749064
40990,,0.103760,-7.562233,-6.969917,0.752583,-0.200532,-0.052234,-130.794197,0.116120,-4.641485
40991,,0.119711,-8.158829,-6.909801,0.967631,-0.228748,-0.049431,-130.245992,0.155775,-4.524610
40992,,0.101306,-8.123035,-6.879221,1.245409,-0.254719,-0.046315,-129.529180,0.231684,-4.394303
40993,,0.191621,-8.164951,-6.855590,1.531038,-0.270797,-0.076270,-128.657622,0.272375,-4.247313
40994,,0.202644,-9.265016,-7.408929,2.056005,-0.276327,-0.142838,-127.475925,0.308208,-4.070803
40995,,0.051198,-11.522538,-7.987853,3.076516,-0.266023,-0.279265,-125.718552,0.247919,-3.853847
40996,,0.081678,-13.748539,-8.375212,4.649238,-0.243534,-0.427518,-123.051102,0.127143,-3.598799
40997,,-0.048939,-14.581035,-8.818803,6.593510,-0.192033,-0.607988,-119.278639,-0.136053,-3.324612
40998,,-0.285201,-14.222493,-9.606061,8.660451,-0.166463,-0.825332,-114.315449,-0.512700,-3.024458
40999,,-0.436608,-13.887179,-10.505067,10.729854,-0.178170,-1.072942,-108.178991,-1.069621,-2.706536
41000,,-0.303411,-13.205007,-11.007838,12.576806,-0.199771,-1.303760,-100.977564,-1.761427,-2.405463
41001,,-0.323745,-12.185626,-12.245382,14.502264,-0.229096,-1.522726,-92.693117,-2.631169,-2.171934
41002,,-0.080260,-11.224860,-12.694130,16.339814,-0.275873,-1.699127,-83.335009,-3.607376,-2.044818
41003,,0.554701,-9.775818,-12.798816,18.186701,-0.169199,-1.758129,-72.939529,-4.630485,-2.158984
41004,,1.095520,-6.387802,-12.057015,19.899883,-0.107207,-1.777454,-61.504811,-5.591612,-2.494328
41005,,1.157561,-2.004989,-10.425230,21.007803,0.000038,-1.731240,-49.461403,-6.427806,-3.060934
41006,,1.092240,2.722383,-7.690109,21.106935,-0.086442,-1.617243,-37.289671,-7.100141,-3.700828
41007,,2.083061,8.151234,-3.537013,19.811468,0.061542,-1.483701,-25.903214,-7.539514,-4.450350
41008,,1.623597,11.982536,2.620522,17.404160,0.284331,-1.256356,-15.831576,-7.645805,-5.184267
41009,,0.357849,14.239060,7.277538,13.974674,0.173103,-0.993020,-7.792285,-7.694703,-5.767652
41010,,0.092205,14.577859,11.399327,10.144352,0.080950,-0.704268,-1.922742,-7.685462,-6.175567
41011,,0.695975,12.715392,12.810369,6.389198,-0.043343,-0.473155,1.753240,-7.739535,-6.449493
41012,,1.176511,9.881727,12.142122,3.332639,-0.086719,-0.365380,3.693992,-7.782222,-6.661700
41013,,0.846111,7.087672,10.914464,1.114347,-0.097193,-0.300304,4.351637,-7.853142,-6.838540
41014,,1.032328,3.729103,9.825570,-0.131025,-0.101842,-0.271268,4.301092,-7.902657,-6.998319
41015,,1.568271,-0.039698,9.238075,-0.355834,-0.096945,-0.238997,4.118798,-7.974166,-7.139624
41016,,2.029978,-1.815888,9.373866,0.102456,-0.198685,-0.209177,4.197992,-8.082076,-7.267551
41017,,2.292161,-2.066668,9.352574,0.784436,-0.193982,-0.098244,4.656525,-8.214771,-7.332353
41018,,1.661165,0.016673,10.723660,1.301887,-0.219588,-0.067597,5.412138,-8.339793,-7.381422
41019,,1.824650,1.473791,10.887177,1.360556,-0.197706,-0.022223,6.192581,-8.477560,-7.405414
41020,,1.948352,2.561459,10.840108,1.064814,-0.170684,0.034181,6.803887,-8.580074,-7.395938
41021,,1.823578,2.970825,10.512183,0.615932,-0.158686,0.086696,7.149611,-8.702459,-7.356852
41022,,1.626050,2.734321,10.253168,0.152336,-0.146862,0.090139,7.233098,-8.795564,-7.314718
41023,,1.718701,1.652547,9.998907,-0.135160,-0.161867,0.077377,7.151458,-8.918779,-7.281511
41024,,2.134137,0.909248,9.818272,-0.114548,-0.178523,0.033928,7.087247,-9.025852,-7.273870
41025,,1.730780,0.989073,9.909434,-0.039075,-0.187428,0.011596,7.066846,-9.158771,-7.280146
41026,,1.978614,1.107524,9.966442,0.070021,-0.221951,-0.027637,7.114524,-9.286190,-7.311026
41027,,2.021327,1.239895,9.738123,0.095749,-0.206111,-0.011812,7.173635,-9.427798,-7.332281
41028,,1.816996,1.831664,9.525971,0.020768,-0.234876,-0.016698,7.192390,-9.563311,-7.358034
41029,,1.886413,2.082465,9.357823,-0.176327,-0.252520,-0.010738,7.096678,-9.731197,-7.382048
41030,,1.960025,1.978848,9.133936,-0.412973,-0.252896,0.003225,6.865234,-9.878446,-7.397120
41031,,1.990543,1.398097,8.713305,-0.567802,-0.259195,0.013108,6.544084,-10.051726,-7.406713
41032,,2.041629,0.882365,8.533268,-0.605003,-0.280757,0.014603,6.201582,-10.215722,-7.415437
41033,,2.124307,0.468460,8.195825,-0.529420,-0.301990,0.023426,5.901774,-10.414133,-7.419960
41034,,2.176664,0.267304,7.859870,-0.385464,-0.323512,0.028597,5.683787,-10.603399,-7.421415
41035,,2.196913,0.406759,7.635717,-0.240675,-0.358877,0.041660,5.547203,-10.835569,-7.417248
41036,,2.225227,0.796242,7.421595,-0.180665,-0.404269,0.057063,5.444095,-11.072472,-7.405689
41037,,2.163992,1.207371,7.243697,-0.226897,-0.449865,0.073218,5.312414,-11.358583,-7.387268
41038,,2.180136,1.255866,7.065751,-0.333880,-0.500349,0.090076,5.118355,-11.651981,-7.360395
41039,,2.263810,1.000900,6.731845,-0.414895,-0.544169,0.098695,4.877070,-11.993352,-7.330151
41040,,2.377114,0.632205,6.370973,-0.417627,-0.602887,0.100324,4.633989,-12.345575,-7.299808
41041,,2.516658,0.276328,5.958344,-0.299403,-0.644079,0.117959,4.456785,-12.745150,-7.260328
41042,,2.625084,0.106214,5.767461,-0.111174,-0.700338,0.126410,4.385958,-13.154027,-7.216920
41043,,2.714663,0.168533,5.594224,0.067353,-0.766586,0.137268,4.416311,-13.625207,-7.170535
41044,,2.873479,0.480452,5.592600,0.190510,-0.846601,0.137379,4.517763,-14.118168,-7.127572
41045,,2.901700,0.870650,5.758283,0.212196,-0.937006,0.135736,4.632635,-14.687798,-7.091350
41046,,2.871450,1.216711,6.039944,0.131909,-1.026007,0.119714,4.705052,-15.282543,-7.069083
41047,,2.995482,1.295948,6.187224,-0.027218,-1.120630,0.099728,4.691142,-15.956287,-7.064290
41048,,3.278999,1.080474,6.173468,-0.190469,-1.209062,0.095339,4.584774,-16.654445,-7.064893
41049,,3.602410,0.793854,6.049592,-0.301105,-1.303012,0.077468,4.420413,-17.432198,-7.079823
41050,,3.908148,0.419417,5.941723,-0.311633,-1.387476,0.067619,4.251037,-18.231093,-7.101327
41051,,4.062585,0.175460,5.888032,-0.213036,-1.465974,0.047354,4.144513,-19.102149,-7.137684
41052,,4.157963,0.105924,6.243872,-0.046132,-1.558487,0.012308,4.140729,-19.996561,-7.197613
41053,,4.429434,0.065208,6.581506,0.116930,-1.642151,-0.026291,4.242542,-20.966691,-7.287115
41054,,4.705699,0.093490,6.922731,0.257298,-1.712794,-0.050568,4.432705,-21.946354,-7.396857
41055,,5.047117,0.189262,7.361854,0.359798,-1.774251,-0.070550,4.691995,-22.990742,-7.528028
41056,,5.425715,0.416388,7.445201,0.397199,-1.818693,-0.064396,4.975959,-24.029294,-7.662857
41057,,5.726390,0.651181,7.332833,0.361395,-1.849607,-0.024779,5.235359,-25.119256,-7.782223
41058,,5.821015,0.956172,7.277326,0.285630,-1.872141,0.036806,5.439018,-26.192584,-7.868622
41059,,5.941101,1.050286,7.202554,0.180816,-1.901574,0.092412,5.571742,-27.319418,-7.926977
41060,,6.357138,0.917323,7.208559,0.099684,-1.928128,0.134561,5.647522,-28.429782,-7.961356
41061,,6.846716,0.715953,7.076742,0.028590,-1.938662,0.176717,5.672156,-29.583921,-7.971975
41062,,7.175147,0.593778,6.887238,-0.013046,-1.950335,0.221746,5.657405,-30.711867,-7.952338
41063,,7.579528,0.503459,6.708745,-0.047536,-1.980286,0.262593,5.610091,-31.896622,-7.908097
41064,,7.987428,0.538992,6.531148,-0.068390,-1.993790,0.307242,5.532024,-33.054096,-7.830871
41065,,8.006225,0.539551,6.498242,-0.055056,-2.001764,0.365097,5.437688,-34.259098,-7.712993
41066,,7.931313,0.524030,6.814521,0.035815,-2.034932,0.377519,5.386833,-35.443677,-7.583575
41067,,7.978805,0.622197,7.325431,0.139737,-2.079582,0.363528,5.399862,-36.694938,-7.466039
41068,,8.218320,0.893028,7.504832,0.172955,-2.129350,0.326506,5.446854,-37.930655,-7.375823
41069,,8.526077,1.133915,7.510338,0.104788,-2.152981,0.288962,5.471339,-39.221023,-7.315553
41070,,8.705955,1.139662,7.272523,-0.046126,-2.178477,0.246330,5.428488,-40.480455,-7.285903
41071,,8.769417,0.941365,7.278296,-0.173496,-2.200649,0.223243,5.323877,-41.795474,-7.274463
41072,,8.731665,0.522263,7.454960,-0.231127,-2.214403,0.210994,5.189498,-43.073492,-7.267759
41073,,8.672378,-0.114523,7.731963,-0.135720,-2.212234,0.216071,5.105410,-44.395351,-7.245341
41074,,8.880964,-0.523966,8.089344,0.113908,-2.229204,0.203052,5.170963,-45.681422,-7.242108
41075,,9.350111,-0.193522,8.355424,0.364355,-2.227664,0.169652,5.385166,-47.010313,-7.004159
41076,,9.770943,0.789910,8.592146,0.452278,-2.205807,0.126321,5.700893,-48.278853,-7.077219
41077,,10.059118,1.757172,8.631985,0.262587,-2.167022,0.091135,5.919834,-49.567772,-6.961487
41078,,10.263868,2.175532,8.176749,-0.188441,-2.112844,0.058092,5.923533,-50.779016,-7.103506
41079,,10.039608,1.779325,7.803443,-0.642234,-2.037276,0.031830,5.668152,-51.989614,-7.078921
41080,,9.531831,1.078667,7.976941,-0.946787,-2.001941,-0.012351,5.279235,-53.134485,-7.269042
41081,,9.297149,0.143124,8.311964,-1.027436,-1.965750,-0.043957,4.850850,-54.300324,-7.327853
41082,,9.370072,-0.685487,8.673946,-0.875316,-1.950965,-0.071563,4.538606,-55.414829,-7.556136
41083,,9.821808,-1.109458,8.559524,-0.589688,-1.924062,-0.099493,4.403450,-56.553216,-7.694884
41084,,10.197144,-0.892033,8.208901,-0.307432,-1.855309,-0.129234,4.469458,-57.611153,-7.980230
41085,,10.333980,-0.208473,7.951782,-0.146422,-1.766292,-0.154693,4.646260,-58.654472,-8.198740
41086,,10.386494,0.607863,7.705734,-0.211005,-1.693490,-0.164841,4.817785,-59.617557,-8.536350
41087,,10.514292,1.048706,7.395203,-0.461328,-1.614534,-0.155828,4.834070,-60.571232,-8.793264
41088,,10.385441,1.101924,7.099801,-0.800060,-1.535922,-0.149767,4.662297,-61.445048,-9.117968
41089,,10.137416,0.826027,6.735764,-1.127267,-1.459900,-0.109278,4.247597,-62.311473,-9.321677
41090,,9.650211,0.107473,6.881209,-1.297657,-1.396876,-0.093728,3.716258,-63.110099,-9.557478
41091,,9.635650,-0.698344,7.019991,-1.306055,-1.374583,-0.084902,3.154371,-63.928448,-9.719465
41092,,9.954259,-1.214632,6.910940,-1.152970,-1.324934,-0.095192,2.687687,-64.687760,-9.931766
41093,,10.049017,-1.166568,6.790707,-0.944188,-1.255612,-0.108740,2.340676,-65.436274,-10.111602
41094,,10.093575,-0.796095,6.598999,-0.788762,-1.195796,-0.122509,2.103736,-66.122141,-10.344481
41095,,10.055983,-0.400499,6.369768,-0.742543,-1.130584,-0.142868,1.907900,-66.796769,-10.567409
41096,,10.009826,-0.001583,6.154589,-0.808962,-1.078077,-0.155427,1.700999,-67.415331,-10.843125
41097,,10.053485,0.170280,5.879426,-0.980202,-1.021548,-0.169459,1.404680,-68.025573,-11.109105
41098,,10.155054,0.158941,5.562834,-1.201997,-0.940773,-0.184819,1.009980,-68.566234,-11.422735
41099,,10.416702,-0.340894,5.166502,-1.363766,-0.798445,-0.223066,0.565401,-69.047644,-11.768799
41100,,10.032101,-1.178471,4.935347,-1.348556,-0.677186,-0.268514,0.204691,-69.438591,-12.206575
41101,,9.869756,-1.594714,4.589739,-1.211112,-0.698685,-0.282821,-0.060710,-69.862932,-12.655082
41102,,9.915063,-1.342347,4.448041,-1.083375,-0.686564,-0.271970,-0.255968,-70.260731,-13.104926
41103,,9.774314,-0.955380,4.283313,-1.045981,-0.665760,-0.244978,-0.479778,-70.666139,-13.498930
41104,,9.580970,-0.769906,4.189055,-1.082631,-0.645019,-0.217294,-0.754345,-71.041031,-13.862177
41105,,9.435578,-0.699086,4.088911,-1.121007,-0.638562,-0.181924,-1.123163,-71.430550,-14.146859
41106,,9.364105,-0.817586,4.066384,-1.132803,-0.624031,-0.165983,-1.512647,-71.794187,-14.417676
41107,,9.398188,-0.934352,3.987712,-1.110164,-0.614539,-0.162867,-1.910997,-72.169640,-14.669087
41108,,9.388543,-0.895137,4.005186,-1.074682,-0.616028,-0.162746,-2.276499,-72.529766,-14.929004
41109,,9.441596,-0.886300,3.990155,-1.054513,-0.615083,-0.165032,-2.643869,-72.905322,-15.183962
41110,,9.498910,-0.884225,4.023543,-1.054393,-0.610161,-0.175452,-2.976685,-73.263419,-15.464868
41111,,9.457652,-0.855399,4.045871,-1.061707,-0.609808,-0.184106,-3.315750,-73.636205,-15.753563
41112,,9.505670,-0.933627,4.091469,-1.067934,-0.615558,-0.199553,-3.610664,-73.999143,-16.080956
41113,,9.441350,-1.001519,4.099559,-1.045058,-0.606653,-0.211288,-3.885930,-74.370585,-16.427119
41114,,9.365163,-1.031340,4.091854,-1.018340,-0.606180,-0.227318,-4.089999,-74.730101,-16.818109
41115,,9.339427,-1.037850,4.134170,-0.990200,-0.601769,-0.236993,-4.273286,-75.098987,-17.228199
41116,,9.392816,-1.059264,4.190073,-0.951897,-0.584665,-0.256096,-4.361676,-75.448056,-17.698118
41117,,9.430510,-0.840122,4.380345,-0.936757,-0.558736,-0.274030,-4.411063,-75.792711,-18.214758
41118,,9.416226,-0.683605,4.595674,-0.975105,-0.528893,-0.280135,-4.427604,-76.111202,-18.771032
41119,,9.642281,-0.740841,4.628508,-1.023689,-0.499365,-0.275425,-4.489883,-76.420113,-19.327660
41120,,9.899493,-0.802134,4.579600,-1.047259,-0.454586,-0.277645,-4.516374,-76.696251,-19.914783
41121,,9.979690,-0.735645,4.492858,-1.074171,-0.381812,-0.268171,-4.582191,-76.935886,-20.495668
41122,,9.925402,-0.674380,4.356999,-1.122857,-0.313607,-0.257962,-4.653291,-77.130879,-21.080333
41123,,9.861949,-0.754258,4.240175,-1.168790,-0.258692,-0.236426,-4.813691,-77.297308,-21.618496
41124,,9.897675,-0.929116,4.055869,-1.177123,-0.189990,-0.218637,-4.978094,-77.420445,-22.138660
41125,,9.948909,-1.051623,3.860785,-1.148323,-0.133391,-0.198581,-5.189576,-77.512440,-22.614202
41126,,9.996309,-1.103685,3.743096,-1.110902,-0.092806,-0.168926,-5.417282,-77.578306,-23.030315
41127,,10.070068,-1.135328,3.604703,-1.068739,-0.047439,-0.135946,-5.724240,-77.617277,-23.362213
41128,,10.104038,-1.052166,3.544541,-1.024340,0.002803,-0.107228,-6.037474,-77.625929,-23.639874
41129,,10.151930,-1.073397,3.424786,-0.995105,0.058222,-0.069312,-6.449891,-77.600366,-23.818824
41130,,10.210752,-1.137836,3.238769,-0.962902,0.103036,-0.039639,-6.873901,-77.548293,-23.947067
41131,,10.211222,-1.094207,3.081880,-0.962256,0.141329,0.004337,-7.431006,-77.469876,-23.960650
41132,,10.291890,-1.277976,2.879179,-0.950829,0.200092,0.034661,-8.000994,-77.357495,-23.932324
41133,,10.152835,-1.511634,2.750012,-0.904948,0.236898,0.072995,-8.658172,-77.218716,-23.809332
41134,,10.014529,-1.642567,2.743474,-0.823858,0.259479,0.110780,-9.309376,-77.065803,-23.623062
41135,,9.853505,-1.765111,2.745084,-0.713863,0.269962,0.144263,-10.003117,-76.900351,-23.353234
41136,,9.735056,-1.755314,2.716557,-0.597374,0.272402,0.178585,-10.662002,-76.732247,-23.025564
41137,,9.695890,-1.710612,2.718832,-0.490096,0.271259,0.208565,-11.359305,-76.557110,-22.621796
41138,,9.649392,-1.645797,2.679317,-0.403162,0.276051,0.231052,-12.002467,-76.379154,-22.195386
41139,,9.679204,-1.537030,2.649461,-0.344585,0.276029,0.252965,-12.692204,-76.193431,-21.709279
41140,,9.598080,-1.423645,2.613779,-0.312611,0.277668,0.264092,-13.329025,-76.008037,-21.235300
41141,,9.567804,-1.346865,2.527218,-0.301794,0.279985,0.271548,-14.004897,-75.814621,-20.738283
41142,,9.488286,-1.280675,2.389258,-0.294798,0.282738,0.273149,-14.619005,-75.622585,-20.276430
41143,,9.377901,-1.334970,2.307486,-0.281550,0.280274,0.269729,-15.250282,-75.426484,-19.812156
41144,,9.258760,-1.308990,2.262545,-0.275620,0.260442,0.265161,-15.821697,-75.245587,-19.382293
41145,,9.300294,-1.265266,2.174222,-0.266060,0.234641,0.262083,-16.429409,-75.073386,-18.933032
41146,,9.299360,-1.313271,2.155010,-0.247885,0.223610,0.248209,-16.949273,-74.913332,-18.539422
41147,,9.298906,-1.359629,2.134342,-0.223874,0.200560,0.239120,-17.487692,-74.761716,-18.133080
41148,,9.298756,-1.295684,2.137065,-0.190377,0.168142,0.233336,-17.961995,-74.632707,-17.752008
41149,,9.339241,-1.300555,2.180803,-0.159701,0.147512,0.220711,-18.445872,-74.511573,-17.364646
41150,,9.328129,-1.410680,2.122356,-0.108002,0.129471,0.203046,-18.826017,-74.407517,-17.031897
41151,,9.338043,-1.480957,2.160292,-0.035201,0.104596,0.186369,-19.191208,-74.314874,-16.689275
41152,,9.373249,-1.350976,2.263547,0.023787,0.074114,0.173231,-19.467570,-74.245325,-16.385622
41153,,9.404445,-1.197553,2.321678,0.059226,0.057958,0.164228,-19.761364,-74.181147,-16.064917
41154,,9.438339,-1.161814,2.374474,0.086680,0.045092,0.148774,-19.970491,-74.131226,-15.793528
41155,,9.391234,-1.203361,2.369729,0.113032,0.036899,0.142542,-20.202816,-74.081999,-15.504263
41156,,9.416256,-1.135181,2.435952,0.138127,0.012341,0.131281,-20.369542,-74.052606,-15.246212
41157,,9.484049,-1.024932,2.488468,0.148113,0.003209,0.125035,-20.571052,-74.024601,-14.964010
41158,,9.451083,-0.934449,2.514169,0.138905,-0.000725,0.123604,-20.730693,-74.003308,-14.712812
41159,,9.476164,-0.973313,2.551839,0.127264,-0.006556,0.118793,-20.936514,-73.981293,-14.440109
41160,,9.541169,-0.960929,2.554889,0.124489,-0.010287,0.116709,-21.097342,-73.966084,-14.196237
41161,,9.533034,-0.949989,2.592227,0.114854,-0.009153,0.114791,-21.302603,-73.945827,-13.931250
41162,,9.579266,-0.938416,2.623791,0.102708,-0.009571,0.107963,-21.458347,-73.931630,-13.705629
41163,,9.602241,-1.025654,2.637970,0.106432,0.002398,0.100480,-21.631624,-73.907823,-13.477592
41164,,9.549403,-1.102514,2.665541,0.124754,0.000677,0.094968,-21.742463,-73.890583,-13.285533
41165,,9.585982,-1.058768,2.713445,0.142992,-0.000713,0.087933,-21.872561,-73.870815,-13.078793
41166,,9.556701,-1.033906,2.758722,0.151395,-0.003097,0.081736,-21.946002,-73.858198,-12.909757
41167,,9.600795,-1.007467,2.769322,0.149084,-0.002531,0.074072,-22.046343,-73.842054,-12.731605
41168,,9.585931,-1.019708,2.740855,0.150383,0.004320,0.070577,-22.094017,-73.827763,-12.589992
41169,,9.618164,-1.012516,2.743900,0.141960,0.003359,0.069678,-22.184847,-73.809290,-12.423859
41170,,9.617300,-1.015076,2.745982,0.138204,0.010407,0.063517,-22.221697,-73.793202,-12.300775
41171,,9.594868,-1.067438,2.754771,0.132207,0.017873,0.065730,-22.298292,-73.767733,-12.155690
41172,,9.555960,-1.059551,2.712934,0.124166,0.024889,0.064830,-22.334339,-73.743609,-12.041806
41173,,9.523696,-1.082483,2.737798,0.119217,0.030912,0.065007,-22.406106,-73.711299,-11.907408
41174,,9.529460,-1.045236,2.706014,0.105735,0.036677,0.061168,-22.436742,-73.681668,-11.810145
41175,,9.568019,-1.058203,2.674976,0.083162,0.038260,0.057388,-22.507919,-73.647004,-11.698836
41176,,9.589669,-1.081863,2.695312,0.072989,0.048537,0.058954,-22.543914,-73.611528,-11.615523
41177,,9.549685,-1.134549,2.655653,0.063093,0.064079,0.050287,-22.592559,-73.564691,-11.540906
41178,,9.523692,-1.177400,2.646385,0.061657,0.057567,0.052329,-22.615886,-73.525859,-11.477549
41179,,9.531375,-1.150653,2.638137,0.056850,0.053391,0.047133,-22.670169,-73.485442,-11.396897
41180,,9.522253,-1.133737,2.680658,0.047523,0.056719,0.042321,-22.683969,-73.449241,-11.351914
41181,,9.493788,-1.225603,2.648615,0.048090,0.060634,0.038242,-22.720388,-73.406920,-11.297214
41182,,9.453943,-1.277058,2.609002,0.057836,0.055375,0.036198,-22.718160,-73.372769,-11.262786
41183,,9.431011,-1.268217,2.621231,0.070639,0.046063,0.026577,-22.731662,-73.340784,-11.216703
41184,,9.443541,-1.259114,2.656225,0.083670,0.038803,0.030253,-22.716288,-73.316700,-11.180549
41185,,9.494542,-1.249628,2.633176,0.087303,0.032150,0.018879,-22.716085,-73.293746,-11.140146
41186,,9.503218,-1.219385,2.623282,0.085857,0.038653,0.020359,-22.682122,-73.271928,-11.122097
41187,,9.445658,-1.208377,2.610838,0.084138,0.033471,0.016263,-22.678168,-73.248936,-11.086255
41188,,9.447303,-1.157933,2.636862,0.074572,0.028179,0.014524,-22.648141,-73.233942,-11.070858
41189,,9.517218,-1.207926,2.584471,0.065727,0.032637,0.011469,-22.646671,-73.212525,-11.042195
41190,,9.438104,-1.246457,2.577809,0.061532,0.028929,0.011134,-22.617654,-73.197878,-11.033556
41191,,9.430033,-1.225780,2.617537,0.056878,0.024090,0.009003,-22.623339,-73.181646,-11.001260
41192,,9.484286,-1.166013,2.614941,0.049676,0.021056,0.009094,-22.603322,-73.171608,-10.990327
41193,,9.471076,-1.244992,2.610106,0.046791,0.024496,0.003629,-22.603799,-73.156336,-10.973067
41194,,9.439310,-1.263713,2.633753,0.049144,0.020248,0.005770,-22.578898,-73.147452,-10.967567
41195,,9.462046,-1.282790,2.651742,0.048482,0.013592,-0.000333,-22.580097,-73.138948,-10.944782
41196,,9.472266,-1.191963,2.638725,0.046189,0.011009,-0.000628,-22.552468,-73.136356,-10.943913
41197,,9.458064,-1.200543,2.610405,0.041476,0.012995,-0.004603,-22.549990,-73.129117,-10.931037
41198,,9.437991,-1.258175,2.641120,0.043892,0.011836,-0.009895,-22.506948,-73.128116,-10.947663
41199,,9.437877,-1.256043,2.642541,0.047291,0.006120,-0.009754,-22.496988,-73.125713,-10.938614
41200,,9.461105,-1.273779,2.659431,0.046371,0.003848,-0.013337,-22.452325,-73.129685,-10.955462
41201,,9.439977,-1.260742,2.666865,0.055655,0.003933,-0.017426,-22.425644,-73.130156,-10.958538
41202,,9.409610,-1.217376,2.688194,0.048066,-0.000560,-0.017592,-22.375764,-73.137381,-10.979835
41203,,9.409880,-1.214333,2.688627,0.044139,-0.002161,-0.020750,-22.354097,-73.141828,-10.984064
41204,,9.439250,-1.182125,2.645797,0.035504,0.001320,-0.019228,-22.307193,-73.148400,-11.009782
41205,,9.382530,-1.228853,2.629764,0.030924,0.002652,-0.020132,-22.290065,-73.150162,-11.018568
41206,,9.382815,-1.226242,2.629965,0.025630,-0.005759,-0.019686,-22.253089,-73.160574,-11.039835
41207,,9.448967,-1.263829,2.632789,0.029551,-0.007263,-0.025185,-22.235040,-73.168746,-11.049358
41208,,9.453616,-1.279859,2.676812,0.029222,-0.012154,-0.032558,-22.177974,-73.185326,-11.089474
41209,,9.465766,-1.315717,2.684282,0.033665,-0.012843,-0.034725,-22.144651,-73.198540,-11.112636
41210,,9.445457,-1.301131,2.689540,0.036153,-0.020834,-0.038151,-22.079844,-73.220909,-11.156696
41211,,9.470359,-1.256290,2.703036,0.030786,-0.025542,-0.048214,-22.033548,-73.243771,-11.194156
41212,,9.457297,-1.320854,2.671946,0.026916,-0.020973,-0.050152,-21.952697,-73.268757,-11.260497
41213,,9.409579,-1.325552,2.616560,0.024894,-0.027960,-0.052940,-21.902342,-73.293849,-11.307718
41214,,9.428778,-1.388478,2.689429,0.039793,-0.030671,-0.058119,-21.806500,-73.325640,-11.382001
41215,,9.444732,-1.311527,2.716047,0.055551,-0.037278,-0.060930,-21.730787,-73.357344,-11.437217
41216,,9.528590,-1.284113,2.768111,0.057558,-0.030293,-0.058134,-21.623891,-73.388866,-11.512402
41217,,9.477776,-1.286639,2.793981,0.052435,-0.020175,-0.054038,-21.549546,-73.409903,-11.568303
41218,,9.446090,-1.289630,2.791322,0.056750,-0.026724,-0.058944,-21.438603,-73.439618,-11.648186
41219,,9.492160,-1.312604,2.799310,0.055428,-0.020848,-0.054445,-21.362080,-73.460991,-11.703291
41220,,9.503090,-1.276097,2.783317,0.058747,-0.019737,-0.056149,-21.249587,-73.486314,-11.783588
41221,,9.494698,-1.239334,2.796416,0.048331,-0.011545,-0.051929,-21.174983,-73.502088,-11.839765
41222,,9.493496,-1.223858,2.773438,0.037238,-0.013096,-0.046328,-21.087503,-73.521758,-11.906827
41223,,9.510354,-1.277759,2.825947,0.027624,-0.008479,-0.041280,-21.041126,-73.533563,-11.947332
41224,,9.558709,-1.304466,2.754737,0.021762,0.004899,-0.036507,-20.967565,-73.541544,-12.009128
41225,,9.542045,-1.309384,2.806765,0.028934,0.007960,-0.036608,-20.917622,-73.543519,-12.051302
41226,,9.534774,-1.344760,2.845382,0.024746,0.013876,-0.028629,-20.850379,-73.545043,-12.104739
41227,,9.544251,-1.252190,2.831097,0.020447,0.013923,-0.023382,-20.825185,-73.541006,-12.126246
41228,,9.553506,-1.279965,2.819438,0.011641,0.027648,-0.016661,-20.777714,-73.532690,-12.166908
41229,,9.508159,-1.308311,2.813736,0.007585,0.029789,-0.014246,-20.765024,-73.518166,-12.184872
