// Start Time: Unknown
// Update Rate: 100.0Hz
// Filter Profile: human (46.1)
// Firmware Version: 4.3.5
PacketCounter,SampleTimeFine,Acc_X,Acc_Y,Acc_Z,Gyr_X,Gyr_Y,Gyr_Z,Roll,Pitch,Yaw
38751,,9.825974,-0.514714,0.301868,-0.010259,0.027385,-0.020631,-59.767025,-86.523715,-34.623088
38752,,9.824955,-0.524995,0.325307,-0.006226,0.021270,-0.020033,-58.344720,-86.401357,-36.367338
38753,,9.822780,-0.531798,0.294165,-0.005989,0.024693,-0.016863,-58.925358,-86.462777,-35.635189
38754,,9.826049,-0.509238,0.308662,0.004917,0.020518,-0.017955,-58.673557,-86.465486,-35.884648
38755,,9.851305,-0.498706,0.288719,0.004649,0.017020,-0.014421,-58.462057,-86.468542,-36.093619
38756,,9.827158,-0.493871,0.291065,0.005665,0.015507,-0.015948,-58.258480,-86.471661,-36.294330
38757,,9.829348,-0.483787,0.326132,0.002525,0.018676,-0.013980,-58.041635,-86.472909,-36.510140
38758,,9.826144,-0.503109,0.315585,0.006829,0.016062,-0.016913,-57.827628,-86.476235,-36.720632
38759,,9.827234,-0.489256,0.296229,0.010350,0.018386,-0.015148,-57.601418,-86.478116,-36.941329
38760,,9.822989,-0.520887,0.306457,0.010808,0.009242,-0.014261,-57.451271,-86.482166,-37.085555
38761,,9.850400,-0.502088,0.319344,0.017997,0.015963,-0.010171,-57.265999,-86.482420,-37.260851
38762,,9.800962,-0.506793,0.343607,0.022623,0.018135,-0.007323,-57.074049,-86.480312,-37.440177
38763,,9.827266,-0.484778,0.302460,0.026868,0.014808,-0.008205,-56.901890,-86.479911,-37.597240
38764,,9.829368,-0.475505,0.337514,0.024770,0.017114,-0.003108,-56.738521,-86.476035,-37.746700
38765,,9.830400,-0.462986,0.318123,0.020169,0.015585,-0.001301,-56.598725,-86.472311,-37.875181
38766,,9.824985,-0.508418,0.349816,0.019175,0.017743,0.004880,-56.475305,-86.464373,-37.987828
38767,,9.870078,-0.536259,0.337866,0.018883,0.013602,0.003760,-56.375993,-86.459011,-38.076480
38768,,9.892083,-0.548598,0.305390,0.029063,0.015075,0.005326,-56.270620,-86.451682,-38.165371
38769,,9.875300,-0.491813,0.310922,0.037785,0.011849,0.006737,-56.196934,-86.445181,-38.217526
38770,,9.849945,-0.501304,0.334260,0.038073,0.015978,0.007853,-56.093189,-86.436344,-38.299615
38771,,9.856229,-0.460216,0.360462,0.039174,0.015818,0.008936,-56.002143,-86.427798,-38.368375
38772,,9.808872,-0.442297,0.342274,0.035677,0.014141,0.011827,-55.934965,-86.417648,-38.415204
38773,,9.806682,-0.452112,0.310632,0.031429,0.017460,0.012700,-55.845872,-86.407432,-38.486416
38774,,9.802265,-0.486255,0.321533,0.029365,0.019824,0.011085,-55.736455,-86.395794,-38.579191
38775,,9.825370,-0.487215,0.268583,0.037270,0.020875,0.012530,-55.619956,-86.385247,-38.674467
38776,,9.879997,-0.453096,0.293872,0.038286,0.019352,0.011008,-55.509869,-86.373774,-38.762792
38777,,9.883080,-0.433077,0.308251,0.036223,0.021714,0.009391,-55.382104,-86.365791,-38.869917
38778,,9.859940,-0.418219,0.290032,0.031809,0.022313,0.005048,-55.224513,-86.356137,-39.009556
38779,,9.884940,-0.425214,0.346169,0.032826,0.020791,0.003527,-55.073343,-86.352714,-39.142373
38780,,9.837644,-0.406737,0.328288,0.034883,0.018413,0.005142,-54.944381,-86.344255,-39.251568
38781,,9.810196,-0.424753,0.318781,0.035026,0.020472,0.005694,-54.797686,-86.341304,-39.378317
38782,,9.829080,-0.458298,0.274676,0.035835,0.016178,0.005671,-54.688244,-86.333297,-39.467406
38783,,9.788192,-0.397972,0.280430,0.036562,0.010522,0.003044,-54.605263,-86.335982,-39.529430
38784,,9.810314,-0.410353,0.247481,0.035105,0.005831,0.002902,-54.557837,-86.332668,-39.556796
38785,,9.787275,-0.394970,0.227793,0.028720,0.010168,-0.000459,-54.470760,-86.339862,-39.627425
38786,,9.772632,-0.328478,0.265525,0.023814,0.003871,-0.004410,-54.406016,-86.340624,-39.678613
38787,,9.823854,-0.328946,0.352716,0.020590,0.005689,-0.005065,-54.325876,-86.354681,-39.747015
38788,,9.841670,-0.373622,0.328683,0.012978,0.008778,-0.005410,-54.226100,-86.354240,-39.839532
38789,,9.833305,-0.423897,0.271990,0.007280,0.007431,-0.004687,-54.121500,-86.369480,-39.940247
38790,,9.849968,-0.480814,0.269042,0.009338,0.005061,-0.003067,-54.062941,-86.369204,-39.993551
38791,,9.882502,-0.432879,0.326523,0.013789,0.004490,-0.005428,-54.018240,-86.385313,-40.029002
38792,,9.857176,-0.440672,0.348867,0.010613,0.006346,-0.012789,-53.897669,-86.389067,-40.143674
38793,,9.832211,-0.432907,0.295241,0.007850,-0.000953,-0.012513,-53.809232,-86.410033,-40.228524
38794,,9.832274,-0.431531,0.295163,0.012301,-0.001525,-0.014874,-53.733372,-86.417386,-40.297454
38795,,9.815656,-0.372616,0.298456,0.013178,-0.005111,-0.016942,-53.669268,-86.442413,-40.353972
38796,,9.811412,-0.404026,0.307135,-0.001296,-0.003916,-0.015600,-53.614201,-86.450880,-40.409881
38797,,9.810331,-0.414506,0.327973,-0.000132,-0.003368,-0.016566,-53.528577,-86.477446,-40.496268
38798,,9.810403,-0.413056,0.327655,-0.003482,-0.002950,-0.013119,-53.480253,-86.484452,-40.546682
38799,,9.808156,-0.436017,0.369740,-0.010200,-0.002779,-0.010878,-53.394614,-86.510393,-40.638156
38800,,9.854597,-0.450096,0.335106,-0.012214,-0.000380,-0.019206,-53.296986,-86.519279,-40.743007
38801,,9.852667,-0.457530,0.301892,-0.014240,0.003321,-0.011518,-53.216247,-86.541949,-40.829992
38802,,9.854734,-0.447027,0.335184,-0.014562,-0.002151,-0.021931,-53.116734,-86.552656,-40.938035
38803,,9.874739,-0.481390,0.343354,-0.015790,-0.003404,-0.018915,-53.017099,-86.578221,-41.046973
38804,,9.877976,-0.458609,0.355007,-0.020323,-0.004208,-0.019158,-52.950971,-86.588339,-41.124889
38805,,9.873802,-0.490007,0.363603,-0.021409,-0.003394,-0.015589,-52.909802,-86.607003,-41.178212
38806,,9.872762,-0.500475,0.384360,-0.024716,-0.002950,-0.018849,-52.837539,-86.616498,-41.264798
38807,,9.887679,-0.564884,0.347165,-0.017776,0.000318,-0.017934,-52.743472,-86.631241,-41.369831
38808,,9.928764,-0.624092,0.342803,-0.021251,-0.000670,-0.010384,-52.700830,-86.636003,-41.424794
38809,,9.910091,-0.749297,0.269860,-0.012292,0.000204,-0.001140,-52.724780,-86.641093,-41.408601
38810,,9.888730,-0.915741,0.315282,0.001336,0.005252,0.024918,-52.831698,-86.627629,-41.300819
38811,,10.046795,-1.207441,0.329380,0.020426,0.009505,0.063113,-53.206161,-86.593459,-40.916881
38812,,10.002658,-1.546550,0.422754,0.050152,0.038709,0.112520,-53.523089,-86.528154,-40.570746
38813,,9.898060,-1.977263,0.637034,0.115585,0.083226,0.169618,-53.886625,-86.420554,-40.145812
38814,,9.784512,-2.279949,0.876707,0.186977,0.133575,0.224986,-53.999542,-86.271032,-39.925548
38815,,9.932869,-2.606774,0.989134,0.290023,0.192159,0.298521,-54.256669,-86.040064,-39.507656
38816,,10.078848,-2.917243,1.070942,0.408321,0.266175,0.390924,-54.126049,-85.768934,-39.404386
38817,,10.186680,-3.096853,0.877173,0.539719,0.311707,0.485113,-54.384831,-85.389714,-38.839317
38818,,10.321356,-3.088609,0.581310,0.717391,0.324194,0.564956,-54.419214,-85.018260,-38.392652
38819,,10.312322,-2.764903,0.454620,0.855385,0.320103,0.626993,-55.004036,-84.540222,-37.319930
38820,,10.261273,-2.573928,0.310229,0.949640,0.304196,0.676745,-55.252456,-84.122367,-36.523851
38821,,10.267641,-2.215285,0.392778,0.976466,0.275226,0.729967,-56.109269,-83.605829,-35.107293
38822,,10.555836,-1.969387,0.522451,0.897518,0.267929,0.801573,-56.681598,-83.138435,-34.013721
38823,,10.819753,-1.985494,0.879146,0.787370,0.314772,0.889350,-57.620914,-82.522566,-32.624221
38824,,10.918563,-2.068274,1.250465,0.670766,0.388394,0.980411,-58.046565,-81.928778,-31.807060
38825,,10.813201,-2.397742,1.520486,0.587009,0.466068,1.065147,-58.645139,-81.192979,-30.902362
38826,,10.581754,-2.621906,1.454610,0.592007,0.513309,1.128139,-58.826149,-80.488339,-30.375958
38827,,10.454556,-2.833294,1.253643,0.652272,0.531311,1.196998,-59.190778,-79.666225,-29.652677
38828,,10.404317,-3.012584,1.167490,0.715421,0.543002,1.273925,-59.337215,-78.880593,-29.087030
38829,,10.461131,-3.031696,1.256913,0.727260,0.558439,1.351750,-59.659266,-77.974802,-28.363322
38830,,10.540243,-3.144643,1.398695,0.709088,0.595458,1.429398,-59.786676,-77.096713,-27.817321
38831,,10.581744,-3.307724,1.469659,0.678859,0.631985,1.515177,-60.046030,-76.109020,-27.192187
38832,,10.481667,-3.459047,1.394370,0.669086,0.668986,1.605807,-60.153733,-75.122146,-26.685796
38833,,10.311956,-3.438750,1.270628,0.675991,0.675901,1.690644,-60.415855,-74.052134,-26.067089
38834,,10.288662,-3.353199,1.257520,0.633913,0.690099,1.780302,-60.585177,-72.972120,-25.512340
38835,,10.290107,-3.355016,1.272177,0.536515,0.705293,1.871333,-60.926768,-71.803070,-24.877853
38836,,10.359669,-3.436021,1.385189,0.420749,0.736986,1.953761,-61.190051,-70.622335,-24.345642
38837,,10.389657,-3.477301,1.534800,0.314191,0.770350,2.030468,-61.580678,-69.327675,-23.776929
38838,,10.364845,-3.591332,1.676300,0.208002,0.812635,2.103233,-61.872027,-68.049462,-23.336789
38839,,10.218551,-3.717237,1.863008,0.124478,0.845176,2.172093,-62.254872,-66.631754,-22.858818
38840,,10.072946,-3.931725,1.914580,0.053643,0.861352,2.232739,-62.570331,-65.273057,-22.480234
38841,,9.953074,-4.173038,1.858601,0.007388,0.854993,2.295808,-62.981934,-63.792879,-22.033821
38842,,9.898185,-4.301266,1.914906,-0.036066,0.851658,2.353524,-63.343184,-62.373029,-21.652382
38843,,9.860906,-4.448171,1.972536,-0.090045,0.843554,2.407212,-63.787530,-60.845283,-21.221011
38844,,9.825223,-4.771788,2.059643,-0.146636,0.826515,2.457074,-64.204275,-59.376057,-20.837785
38845,,9.874109,-4.972357,2.083242,-0.177201,0.802690,2.498535,-64.687508,-57.818354,-20.406749
38846,,9.714645,-5.267168,2.078258,-0.168755,0.783732,2.515267,-65.100094,-56.326517,-20.030956
38847,,9.404716,-5.562495,2.007551,-0.113254,0.763984,2.509905,-65.506223,-54.779226,-19.634969
38848,,9.157160,-5.895064,2.006243,-0.039725,0.731169,2.498681,-65.815914,-53.305854,-19.281068
38849,,8.909483,-6.040628,2.026651,0.051432,0.714163,2.496637,-66.103729,-51.782782,-18.902394
38850,,8.831323,-6.047280,2.188869,0.102051,0.699262,2.490844,-66.303977,-50.318987,-18.570310
38851,,8.674028,-6.185303,2.225455,0.138262,0.696462,2.497124,-66.511064,-48.805670,-18.218513
38852,,8.456731,-6.307503,2.264181,0.205803,0.690320,2.483488,-66.619155,-47.346489,-17.915354
38853,,8.221140,-6.509834,2.304995,0.294866,0.669138,2.473252,-66.713228,-45.859097,-17.580840
38854,,8.115691,-6.525800,2.284182,0.376033,0.634969,2.466989,-66.723365,-44.420594,-17.263206
38855,,7.928062,-6.441731,2.288587,0.423385,0.604822,2.447706,-66.746456,-42.968766,-16.909748
38856,,7.782383,-6.237523,2.352559,0.425807,0.573303,2.433005,-66.728623,-41.562027,-16.574166
38857,,7.661043,-6.196009,2.477025,0.360979,0.561836,2.414892,-66.777067,-40.146853,-16.218301
38858,,7.467499,-6.298830,2.532332,0.299404,0.555969,2.403083,-66.811150,-38.759539,-15.895392
38859,,7.244731,-6.503202,2.610314,0.245431,0.538592,2.378473,-66.903349,-37.378947,-15.554108
38860,,6.980693,-6.700205,2.575525,0.222366,0.524228,2.344439,-66.962409,-36.029073,-15.242853
38861,,6.712007,-6.785547,2.572286,0.254399,0.498929,2.303779,-67.029332,-34.705055,-14.914281
38862,,6.508146,-6.735549,2.640573,0.282269,0.463775,2.266418,-67.044830,-33.409403,-14.598588
38863,,6.406164,-6.620258,2.708156,0.271562,0.431968,2.225144,-67.094037,-32.149231,-14.262392
38864,,6.297728,-6.623922,2.787269,0.254883,0.418459,2.180914,-67.110961,-30.908516,-13.951581
38865,,6.062357,-6.695790,2.778540,0.227174,0.394070,2.146489,-67.167587,-29.706381,-13.625188
38866,,5.819086,-6.805783,2.730219,0.221671,0.367538,2.102253,-67.192846,-28.518168,-13.313100
38867,,5.544111,-6.815886,2.742715,0.254039,0.344384,2.029087,-67.217001,-27.396197,-12.997160
38868,,5.234256,-6.877384,2.788171,0.309744,0.314570,1.945452,-67.174357,-26.302497,-12.699580
38869,,5.011341,-6.733458,2.876938,0.397239,0.275509,1.853658,-67.101623,-25.294557,-12.392509
38870,,4.919850,-6.507733,2.863786,0.468498,0.260986,1.750399,-66.950725,-24.316530,-12.113369
38871,,4.621144,-6.341145,2.915668,0.524795,0.255224,1.655863,-66.778973,-23.423924,-11.844232
38872,,4.369426,-6.097599,2.953332,0.558422,0.246754,1.567203,-66.555062,-22.547121,-11.599361
38873,,4.238292,-5.887684,3.062945,0.535300,0.229288,1.493469,-66.359015,-21.752138,-11.353634
38874,,3.911353,-5.960010,3.099444,0.514151,0.233765,1.416908,-66.144578,-20.958818,-11.134689
38875,,3.622964,-6.245439,3.014778,0.513258,0.222671,1.355000,-65.942045,-20.243312,-10.917611
38876,,3.441872,-6.474656,2.967722,0.549480,0.195719,1.285702,-65.699608,-19.529066,-10.706024
38877,,3.322468,-6.507175,3.018567,0.543716,0.182434,1.212147,-65.470174,-18.900544,-10.498937
38878,,3.200762,-6.478283,3.081227,0.497656,0.167720,1.146253,-65.247993,-18.267245,-10.302715
38879,,3.062167,-6.429295,3.268858,0.397444,0.166042,1.084414,-65.090973,-17.711072,-10.116023
38880,,3.009698,-6.474504,3.493758,0.256655,0.168908,1.028933,-64.994720,-17.139473,-9.947799
38881,,2.879731,-6.631091,3.620530,0.107187,0.162268,0.970742,-64.990719,-16.643895,-9.787960
38882,,2.646166,-6.848221,3.652002,-0.003218,0.158481,0.901564,-65.032819,-16.141064,-9.646822
38883,,2.497551,-7.117914,3.625071,-0.085848,0.127286,0.839074,-65.129904,-15.721211,-9.503678
38884,,2.447953,-7.508078,3.568020,-0.122779,0.096046,0.787780,-65.239239,-15.292169,-9.359436
38885,,2.447263,-7.697267,3.581556,-0.144207,0.076258,0.750262,-65.367379,-14.928153,-9.213654
38886,,2.420497,-7.877133,3.631777,-0.174756,0.051956,0.723962,-65.506034,-14.542272,-9.063851
38887,,2.356343,-7.976722,3.632042,-0.216928,0.029198,0.697433,-65.676061,-14.214201,-8.908424
38888,,2.311361,-8.135437,3.535485,-0.238382,0.009838,0.663544,-65.850701,-13.868980,-8.753321
38889,,2.127915,-8.317545,3.440680,-0.219096,-0.025584,0.632042,-66.022856,-13.584926,-8.586926
38890,,2.014739,-8.338463,3.380028,-0.193297,-0.074807,0.578516,-66.175397,-13.303027,-8.409008
38891,,2.001209,-8.152222,3.328206,-0.192745,-0.111086,0.523432,-66.335964,-13.092036,-8.224364
38892,,2.006071,-7.770668,3.439112,-0.261586,-0.132182,0.467264,-66.526867,-12.880718,-8.043695
38893,,2.010406,-7.468132,3.557076,-0.409891,-0.144725,0.418677,-66.808863,-12.729017,-7.867413
38894,,2.002695,-7.123976,3.878334,-0.598544,-0.159141,0.380836,-67.190113,-12.567591,-7.694400
38895,,1.960862,-6.829840,4.023861,-0.827605,-0.155303,0.338169,-67.704870,-12.457125,-7.533805
38896,,1.784781,-6.865333,3.823123,-1.016686,-0.165699,0.283740,-68.320488,-12.345740,-7.381668
38897,,1.842091,-7.115992,3.485473,-1.100943,-0.174957,0.241594,-68.984482,-12.286325,-7.234957
38898,,1.905991,-7.502558,3.262387,-1.121819,-0.175889,0.215971,-69.657568,-12.209974,-7.093993
38899,,1.922245,-7.890614,3.119291,-1.107164,-0.169878,0.182635,-70.319389,-12.176690,-6.964492
38900,,1.952714,-8.367798,2.997657,-1.062076,-0.169592,0.151892,-70.954266,-12.130644,-6.841345
38901,,1.870110,-8.906137,2.698172,-0.959959,-0.178295,0.119062,-71.529406,-12.129229,-6.720649
38902,,1.849577,-9.473400,2.416239,-0.790386,-0.196587,0.078067,-72.008672,-12.125835,-6.596979
38903,,1.831757,-9.938744,2.301685,-0.564407,-0.209100,0.042456,-72.359677,-12.167520,-6.472938
38904,,1.894079,-9.942200,2.346295,-0.340882,-0.210661,0.027493,-72.581276,-12.192714,-6.350358
38905,,1.932905,-9.380464,2.528002,-0.219863,-0.190575,0.008573,-72.734349,-12.246310,-6.241872
38906,,1.938085,-8.650467,2.696885,-0.230531,-0.195906,-0.007041,-72.889917,-12.287201,-6.133350
38907,,2.082304,-8.027501,2.875260,-0.383605,-0.206486,-0.016262,-73.138503,-12.354856,-6.019841
38908,,2.340149,-7.780543,3.023973,-0.630448,-0.210241,-0.009916,-73.525123,-12.398723,-5.903326
38909,,2.450891,-8.012948,3.081503,-0.908106,-0.181814,0.010687,-74.070666,-12.446081,-5.798978
38910,,2.463384,-8.666905,2.918397,-1.101026,-0.156308,0.047064,-74.722599,-12.448077,-5.703103
38911,,2.418188,-9.288697,2.809064,-1.180908,-0.133909,0.092659,-75.419497,-12.441113,-5.613322
38912,,2.390464,-9.836955,2.659363,-1.170292,-0.120383,0.127241,-76.109163,-12.391292,-5.526300
38913,,2.340111,-10.198984,2.557328,-1.089050,-0.099773,0.141146,-76.749730,-12.350160,-5.450170
38914,,2.358286,-10.230588,2.552437,-0.966452,-0.082862,0.125227,-77.317579,-12.294777,-5.386039
38915,,2.340887,-10.129727,2.471408,-0.828151,-0.068170,0.100490,-77.802968,-12.270082,-5.334481
38916,,2.305470,-10.013207,2.337474,-0.684875,-0.059594,0.067356,-78.204874,-12.243315,-5.291732
38917,,2.215524,-9.843148,2.098463,-0.548005,-0.051411,0.045555,-78.525592,-12.245991,-5.257042
38918,,2.121574,-9.714061,1.902402,-0.431868,-0.044736,0.031009,-78.779757,-12.237503,-5.227343
38919,,2.148710,-9.617208,1.872512,-0.357613,-0.054183,0.023875,-78.991223,-12.251418,-5.193637
38920,,2.255977,-9.382558,1.858298,-0.303353,-0.035919,0.020311,-79.170415,-12.247781,-5.170268
38921,,2.147127,-9.082697,1.807338,-0.259353,0.001391,-0.003151,-79.318189,-12.270132,-5.171544
38922,,2.056070,-8.806358,1.744717,-0.214911,0.025390,-0.046723,-79.437659,-12.297658,-5.190772
38923,,1.913996,-8.475426,1.765488,-0.177745,0.038817,-0.106218,-79.531525,-12.373616,-5.224674
38924,,1.856084,-8.275812,1.644940,-0.181191,0.042093,-0.155996,-79.627083,-12.461060,-5.265046
38925,,1.813457,-8.302251,1.486599,-0.195949,0.037063,-0.185763,-79.729353,-12.581356,-5.306185
38926,,1.812020,-8.538695,1.386214,-0.236188,0.014743,-0.192624,-79.858962,-12.692384,-5.334261
38927,,1.904128,-8.900268,1.367593,-0.271097,-0.000469,-0.192066,-80.009164,-12.819176,-5.353829
38928,,2.008264,-9.203217,1.404605,-0.289953,0.004702,-0.192938,-80.170876,-12.931519,-5.375562
38929,,2.135809,-9.448505,1.478531,-0.282402,0.009059,-0.186513,-80.327074,-13.053341,-5.399353
38930,,2.205756,-9.660092,1.489625,-0.275303,0.017552,-0.176480,-80.479122,-13.155278,-5.426316
38931,,2.172553,-9.953006,1.359819,-0.257521,0.007543,-0.155744,-80.622367,-13.259162,-5.445598
38932,,2.159455,-10.222476,1.186334,-0.212099,-0.012005,-0.142588,-80.742917,-13.344811,-5.451668
38933,,2.157879,-10.417040,1.219811,-0.136395,-0.025153,-0.130104,-80.822707,-13.436143,-5.448931
38934,,2.161794,-10.529184,1.319034,-0.053887,-0.027579,-0.115110,-80.855357,-13.507691,-5.443129
38935,,2.103905,-10.347168,1.470189,0.019190,-0.031160,-0.095782,-80.848577,-13.578806,-5.433337
38936,,2.055610,-9.963721,1.630394,0.069637,-0.024864,-0.080587,-80.810856,-13.630584,-5.425880
38937,,2.121779,-9.631895,1.607637,0.075659,-0.029068,-0.062360,-80.772314,-13.681255,-5.414150
38938,,2.237426,-9.580708,1.450364,0.055447,-0.025371,-0.040959,-80.743679,-13.710684,-5.402707
38939,,2.276014,-9.633690,1.362832,0.034047,-0.025739,-0.022215,-80.729424,-13.737547,-5.389122
38940,,2.253472,-9.796534,1.270910,0.039989,-0.037593,-0.005666,-80.712139,-13.748158,-5.367224
38941,,2.212214,-9.969646,1.115387,0.087460,-0.060631,0.005414,-80.673265,-13.762006,-5.330573
38942,,2.280553,-10.055622,1.139542,0.162294,-0.077961,0.023807,-80.592170,-13.759758,-5.282365
38943,,2.302411,-10.050826,1.367924,0.237217,-0.077666,0.031541,-80.471483,-13.759763,-5.233035
38944,,2.289628,-9.917976,1.664579,0.302838,-0.077892,0.039696,-80.310222,-13.748733,-5.183293
38945,,2.377007,-9.717112,1.964912,0.352106,-0.057457,0.037625,-80.121267,-13.742943,-5.145004
38946,,2.457095,-9.483650,2.318512,0.364430,-0.028645,0.047416,-79.918111,-13.722983,-5.123010
38947,,2.434842,-9.356298,2.338100,0.380731,0.000121,0.032221,-79.703579,-13.714431,-5.118872
38948,,2.375527,-9.261238,2.340643,0.434427,0.032253,0.012296,-79.451087,-13.708118,-5.135791
38949,,2.432533,-9.309207,2.252761,0.502824,0.059597,0.003078,-79.156291,-13.709569,-5.169493
38950,,2.460372,-9.286308,2.347720,0.544663,0.089062,0.001553,-78.832578,-13.702921,-5.220441
38951,,2.459555,-9.132638,2.337474,0.551822,0.118261,-0.001094,-78.500499,-13.699726,-5.288739
38952,,2.411704,-9.019779,2.273764,0.541030,0.138054,-0.003506,-78.172055,-13.689677,-5.368501
38953,,2.357422,-9.179687,2.081726,0.511641,0.143164,0.001663,-77.858823,-13.681283,-5.450922
38954,,2.285239,-9.456549,1.973065,0.513474,0.138565,0.011182,-77.546594,-13.662096,-5.529006
38955,,2.315814,-9.693761,1.867314,0.511390,0.144244,0.032990,-77.234392,-13.634948,-5.607840
38956,,2.190826,-9.818587,1.836211,0.542239,0.151462,0.040447,-76.904976,-13.596932,-5.689235
38957,,2.185037,-9.754151,1.919138,0.590934,0.155785,0.042944,-76.546852,-13.561334,-5.772757
38958,,2.165847,-9.497967,2.092497,0.616475,0.161890,0.054886,-76.174204,-13.512896,-5.857600
38959,,2.103121,-9.305969,2.217292,0.610125,0.171676,0.053394,-75.804117,-13.467703,-5.948009
38960,,2.105335,-9.351074,2.233298,0.601068,0.169695,0.057624,-75.439650,-13.415578,-6.036222
38961,,2.064994,-9.652829,2.139980,0.589241,0.159873,0.059568,-75.083833,-13.367064,-6.118231
38962,,1.909326,-9.968480,1.956524,0.646917,0.139777,0.061866,-74.697490,-13.315972,-6.188058
38963,,1.770834,-10.077706,1.909786,0.749699,0.113678,0.056737,-74.256943,-13.274193,-6.243296
38964,,1.665880,-10.003637,1.984310,0.881338,0.105095,0.046235,-73.740502,-13.236139,-6.295184
38965,,1.592480,-9.899477,2.056695,1.037238,0.086050,0.023509,-73.139220,-13.214869,-6.339197
38966,,1.632218,-9.615646,2.266443,1.192344,0.074597,-0.004881,-72.446703,-13.208908,-6.381994
38967,,1.573532,-9.537802,2.315693,1.344259,0.068394,-0.058632,-71.669729,-13.233208,-6.430122
38968,,1.547377,-9.745977,2.334883,1.527409,0.042324,-0.111661,-70.784726,-13.289987,-6.474983
38969,,1.524334,-10.024180,2.221957,1.806642,0.006772,-0.173919,-69.746419,-13.385608,-6.512314
38970,,1.585004,-10.025620,2.164089,2.166440,-0.052897,-0.243426,-68.500392,-13.530725,-6.534570
38971,,2.255650,-9.255109,2.791500,2.519537,-0.076183,-0.304378,-67.058451,-13.710435,-6.559455
38972,,2.633460,-7.844122,3.382116,2.701823,-0.025370,-0.367222,-65.493203,-13.912884,-6.633391
38973,,2.560307,-6.540419,4.083896,2.625651,-0.005061,-0.422283,-63.972008,-14.135132,-6.735785
38974,,2.330460,-5.753251,4.281182,2.346966,-0.027276,-0.448934,-62.601735,-14.375873,-6.841358
38975,,2.155253,-5.344233,4.377232,1.913699,-0.065201,-0.443019,-61.489272,-14.620793,-6.929474
38976,,2.104351,-5.494100,4.468770,1.420215,-0.076407,-0.419768,-60.655253,-14.856396,-7.010983
38977,,2.269354,-6.129940,4.578428,0.970375,-0.087365,-0.388994,-60.085321,-15.078603,-7.079969
38978,,2.444306,-6.648501,4.662332,0.660376,-0.075303,-0.360565,-59.689161,-15.282867,-7.149609
38979,,2.624815,-6.821718,4.936726,0.393506,-0.046349,-0.334202,-59.445738,-15.465514,-7.226833
38980,,2.631490,-6.771438,4.961993,0.130923,-0.025473,-0.314602,-59.348877,-15.631996,-7.309996
38981,,2.573248,-6.807159,4.803221,-0.133297,-0.019674,-0.306446,-59.403860,-15.793382,-7.393587
38982,,2.513376,-7.263200,4.597711,-0.361292,-0.024883,-0.289094,-59.590642,-15.947239,-7.469170
38983,,2.517672,-7.911650,4.425288,-0.476163,-0.031769,-0.259889,-59.846699,-16.089763,-7.531874
38984,,2.424525,-8.469306,4.357866,-0.474711,-0.024061,-0.239752,-60.102426,-16.219508,-7.591925
38985,,2.469158,-8.836701,4.492249,-0.404316,-0.034311,-0.224832,-60.321140,-16.345511,-7.641585
38986,,2.493433,-8.861265,4.708964,-0.322472,-0.040115,-0.216639,-60.493935,-16.468717,-7.685534
38987,,2.606899,-8.681741,4.737411,-0.252479,-0.047800,-0.234511,-60.627406,-16.602996,-7.730099
38988,,2.753169,-8.342871,4.677943,-0.200674,-0.067042,-0.259010,-60.730842,-16.755121,-7.771868
38989,,2.895074,-8.075043,4.643509,-0.195559,-0.073848,-0.280590,-60.831728,-16.919590,-7.815780
38990,,2.939369,-8.010107,4.523995,-0.210660,-0.064507,-0.292560,-60.937558,-17.087945,-7.868156
38991,,2.812046,-8.072115,4.455728,-0.214402,-0.066436,-0.293667,-61.046725,-17.257218,-7.919246
38992,,2.752074,-7.992666,4.474762,-0.209683,-0.067339,-0.303863,-61.151332,-17.432213,-7.972849
38993,,2.718349,-7.926098,4.454694,-0.211956,-0.070665,-0.318295,-61.257431,-17.615112,-8.028286
38994,,2.729623,-7.899814,4.385304,-0.218816,-0.079239,-0.337536,-61.366071,-17.810493,-8.084758
38995,,2.817662,-7.947065,4.236207,-0.229542,-0.100620,-0.352072,-61.483824,-18.018607,-8.133487
38996,,2.939363,-7.855165,4.183822,-0.242519,-0.106224,-0.360903,-61.608240,-18.233343,-8.181658
38997,,3.015877,-7.760660,4.159925,-0.270586,-0.102459,-0.381723,-61.747141,-18.457092,-8.237020
38998,,2.901353,-7.749202,4.125620,-0.280794,-0.099870,-0.419016,-61.887064,-18.699672,-8.304219
38999,,2.932676,-7.763593,4.011416,-0.273022,-0.111235,-0.463973,-62.021190,-18.967681,-8.377313
39000,,2.982873,-7.706328,3.918292,-0.240129,-0.123901,-0.508988,-62.133380,-19.262544,-8.456233
39001,,3.141827,-7.579080,3.847056,-0.211785,-0.133790,-0.544451,-62.228595,-19.577621,-8.539097
39002,,3.229724,-7.511575,3.806289,-0.219866,-0.154204,-0.574991,-62.327827,-19.914297,-8.619584
39003,,3.280688,-7.389043,3.724414,-0.244511,-0.184248,-0.593094,-62.445966,-20.267992,-8.688016
39004,,3.248106,-7.287499,3.649833,-0.299425,-0.205962,-0.628252,-62.594811,-20.645741,-8.754299
39005,,3.282897,-7.250656,3.570209,-0.342878,-0.221902,-0.669209,-62.768849,-21.048712,-8.821972
39006,,3.302610,-7.262861,3.576807,-0.377115,-0.223053,-0.716037,-62.956550,-21.476052,-8.901453
39007,,3.247658,-7.354812,3.521378,-0.389812,-0.225106,-0.749393,-63.149957,-21.921438,-8.987290
39008,,3.252273,-7.302461,3.497435,-0.382807,-0.243048,-0.772806,-63.338952,-22.383463,-9.068953
39009,,3.379068,-7.130415,3.523865,-0.396998,-0.252397,-0.781300,-63.538848,-22.852697,-9.145721
39010,,3.483325,-7.095420,3.505799,-0.421025,-0.253741,-0.808389,-63.748137,-23.336226,-9.228316
39011,,3.648144,-7.096266,3.412837,-0.450106,-0.256847,-0.843678,-63.972657,-23.839277,-9.316524
39012,,3.772472,-7.134020,3.326508,-0.482391,-0.259663,-0.888869,-64.209558,-24.366346,-9.414342
39013,,3.929904,-7.147897,3.396829,-0.513052,-0.251535,-0.930590,-64.459197,-24.913897,-9.525411
39014,,4.082314,-7.106171,3.536375,-0.576876,-0.234891,-0.968545,-64.735121,-25.476883,-9.654751
39015,,4.074745,-7.191987,3.590334,-0.659710,-0.226672,-1.000833,-65.054337,-26.056136,-9.794271
39016,,4.090892,-7.269294,3.647514,-0.736303,-0.231606,-1.040783,-65.412348,-26.657181,-9.939156
39017,,4.072602,-7.485833,3.460374,-0.794898,-0.246869,-1.087053,-65.803956,-27.287717,-10.083394
39018,,4.144049,-7.722377,3.261927,-0.776129,-0.277212,-1.133902,-66.186506,-27.949804,-10.218437
39019,,4.271780,-7.948379,3.090772,-0.683169,-0.297089,-1.190744,-66.516214,-28.647993,-10.351978
39020,,4.478563,-7.922042,3.032624,-0.542861,-0.310399,-1.260173,-66.759236,-29.385340,-10.493154
39021,,4.710271,-7.718922,3.099993,-0.374888,-0.316063,-1.345344,-66.897530,-30.168802,-10.650744
39022,,4.849581,-7.438616,3.091713,-0.227146,-0.317368,-1.435793,-66.936147,-31.000870,-10.831536
39023,,5.028050,-7.175749,3.118667,-0.094887,-0.333737,-1.514313,-66.892211,-31.878308,-11.023888
39024,,5.239037,-6.963405,3.174835,0.005232,-0.338115,-1.580709,-66.776634,-32.791163,-11.235230
39025,,5.289587,-6.746877,3.226677,0.062040,-0.370144,-1.625476,-66.629027,-33.734924,-11.445604
39026,,5.457861,-6.452337,3.206426,0.102149,-0.398138,-1.676377,-66.452934,-34.710825,-11.655469
39027,,5.541468,-6.036407,3.223117,0.104924,-0.400021,-1.749598,-66.257980,-35.724155,-11.896165
39028,,5.706596,-5.630707,3.288406,0.070752,-0.395778,-1.843317,-66.056585,-36.785801,-12.168960
39029,,6.049884,-5.341562,3.340908,-0.004910,-0.365076,-1.934327,-65.860685,-37.887402,-12.503168
39030,,6.540439,-5.298095,3.410681,-0.121273,-0.328308,-2.011296,-65.690976,-39.019462,-12.888563
39031,,7.026642,-5.511722,3.431794,-0.233014,-0.292442,-2.045358,-65.548863,-40.159565,-13.326388
39032,,7.327543,-5.957037,3.186626,-0.291603,-0.282170,-2.054465,-65.422039,-41.301599,-13.777545
39033,,7.489880,-6.200807,3.001949,-0.282403,-0.273972,-2.080198,-65.263851,-42.458315,-14.257074
39034,,7.495322,-6.391496,2.699399,-0.256928,-0.306590,-2.107812,-65.086322,-43.632101,-14.733529
39035,,7.641922,-6.222087,2.691247,-0.190247,-0.355076,-2.139081,-64.867906,-44.838008,-15.202247
39036,,7.957027,-5.524223,2.742307,-0.180327,-0.394012,-2.195126,-64.633424,-46.075803,-15.676870
39037,,8.183182,-5.167993,2.852113,-0.235542,-0.401211,-2.273538,-64.391121,-47.360797,-16.194678
39038,,8.328739,-5.134881,2.933655,-0.296703,-0.368889,-2.337918,-64.125999,-48.663143,-16.780709
39039,,8.130855,-5.427657,2.819083,-0.322917,-0.338536,-2.349431,-63.823302,-49.969268,-17.423122
39040,,7.952024,-5.716325,2.544147,-0.279714,-0.347836,-2.310506,-63.485225,-51.247991,-18.068547
39041,,7.989849,-5.454404,2.221155,-0.183884,-0.378481,-2.265428,-63.090008,-52.516559,-18.704154
39042,,8.253050,-4.906265,1.901693,-0.137940,-0.424930,-2.254978,-62.671822,-53.781464,-19.326098
39043,,8.787021,-4.150542,1.752953,-0.156972,-0.509475,-2.273072,-62.278605,-55.083284,-19.919872
39044,,9.577160,-3.437991,1.626043,-0.297552,-0.572900,-2.304519,-61.967859,-56.407888,-20.502650
39045,,10.318488,-3.059147,1.828519,-0.568466,-0.576868,-2.338280,-61.764305,-57.758873,-21.133215
39046,,10.544067,-3.345916,2.152229,-0.919270,-0.484695,-2.354916,-61.647503,-59.082543,-21.889127
39047,,9.890504,-4.324232,2.260739,-1.176404,-0.369931,-2.340894,-61.542729,-60.379042,-22.790866
39048,,9.290307,-5.179964,2.018694,-1.170234,-0.317158,-2.302711,-61.362524,-61.628830,-23.764011
39049,,9.276457,-5.375341,1.649971,-1.022374,-0.313527,-2.256818,-61.058537,-62.864371,-24.769566
39050,,9.528900,-5.349957,1.319414,-0.843009,-0.339600,-2.209203,-60.645804,-64.068640,-25.771272
39051,,10.025497,-4.940271,1.323102,-0.699875,-0.376416,-2.193722,-60.126590,-65.282864,-26.789978
39052,,10.466757,-4.613623,1.279007,-0.609206,-0.392878,-2.191955,-59.497843,-66.485644,-27.861767
39053,,10.528384,-4.232170,1.558021,-0.537916,-0.393834,-2.190476,-58.737718,-67.693157,-29.022670
39054,,10.251334,-4.244582,1.934724,-0.562455,-0.378922,-2.160332,-57.889397,-68.864487,-30.283200
39055,,9.743967,-4.883139,1.855460,-0.580808,-0.363036,-2.086557,-56.972061,-69.998039,-31.619605
39056,,9.540310,-5.239211,1.498143,-0.426679,-0.362415,-2.000398,-55.910478,-71.071933,-33.005303
39057,,9.650070,-5.197576,0.892457,-0.150648,-0.389507,-1.912181,-54.673539,-72.111944,-34.401306
39058,,9.737640,-4.674162,0.524809,0.121531,-0.439039,-1.858215,-53.248679,-73.124817,-35.821848
39059,,9.969869,-3.631087,0.430925,0.283151,-0.519696,-1.832360,-51.719039,-74.149790,-37.248816
39060,,10.391446,-2.436783,0.532973,0.238922,-0.583550,-1.804613,-50.147830,-75.167189,-38.736598
39061,,10.768118,-1.457172,0.738756,0.033231,-0.607712,-1.767161,-48.591983,-76.173408,-40.324785
39062,,10.781351,-0.716786,1.019018,-0.299640,-0.610432,-1.718166,-47.062822,-77.141652,-42.073282
39063,,10.729576,-0.451608,1.082495,-0.655420,-0.612394,-1.668345,-45.596047,-78.087599,-43.961352
39064,,10.630803,-0.402203,1.072542,-0.969453,-0.602003,-1.619372,-44.097289,-78.990254,-46.057844
39065,,10.486684,-0.622482,0.931236,-1.222388,-0.588681,-1.566584,-42.539847,-79.864767,-48.356269
39066,,10.433882,-1.015964,0.857794,-1.389845,-0.573460,-1.525842,-40.786020,-80.695123,-50.944049
39067,,10.428850,-1.366707,0.776074,-1.463916,-0.557230,-1.482173,-38.755635,-81.497607,-53.849636
39068,,10.475867,-1.752334,0.729800,-1.440763,-0.535923,-1.448817,-36.261841,-82.250324,-57.203075
39069,,10.448185,-1.915683,0.699110,-1.348253,-0.518407,-1.414991,-33.186826,-82.969935,-61.084143
39070,,10.404228,-2.040737,0.743548,-1.244591,-0.510175,-1.383645,-29.399662,-83.635125,-65.615799
39071,,10.343211,-1.990823,0.776978,-1.095423,-0.501247,-1.350686,-24.736342,-84.256100,-70.937659
39072,,10.304710,-1.817968,0.693924,-0.978221,-0.505232,-1.307785,-19.128821,-84.807935,-77.134315
39073,,10.293448,-1.789530,0.647764,-0.891910,-0.501264,-1.248728,-12.550832,-85.291701,-84.250981
39074,,10.241090,-1.702642,0.553256,-0.820710,-0.494180,-1.182982,-5.033255,-85.677892,-92.264125
39075,,10.234954,-1.627333,0.463115,-0.758686,-0.480771,-1.117116,3.323277,-85.973604,-101.079739
39076,,10.269251,-1.602412,0.525753,-0.724379,-0.463472,-1.038612,12.069913,-86.158355,-110.263551
39077,,10.310063,-1.506031,0.557235,-0.714954,-0.425400,-0.944273,20.623122,-86.248547,-119.247033
39078,,10.267704,-1.530807,0.632289,-0.732128,-0.380464,-0.834601,28.288056,-86.248501,-127.349361
39079,,10.294576,-1.635513,0.758075,-0.756585,-0.327435,-0.718854,34.770919,-86.199919,-134.281611
39080,,10.303368,-1.645612,0.903128,-0.777120,-0.266419,-0.594557,39.796783,-86.113502,-139.765667
39081,,10.239777,-1.624705,0.994278,-0.809486,-0.196791,-0.484202,43.533730,-86.019715,-143.977113
39082,,10.222867,-1.615848,1.004271,-0.794071,-0.130396,-0.380970,46.075495,-85.916961,-146.981910
39083,,10.180029,-1.584078,0.893671,-0.758221,-0.074962,-0.271801,47.630542,-85.839442,-148.977267
39084,,10.084711,-1.593918,0.795247,-0.703770,-0.013750,-0.167183,48.230680,-85.771514,-149.983972
39085,,10.088163,-1.528032,0.708121,-0.637802,0.039844,-0.073887,48.073179,-85.732385,-150.193175
39086,,10.071346,-1.307990,0.659191,-0.576279,0.087323,0.008476,47.253071,-85.700210,-149.702530
39087,,10.104099,-1.043056,0.628352,-0.535265,0.127953,0.079543,45.858924,-85.691611,-148.612705
39088,,10.089140,-0.744036,0.635129,-0.510218,0.165576,0.138298,43.983351,-85.678507,-147.025626
39089,,10.122799,-0.463379,0.702495,-0.503337,0.208243,0.185179,41.609794,-85.672527,-144.935273
39090,,10.058539,-0.202313,0.604633,-0.508273,0.231319,0.218423,38.980001,-85.650803,-142.590651
39091,,9.989742,-0.086645,0.456378,-0.521471,0.238562,0.231216,36.207989,-85.633080,-140.111094
39092,,9.984496,-0.213795,0.333074,-0.531622,0.229393,0.241642,33.491030,-85.603140,-137.692339
39093,,9.931228,-0.312817,0.291411,-0.514354,0.214941,0.248152,30.767734,-85.584440,-135.257486
39094,,9.982979,-0.293869,0.063236,-0.498435,0.185433,0.245741,28.274658,-85.560556,-133.044072
39095,,10.262790,-0.056057,0.286899,-0.453265,0.220392,0.237335,25.697161,-85.520035,-130.720271
39096,,10.227756,0.204849,0.391675,-0.454061,0.247603,0.220915,23.285671,-85.442950,-128.562928
39097,,10.204280,0.196738,0.365038,-0.490760,0.255201,0.188618,21.036731,-85.358602,-126.589951
39098,,10.081355,-0.229842,0.419628,-0.495004,0.274192,0.161105,19.091286,-85.242570,-124.923222
39099,,10.008568,-0.603868,0.484934,-0.420424,0.262777,0.136447,17.364792,-85.134335,-123.433591
39100,,9.952347,-0.660678,0.630892,-0.348495,0.250151,0.136723,15.863958,-85.019513,-122.128326
39101,,9.926295,-0.637146,0.719649,-0.311236,0.243271,0.150011,14.277230,-84.917612,-120.715803
39102,,9.916548,-0.738946,0.798364,-0.285639,0.247812,0.181295,12.666307,-84.804078,-119.263421
39103,,9.860761,-0.867431,0.686270,-0.261468,0.236685,0.205436,10.895404,-84.705480,-117.636937
39104,,9.783845,-0.942370,0.586756,-0.215967,0.229649,0.215581,9.268002,-84.598141,-116.127433
39105,,9.765979,-0.882060,0.481026,-0.158623,0.208465,0.204459,7.702119,-84.507243,-114.647280
39106,,9.746926,-0.817026,0.443030,-0.092029,0.190424,0.199528,6.380967,-84.413776,-113.373646
39107,,9.731961,-0.697904,0.418696,-0.039990,0.169669,0.178093,5.144431,-84.337183,-112.155801
39108,,9.715068,-0.611090,0.394370,-0.004190,0.152380,0.162152,4.181158,-84.258683,-111.190901
39109,,9.691982,-0.589912,0.405767,0.030204,0.130761,0.150308,3.211288,-84.199341,-110.200448
39110,,9.692950,-0.550097,0.467001,0.053875,0.107128,0.145450,2.433344,-84.143230,-109.388192
39111,,9.695621,-0.473841,0.559410,0.063837,0.093139,0.143864,1.558234,-84.102616,-108.473527
39112,,9.698973,-0.416813,0.599587,0.070495,0.081373,0.139554,0.853150,-84.058883,-107.724826
39113,,9.699559,-0.393653,0.640174,0.086417,0.070290,0.135866,0.056989,-84.028945,-106.876468
39114,,9.656876,-0.314622,0.658086,0.098207,0.062101,0.121573,-0.515366,-83.994376,-106.245174
39115,,9.704738,-0.328994,0.666079,0.111251,0.051624,0.102984,-1.105962,-83.973528,-105.589170
39116,,9.752719,-0.341325,0.673120,0.122152,0.040242,0.079347,-1.427595,-83.950829,-105.196154
39117,,9.753675,-0.348708,0.642391,0.149279,0.026443,0.053123,-1.724807,-83.944326,-104.813260
39118,,9.688220,-0.278407,0.603131,0.159875,0.004490,0.027763,-1.749532,-83.942659,-104.697082
39119,,9.717016,-0.248910,0.568340,0.162556,-0.006581,0.007439,-1.798193,-83.955825,-104.556504
39120,,9.713928,-0.282502,0.569764,0.169707,-0.011148,-0.003267,-1.652478,-83.963652,-104.606068
39121,,9.642566,-0.276586,0.530775,0.180938,-0.023624,-0.007569,-1.612212,-83.986984,-104.544341
39122,,9.613947,-0.304860,0.563464,0.173418,-0.040930,-0.009816,-1.432681,-84.011950,-104.625776
39123,,9.639398,-0.287140,0.576791,0.160033,-0.052176,-0.004205,-1.426873,-84.051735,-104.541461
39124,,9.639769,-0.285599,0.571322,0.152591,-0.070577,-0.009141,-1.265376,-84.093648,-104.616762
39125,,9.684837,-0.340490,0.552327,0.155592,-0.087678,-0.014315,-1.210458,-84.154023,-104.584384
39126,,9.760511,-0.328481,0.528455,0.157410,-0.103593,-0.017920,-0.997501,-84.214914,-104.708634
39127,,9.782017,-0.341532,0.571909,0.156835,-0.119043,-0.019119,-0.916050,-84.293432,-104.702201
39128,,9.855677,-0.345038,0.563559,0.152038,-0.124380,-0.021290,-0.682240,-84.366194,-104.850479
39129,,9.902029,-0.380321,0.555362,0.149296,-0.140802,-0.027518,-0.553615,-84.457313,-104.895764
39130,,9.899697,-0.390029,0.594705,0.160659,-0.143727,-0.028192,-0.265223,-84.541089,-105.093884
39131,,9.900620,-0.364750,0.630872,0.174253,-0.156154,-0.036934,-0.057735,-84.641038,-105.203976
39132,,9.875389,-0.352483,0.683868,0.172988,-0.158278,-0.038907,0.319111,-84.732956,-105.483788
39133,,9.881686,-0.276047,0.697625,0.163524,-0.164961,-0.041685,0.565161,-84.837783,-105.638695
39134,,9.815971,-0.195989,0.674195,0.151018,-0.159586,-0.043554,0.981220,-84.930121,-105.970441
39135,,9.836543,-0.242809,0.680902,0.130238,-0.159546,-0.044191,1.243738,-85.031573,-106.160922
39136,,9.810430,-0.269649,0.667941,0.121367,-0.151950,-0.048573,1.700470,-85.119101,-106.550458
39137,,9.881223,-0.326192,0.608483,0.121400,-0.145076,-0.043746,1.973829,-85.211975,-106.756796
39138,,9.902905,-0.354522,0.632951,0.123931,-0.135939,-0.042624,2.414115,-85.290042,-107.128267
39139,,9.952541,-0.353542,0.621401,0.122851,-0.132071,-0.042387,2.695013,-85.375225,-107.341239
39140,,9.974302,-0.381602,0.647193,0.137019,-0.122124,-0.045260,3.181643,-85.444908,-107.751607
39141,,9.997811,-0.393810,0.655600,0.144369,-0.106960,-0.044140,3.496888,-85.515340,-107.986576
39142,,10.025282,-0.352928,0.677674,0.157193,-0.100517,-0.044903,4.006655,-85.572215,-108.408495
39143,,9.979071,-0.328016,0.649094,0.167963,-0.084820,-0.042385,4.328027,-85.629669,-108.635968
39144,,9.957714,-0.283207,0.672239,0.173947,-0.076305,-0.042598,4.836321,-85.672346,-109.046735
39145,,9.958762,-0.281474,0.631369,0.164983,-0.063913,-0.036064,5.108434,-85.717791,-109.226456
39146,,9.904537,-0.338780,0.666021,0.167293,-0.052761,-0.022823,5.459505,-85.747700,-109.483353
39147,,9.950533,-0.399188,0.581966,0.185831,-0.045192,-0.021949,5.628300,-85.782974,-109.547451
39148,,9.999845,-0.374090,0.663802,0.213427,-0.036789,-0.015984,5.947121,-85.804010,-109.745498
39149,,10.077471,-0.326870,0.640379,0.241267,-0.028470,-0.021518,6.132823,-85.829611,-109.794671
39150,,10.090610,-0.144195,0.689595,0.271632,-0.014089,-0.029435,6.574685,-85.836730,-110.082651
39151,,10.128690,0.060663,0.789130,0.272050,-0.005760,-0.040215,6.906693,-85.847928,-110.260810
39152,,10.094301,0.264956,0.818850,0.240778,0.012728,-0.050475,7.470638,-85.837995,-110.688927
39153,,9.997132,0.244775,0.666175,0.186636,0.033622,-0.055882,7.839286,-85.825135,-110.952875
39154,,9.921655,0.187983,0.519091,0.134026,0.032232,-0.059900,8.387950,-85.802885,-111.427026
39155,,9.814035,0.030375,0.383108,0.087062,0.023645,-0.069723,8.816504,-85.794052,-111.808255
39156,,9.807369,-0.077124,0.294232,0.058302,0.017619,-0.071359,9.418890,-85.778434,-112.379806
39157,,9.701554,-0.188671,0.255910,0.046418,0.006261,-0.068727,9.836487,-85.779113,-112.773413
39158,,9.670481,-0.290932,0.199088,0.051725,-0.004137,-0.066492,10.422194,-85.775525,-113.332036
39159,,9.614754,-0.387768,0.174870,0.063641,-0.020227,-0.061502,10.832160,-85.791569,-113.708097
39160,,9.587526,-0.437977,0.126631,0.072027,-0.035169,-0.050481,11.355113,-85.806513,-114.192131
39161,,9.561333,-0.470249,0.092115,0.084892,-0.051659,-0.037605,11.647016,-85.842763,-114.437584
39162,,9.580415,-0.533256,0.129955,0.100031,-0.066328,-0.021762,12.023498,-85.878106,-114.758650
39163,,9.579776,-0.523491,0.192517,0.116590,-0.070355,-0.003359,12.102899,-85.929027,-114.772817
39164,,9.654004,-0.509720,0.202502,0.133047,-0.078394,0.013653,12.248436,-85.975280,-114.843373
39165,,9.704235,-0.467944,0.294951,0.151957,-0.081105,0.030263,12.094531,-86.036478,-114.603337
39166,,9.781755,-0.399160,0.349325,0.172392,-0.074891,0.041966,12.026320,-86.084179,-114.437046
39167,,9.885961,-0.294143,0.434260,0.188375,-0.069635,0.046389,11.725396,-86.140837,-114.028753
39168,,9.915023,-0.222105,0.488479,0.189958,-0.058116,0.040086,11.644545,-86.178844,-113.839739
39169,,9.967614,-0.174984,0.494590,0.190191,-0.052033,0.035321,11.390990,-86.224129,-113.477900
39170,,9.971304,-0.118943,0.534667,0.188387,-0.042266,0.024917,11.404228,-86.251463,-113.384109
39171,,9.972653,-0.100769,0.546005,0.181976,-0.031180,0.019415,11.237445,-86.283057,-113.113954
39172,,9.975374,-0.067217,0.538517,0.175357,-0.028091,0.011211,11.334848,-86.300890,-113.112005
39173,,9.957694,0.017547,0.506785,0.162033,-0.020737,0.004302,11.266678,-86.324782,-112.952116
39174,,9.932244,0.000421,0.489894,0.145184,-0.015358,0.000072,11.421752,-86.334218,-113.025294
39175,,9.886393,0.034021,0.448365,0.120066,-0.019135,-0.003966,11.399918,-86.356188,-112.935926
39176,,9.886456,0.035270,0.446877,0.087507,-0.010257,-0.011903,11.618972,-86.361390,-113.106336
39177,,9.857013,-0.029486,0.455402,0.060293,-0.008520,-0.014144,11.636078,-86.376184,-113.090298
39178,,9.826553,-0.118768,0.415483,0.042184,-0.005175,-0.013393,11.833728,-86.378331,-113.265291
39179,,9.821647,-0.190414,0.390761,0.033075,-0.005510,-0.013684,11.826946,-86.391461,-113.240938
39180,,9.840935,-0.258824,0.400677,0.029725,-0.004010,-0.014391,12.024507,-86.392812,-113.423004
39181,,9.836057,-0.330644,0.376121,0.031882,-0.004922,-0.010100,11.983471,-86.406057,-113.365003
39182,,9.860612,-0.336515,0.342086,0.037561,-0.002578,-0.005799,12.106445,-86.407623,-113.467845
39183,,9.809394,-0.366581,0.346234,0.044297,-0.002326,-0.001033,11.984116,-86.420549,-113.321259
39184,,9.831360,-0.407550,0.317470,0.048731,-0.001393,0.006187,12.003736,-86.422896,-113.314143
39185,,9.855512,-0.405073,0.351885,0.059803,-0.005488,0.014149,11.755576,-86.439426,-113.032572
39186,,9.831132,-0.404362,0.351211,0.071196,-0.005879,0.011972,11.743600,-86.444976,-112.980916
39187,,9.786305,-0.353548,0.325672,0.092763,-0.002255,0.019278,11.455698,-86.460244,-112.640605
39188,,9.816924,-0.269299,0.330206,0.102781,-0.006837,0.021379,11.376739,-86.467393,-112.503720
39189,,9.793747,-0.249785,0.343972,0.109559,-0.005901,0.024097,11.055055,-86.485145,-112.119924
39190,,9.775886,-0.167245,0.313286,0.115363,-0.004684,0.018931,10.999658,-86.490771,-111.999440
39191,,9.826990,-0.132922,0.342872,0.112118,-0.000483,0.016837,10.731675,-86.504567,-111.667984
39192,,9.832151,-0.065925,0.332382,0.096277,-0.001068,0.011789,10.723266,-86.507370,-111.605546
39193,,9.829557,-0.100461,0.337651,0.080510,-0.000895,0.004718,10.548003,-86.520046,-111.385134
39194,,9.852528,-0.117010,0.357757,0.071335,-0.000660,0.009155,10.548071,-86.522343,-111.345518
39195,,9.829546,-0.101348,0.337711,0.062370,0.000515,0.004818,10.357999,-86.534203,-111.120685
39196,,9.824357,-0.169520,0.348249,0.059910,-0.006108,0.002616,10.420921,-86.538902,-111.150609
39197,,9.823156,-0.189063,0.333240,0.058748,-0.009333,-0.001860,10.306692,-86.555620,-111.003837
39198,,9.825645,-0.149067,0.361254,0.056644,-0.006440,-0.005503,10.444032,-86.559682,-111.110202
39199,,9.823100,-0.182249,0.365720,0.048440,-0.014848,-0.007256,10.383307,-86.578974,-111.022941
39200,,9.797591,-0.199137,0.349796,0.039540,-0.011643,-0.010934,10.571525,-86.585405,-111.190101
39201,,9.819555,-0.239020,0.320266,0.034920,-0.016082,-0.014731,10.575870,-86.604636,-111.175776
39202,,9.819639,-0.237569,0.318764,0.037137,-0.016253,-0.012473,10.786793,-86.613478,-111.367068
39203,,9.844078,-0.237885,0.317379,0.024546,-0.021033,-0.015399,10.800811,-86.635472,-111.368374
