// Start Time: Unknown
// Update Rate: 100.0Hz
// Filter Profile: human (46.1)
// Firmware Version: 4.3.5
PacketCounter,SampleTimeFine,Acc_X,Acc_Y,Acc_Z,Gyr_X,Gyr_Y,Gyr_Z,Roll,Pitch,Yaw
42854,,9.413861,-1.818986,2.525045,-0.015855,0.028355,0.005504,-35.674322,-71.594738,-8.959108
42855,,9.422027,-1.812288,2.559829,-0.009854,0.025643,0.005981,-35.651241,-71.580443,-8.997780
42856,,9.451360,-1.786942,2.547837,-0.008096,0.027707,0.003218,-35.632612,-71.566467,-9.022306
42857,,9.473729,-1.793868,2.545166,-0.007558,0.021254,0.003040,-35.614595,-71.555506,-9.049522
42858,,9.427093,-1.781151,2.556745,-0.009534,0.022049,-0.004632,-35.591543,-71.546780,-9.079581
42859,,9.449648,-1.787664,2.553677,-0.014381,0.019998,-0.000060,-35.566985,-71.537418,-9.122777
42860,,9.449102,-1.788000,2.555460,-0.010740,0.022492,0.000378,-35.551226,-71.526808,-9.145880
42861,,9.423642,-1.757148,2.520072,-0.014322,0.019180,0.002921,-35.540582,-71.517476,-9.167012
42862,,9.414205,-1.765474,2.489019,-0.016083,0.017115,0.005684,-35.540673,-71.507604,-9.176632
42863,,9.376458,-1.746117,2.532467,-0.017612,0.016917,0.007333,-35.545881,-71.498896,-9.178316
42864,,9.415925,-1.804999,2.554247,-0.024927,0.012338,0.004963,-35.554794,-71.491491,-9.183978
42865,,9.414547,-1.793711,2.534179,-0.017847,0.015049,0.008447,-35.557899,-71.483555,-9.191173
42866,,9.437058,-1.801138,2.530678,-0.017442,0.019602,0.003243,-35.552910,-71.473337,-9.206973
42867,,9.396681,-1.822538,2.492913,-0.008702,0.016648,-0.002934,-35.529725,-71.468906,-9.238944
42868,,9.413249,-1.794889,2.538164,-0.001664,0.010809,-0.003371,-35.515255,-71.464988,-9.255211
42869,,9.412195,-1.781862,2.518178,0.001104,0.010157,-0.008537,-35.491594,-71.466262,-9.277263
42870,,9.412123,-1.781098,2.518989,-0.000950,0.007043,-0.007647,-35.474510,-71.465519,-9.295857
42871,,9.403243,-1.787819,2.487087,-0.009095,0.007869,-0.011709,-35.446770,-71.469432,-9.334107
42872,,9.410412,-1.833557,2.459473,-0.009763,0.001856,-0.006885,-35.440935,-71.470854,-9.346161
42873,,9.412345,-1.857927,2.501289,-0.005639,-0.001283,-0.009607,-35.426395,-71.480341,-9.367916
42874,,9.396556,-1.818511,2.496323,-0.007371,-0.003759,-0.005357,-35.426877,-71.483877,-9.371863
42875,,9.365674,-1.831828,2.489216,-0.005260,-0.001464,-0.003266,-35.433757,-71.490833,-9.363734
42876,,9.412785,-1.857004,2.500318,-0.003671,-0.002085,-0.001934,-35.435239,-71.492447,-9.364385
42877,,9.426987,-1.791982,2.481313,-0.001850,-0.000837,-0.001712,-35.441723,-71.500180,-9.357086
42878,,9.404860,-1.798044,2.506954,-0.008087,0.000005,-0.001080,-35.444855,-71.500527,-9.358665
42879,,9.404915,-1.798186,2.506648,-0.008581,-0.003321,-0.000349,-35.457540,-71.509710,-9.350549
42880,,9.428138,-1.804482,2.501313,-0.013930,-0.003555,-0.008086,-35.457775,-71.514053,-9.358713
42881,,9.406228,-1.810357,2.526292,-0.015924,-0.007490,-0.004216,-35.467792,-71.524291,-9.363272
42882,,9.397745,-1.817537,2.492551,-0.010792,-0.013343,-0.009348,-35.474185,-71.533626,-9.363061
42883,,9.429277,-1.803483,2.497737,-0.010995,-0.015622,-0.006747,-35.487343,-71.554494,-9.360035
42884,,9.384623,-1.802635,2.526637,-0.009758,-0.016469,-0.010265,-35.494969,-71.565608,-9.357908
42885,,9.376385,-1.809377,2.492247,-0.007133,-0.020216,-0.009851,-35.507790,-71.585316,-9.352917
42886,,9.409032,-1.807416,2.517942,-0.007194,-0.019395,-0.012831,-35.513284,-71.598635,-9.351500
42887,,9.431821,-1.800298,2.490417,-0.004851,-0.015232,-0.011850,-35.528465,-71.619941,-9.335240
42888,,9.378460,-1.806256,2.486700,-0.004661,-0.021910,-0.016887,-35.529389,-71.635770,-9.337086
42889,,9.426315,-1.830051,2.496036,-0.000759,-0.017956,-0.016066,-35.538613,-71.657308,-9.326203
42890,,9.434155,-1.795851,2.484783,-0.003196,-0.020889,-0.021515,-35.531190,-71.674190,-9.335941
42891,,9.468066,-1.805181,2.531152,0.000696,-0.025892,-0.023132,-35.527385,-71.703714,-9.343910
42892,,9.438125,-1.816539,2.522033,-0.000897,-0.025272,-0.024461,-35.518833,-71.723646,-9.353463
42893,,9.438264,-1.801665,2.498632,-0.001191,-0.026320,-0.026329,-35.519550,-71.750024,-9.354490
42894,,9.476552,-1.819364,2.454036,-0.000703,-0.022993,-0.027059,-35.504889,-71.769731,-9.370354
42895,,9.479595,-1.841769,2.493746,0.002414,-0.023411,-0.027379,-35.501649,-71.803041,-9.370760
42896,,9.426553,-1.846551,2.489900,0.004559,-0.021525,-0.023800,-35.487078,-71.820987,-9.383327
42897,,9.459606,-1.843002,2.515346,0.003775,-0.025900,-0.024937,-35.478648,-71.846067,-9.397757
42898,,9.422530,-1.807886,2.534302,0.003773,-0.025901,-0.024935,-35.467242,-71.866406,-9.407512
42899,,9.463557,-1.784460,2.571107,-0.005324,-0.023195,-0.023590,-35.475607,-71.893677,-9.402096
42900,,9.455568,-1.789984,2.536383,-0.011302,-0.020906,-0.022566,-35.471134,-71.910923,-9.413621
42901,,9.426481,-1.814413,2.548656,-0.018612,-0.016541,-0.022490,-35.470592,-71.932229,-9.430331
42902,,9.443471,-1.851540,2.551316,-0.015234,-0.015497,-0.022433,-35.462980,-71.946900,-9.447554
42903,,9.438469,-1.894672,2.579935,-0.010592,-0.015708,-0.024406,-35.448963,-71.964123,-9.477686
42904,,9.454090,-1.840029,2.580658,-0.005168,-0.011543,-0.025242,-35.427372,-71.977889,-9.503604
42905,,9.469966,-1.864166,2.563037,-0.001721,-0.011320,-0.022207,-35.413777,-71.994677,-9.523411
42906,,9.425578,-1.862014,2.592818,-0.003056,-0.009244,-0.023155,-35.391536,-72.006654,-9.548757
42907,,9.456188,-1.833666,2.577497,-0.003317,-0.010703,-0.023534,-35.376782,-72.020378,-9.572172
42908,,9.448956,-1.851556,2.564952,-0.007771,-0.008215,-0.024157,-35.354619,-72.032270,-9.600298
42909,,9.397665,-1.882060,2.604353,-0.007217,-0.005709,-0.021909,-35.348978,-72.043414,-9.608418
42910,,9.450096,-1.847812,2.563454,-0.010301,-0.005708,-0.020095,-35.331582,-72.052778,-9.633007
42911,,9.443726,-1.878770,2.572314,-0.011083,-0.001127,-0.018794,-35.324970,-72.054527,-9.647718
42912,,9.412072,-1.878299,2.544513,-0.011191,0.000106,-0.023261,-35.297550,-72.062221,-9.683365
42913,,9.413487,-1.889322,2.565352,-0.007079,0.001605,-0.013512,-35.294717,-72.061900,-9.690609
42914,,9.436822,-1.894312,2.560390,-0.002696,-0.000059,-0.015867,-35.273316,-72.067153,-9.714794
42915,,9.396067,-1.901431,2.500489,0.005584,0.002244,-0.017409,-35.256759,-72.062641,-9.732175
42916,,9.442452,-1.912360,2.490937,0.005951,0.002470,-0.012562,-35.232594,-72.065570,-9.754069
42917,,9.427405,-1.884819,2.507846,0.004650,0.004133,-0.012020,-35.227710,-72.064121,-9.756515
42918,,9.393217,-1.859943,2.439025,0.002084,0.007049,-0.009447,-35.205634,-72.063867,-9.778511
42919,,9.402176,-1.851634,2.472185,-0.001000,0.007048,-0.007634,-35.198836,-72.053444,-9.800763
42920,,9.378552,-1.910910,2.438099,0.001861,0.005179,-0.008337,-35.180280,-72.053624,-9.819309
42921,,9.464793,-1.901136,2.467515,0.003688,-0.002524,-0.010559,-35.189176,-72.050319,-9.811684
42922,,9.486921,-1.893792,2.441918,0.008357,0.005820,-0.008606,-35.165885,-72.050235,-9.831296
42923,,9.495957,-1.885202,2.474973,0.014115,0.001673,-0.008524,-35.171098,-72.043233,-9.821599
42924,,9.481998,-1.870279,2.512673,0.013598,-0.001245,-0.009282,-35.151063,-72.046601,-9.834635
42925,,9.481059,-1.856579,2.492014,0.014114,0.001673,-0.008523,-35.158831,-72.044459,-9.819025
42926,,9.473218,-1.875573,2.481157,0.015183,0.007099,-0.005518,-35.134888,-72.042701,-9.835172
42927,,9.381907,-1.862477,2.522568,0.010060,0.003972,-0.002812,-35.147966,-72.037513,-9.821798
42928,,9.396428,-1.809670,2.525267,0.012022,0.003585,0.003362,-35.142222,-72.034500,-9.820726
42929,,9.443504,-1.834778,2.536980,-0.003388,0.007908,0.002379,-35.171582,-72.022495,-9.790919
42930,,9.420173,-1.829031,2.542464,-0.001979,0.005014,0.006306,-35.176744,-72.017814,-9.786759
42931,,9.450873,-1.815736,2.549640,-0.004948,0.008113,0.002541,-35.200511,-72.004180,-9.771906
42932,,9.466865,-1.854968,2.554990,-0.004138,0.012080,0.005167,-35.198059,-71.996514,-9.777082
42933,,9.442274,-1.836599,2.540241,-0.000610,0.015820,0.001135,-35.205774,-71.976620,-9.781720
42934,,9.442931,-1.849265,2.562651,0.000985,0.015205,0.002463,-35.193257,-71.968290,-9.794481
42935,,9.463450,-1.830503,2.517358,0.004032,0.015617,-0.000837,-35.194103,-71.954099,-9.801553
42936,,9.486084,-1.836539,2.514311,0.005028,0.021863,-0.000810,-35.167774,-71.943725,-9.826464
42937,,9.439344,-1.824032,2.526242,0.000384,0.022066,0.001163,-35.163278,-71.942174,-9.838952
42938,,9.460784,-1.818052,2.502380,-0.007638,0.021219,0.003077,-35.150355,-71.931085,-9.857394
42939,,9.466599,-1.851960,2.455320,-0.004917,0.020993,-0.003580,-35.147238,-71.910735,-9.872898
42940,,9.442985,-1.845754,2.462187,-0.004298,0.022679,0.001647,-35.128884,-71.899336,-9.895101
42941,,9.374138,-1.839851,2.499903,-0.004041,0.024138,0.002027,-35.133082,-71.878327,-9.898392
42942,,9.387775,-1.853833,2.464494,-0.000100,0.018737,0.001897,-35.116713,-71.868631,-9.915993
42943,,9.433496,-1.866456,2.456439,-0.000358,0.017278,0.001518,-35.114229,-71.855008,-9.940669
42944,,9.440862,-1.846405,2.469827,0.000053,0.021427,-0.002190,-35.089031,-71.845410,-9.967632
42945,,9.417234,-1.839956,2.476868,-0.001027,0.024960,-0.002760,-35.084870,-71.827707,-9.977163
42946,,9.461950,-1.839723,2.448079,-0.002502,0.015385,-0.002060,-35.067456,-71.820857,-9.997477
42947,,9.462589,-1.852025,2.470680,-0.003359,0.020787,-0.003739,-35.068429,-71.809339,-10.000625
42948,,9.462123,-1.851769,2.472656,-0.003103,0.022246,-0.003358,-35.042705,-71.799707,-10.030022
42949,,9.454210,-1.805409,2.502436,-0.006927,0.017457,-0.001202,-35.052483,-71.785123,-10.028726
42950,,9.482340,-1.832899,2.429256,-0.008521,0.018072,-0.002532,-35.035281,-71.777124,-10.052427
42951,,9.459778,-1.839278,2.456790,-0.012432,0.023061,-0.000914,-35.052500,-71.761373,-10.031179
42952,,9.428306,-1.853462,2.451864,-0.011030,0.020165,0.003014,-35.042796,-71.750525,-10.048354
42953,,9.444395,-1.826401,2.497703,-0.009503,0.020372,0.001367,-35.050883,-71.737569,-10.055820
42954,,9.428234,-1.866718,2.476361,-0.007720,0.022037,0.000101,-35.033242,-71.726796,-10.079408
42955,,9.404643,-1.860339,2.483124,-0.000274,0.020789,-0.005538,-35.030572,-71.719729,-10.083454
42956,,9.411134,-1.827027,2.475573,0.003572,0.016622,-0.010132,-34.997394,-71.714898,-10.116550
42957,,9.434034,-1.832258,2.472303,0.003348,0.014753,-0.009023,-35.001934,-71.700070,-10.104092
42958,,9.456932,-1.837207,2.469264,0.005513,0.020979,-0.015483,-34.955950,-71.694804,-10.149425
42959,,9.434541,-1.841951,2.497155,0.004208,0.022642,-0.014944,-34.938685,-71.685896,-10.163577
42960,,9.435214,-1.852801,2.520490,0.010927,0.025154,-0.016300,-34.884456,-71.678890,-10.214275
42961,,9.481155,-1.863160,2.513552,0.012389,0.026182,-0.020923,-34.853001,-71.668502,-10.235633
42962,,9.451004,-1.887120,2.530327,0.019967,0.023294,-0.020599,-34.789545,-71.663691,-10.290523
42963,,9.448736,-1.859960,2.491233,0.019520,0.028101,-0.014452,-34.750959,-71.644963,-10.333723
42964,,9.441700,-1.824155,2.543127,0.020760,0.027259,-0.017966,-34.686916,-71.637277,-10.388859
42965,,9.449961,-1.880792,2.538918,0.017160,0.024337,-0.016924,-34.658532,-71.624462,-10.407697
42966,,9.457493,-1.858654,2.552846,0.016142,0.018501,-0.018445,-34.605231,-71.620955,-10.454267
42967,,9.427480,-1.882941,2.568840,0.012544,0.015579,-0.017405,-34.588666,-71.612428,-10.461794
42968,,9.499703,-1.936681,2.619413,0.019197,0.018914,-0.021733,-34.528711,-71.609690,-10.513477
42969,,9.416824,-2.046193,2.615035,0.036969,0.014560,-0.033673,-34.464443,-71.617442,-10.566852
42970,,9.343050,-2.080285,2.682644,0.062635,0.007966,-0.041917,-34.361486,-71.626447,-10.637638
42971,,9.316083,-2.124839,2.740553,0.101293,-0.005878,-0.054556,-34.269661,-71.648369,-10.657343
42972,,9.351658,-2.205088,2.772539,0.142829,-0.017271,-0.077913,-34.093749,-71.680877,-10.756377
42973,,9.218418,-2.258781,2.826412,0.199128,-0.026107,-0.101503,-33.883357,-71.728480,-10.862440
42974,,9.074338,-2.451945,2.881880,0.276644,-0.048438,-0.134851,-33.577195,-71.793805,-11.017821
42975,,8.837256,-2.629454,3.090200,0.391976,-0.081246,-0.174954,-33.215994,-71.879995,-11.156416
42976,,8.778462,-2.814146,3.423289,0.545140,-0.121866,-0.225821,-32.687867,-72.008293,-11.383198
42977,,8.677732,-2.972254,3.770170,0.744135,-0.146993,-0.289743,-32.025660,-72.153594,-11.612062
42978,,8.662320,-2.862731,4.201796,0.948380,-0.166104,-0.374475,-31.067769,-72.346263,-12.046901
42979,,8.883007,-2.586894,4.588647,1.110569,-0.160000,-0.465598,-29.902115,-72.543075,-12.595784
42980,,9.148871,-2.343918,4.886356,1.207704,-0.124526,-0.560782,-28.424697,-72.761323,-13.418174
42981,,9.356111,-2.124137,5.083701,1.231570,-0.052577,-0.659732,-26.722299,-72.941948,-14.452696
42982,,9.463548,-2.206085,5.187792,1.209789,0.016925,-0.743731,-24.759153,-73.117801,-15.779885
42983,,9.554861,-2.330930,5.548619,1.162980,0.076952,-0.801596,-22.699186,-73.235094,-17.204601
42984,,9.831676,-2.588479,5.864492,1.138575,0.144445,-0.845403,-20.447527,-73.335949,-18.873551
42985,,10.071521,-2.860599,6.158512,1.143007,0.211166,-0.853790,-18.164224,-73.359239,-20.533856
42986,,10.453573,-3.171648,6.623956,1.188548,0.304238,-0.833011,-15.789400,-73.331962,-22.300618
42987,,10.719815,-3.200695,6.861092,1.221740,0.395815,-0.773020,-13.520452,-73.189944,-23.921648
42988,,10.967283,-3.121361,6.920196,1.244916,0.507037,-0.701389,-11.312590,-72.993060,-25.482342
42989,,11.249339,-3.084131,6.845652,1.231211,0.626127,-0.597182,-9.384515,-72.661354,-26.722548
42990,,11.411132,-3.060423,6.717784,1.214592,0.744587,-0.476720,-7.635127,-72.280699,-27.825576
42991,,11.433591,-3.014988,6.889601,1.207444,0.867517,-0.349110,-6.232249,-71.773634,-28.515234
42992,,11.491140,-2.944524,7.009139,1.199464,0.988677,-0.216413,-5.011456,-71.223424,-29.075648
42993,,11.470691,-2.866851,7.205448,1.190883,1.116381,-0.091219,-4.130877,-70.547254,-29.218901
42994,,11.581572,-2.658013,7.354502,1.170244,1.243096,0.031892,-3.381866,-69.837253,-29.299637
42995,,11.585437,-2.255192,7.405208,1.087604,1.379211,0.158878,-3.014471,-68.964589,-28.997574
42996,,11.645138,-1.850809,7.240515,0.939580,1.507670,0.281652,-2.775037,-68.095736,-28.673531
42997,,11.620367,-1.529722,7.144744,0.741680,1.643586,0.391977,-2.913157,-67.051934,-28.039409
42998,,11.605289,-1.535035,7.000347,0.553140,1.774179,0.493277,-3.123025,-66.023939,-27.462253
42999,,11.453772,-1.733217,6.918086,0.405819,1.893072,0.585181,-3.602831,-64.826708,-26.636640
43000,,11.399166,-1.827857,6.885500,0.323674,1.992540,0.671041,-4.054217,-63.663913,-25.926634
43001,,11.391781,-1.833287,6.820094,0.243599,2.076077,0.751043,-4.685979,-62.349702,-25.003924
43002,,11.446393,-1.590882,6.790836,0.141289,2.133867,0.826072,-5.283571,-61.092515,-24.230429
43003,,11.560840,-1.367199,6.728164,-0.020565,2.191115,0.891048,-6.065244,-59.698852,-23.273397
43004,,11.584836,-1.425273,6.747159,-0.198923,2.259716,0.950504,-6.837832,-58.353026,-22.502173
43005,,11.395017,-1.854108,6.717309,-0.321989,2.319496,1.011235,-7.741898,-56.871503,-21.675907
43006,,11.291745,-2.354260,6.817111,-0.326922,2.355697,1.065303,-8.544613,-55.450778,-20.931839
43007,,11.105803,-2.427323,7.016574,-0.287430,2.369103,1.122350,-9.379041,-53.925011,-20.140065
43008,,11.014602,-2.265866,7.070693,-0.265386,2.378636,1.169952,-10.105116,-52.470166,-19.419892
43009,,10.998693,-2.031005,6.932517,-0.292277,2.389228,1.215479,-10.888828,-50.917910,-18.666923
43010,,10.827460,-2.133636,6.730844,-0.311250,2.411464,1.243530,-11.581405,-49.425646,-17.993889
43011,,10.565401,-2.384754,6.716203,-0.273733,2.426019,1.252166,-12.267453,-47.845370,-17.323695
43012,,10.391509,-2.601738,6.709828,-0.202435,2.432831,1.249990,-12.808922,-46.330928,-16.739159
43013,,10.335766,-2.825411,6.665205,-0.091444,2.431422,1.241870,-13.300861,-44.749168,-16.162220
43014,,10.218891,-3.129707,6.628542,0.097628,2.463980,1.222362,-13.584410,-43.214948,-15.669541
43015,,9.887209,-2.893398,6.716857,0.297293,2.448343,1.202921,-13.774886,-41.633960,-15.179591
43016,,9.746871,-2.302027,6.582182,0.421924,2.415467,1.187792,-13.818261,-40.129291,-14.739898
43017,,9.612137,-1.753690,6.443907,0.455578,2.418404,1.157492,-13.862619,-38.579591,-14.308278
43018,,9.233071,-1.473287,6.534660,0.412709,2.413202,1.133183,-13.857027,-37.083307,-13.927525
43019,,8.927468,-1.367918,6.603513,0.345084,2.386787,1.109601,-13.915641,-35.567724,-13.546673
43020,,8.663667,-1.450977,6.696564,0.271053,2.365193,1.095387,-13.955590,-34.102952,-13.200219
43021,,8.385973,-1.498942,6.835985,0.227092,2.331368,1.093371,-14.051654,-32.629384,-12.841920
43022,,8.115613,-1.400406,6.876828,0.177331,2.302107,1.091364,-14.126166,-31.199472,-12.503778
43023,,7.868709,-1.386135,6.711340,0.121180,2.280364,1.092841,-14.259868,-29.762197,-12.157404
43024,,7.646653,-1.414773,6.438369,0.071150,2.241012,1.084458,-14.375501,-28.366047,-11.830027
43025,,7.468552,-1.357105,6.194479,0.035760,2.195061,1.077620,-14.534622,-26.985751,-11.498829
43026,,7.176559,-1.374439,6.007252,-0.021381,2.162965,1.064695,-14.682389,-25.634296,-11.187144
43027,,6.857538,-1.303225,5.885748,-0.077265,2.105603,1.060609,-14.884641,-24.313305,-10.870546
43028,,6.485983,-1.213031,5.755746,-0.132529,2.048254,1.054217,-15.081456,-23.025098,-10.562904
43029,,6.186642,-1.141625,5.734885,-0.213029,1.972559,1.057542,-15.347263,-21.784179,-10.245375
43030,,5.954174,-1.055221,5.692385,-0.319067,1.916673,1.057815,-15.640728,-20.565615,-9.931803
43031,,5.453265,-0.956454,5.774079,-0.441573,1.874127,1.053947,-16.020643,-19.383720,-9.621146
43032,,4.998311,-0.907841,5.912414,-0.578614,1.800482,1.052423,-16.449087,-18.226268,-9.312389
43033,,4.589008,-0.957637,6.029782,-0.729578,1.738232,1.046991,-16.978089,-17.121425,-9.007184
43034,,4.323330,-1.369390,5.972913,-0.840337,1.667603,1.034243,-17.541567,-16.034736,-8.710683
43035,,4.040354,-1.766892,6.039647,-0.888491,1.595363,1.008890,-18.142338,-15.013204,-8.428436
43036,,3.936523,-2.127814,5.887674,-0.877502,1.516356,0.988409,-18.710974,-14.011479,-8.155245
43037,,3.653107,-2.476125,5.766927,-0.781943,1.463400,0.955333,-19.233820,-13.069687,-7.902067
43038,,3.325266,-2.663849,5.762687,-0.606720,1.381626,0.909502,-19.630285,-12.151324,-7.666471
43039,,3.120600,-2.518607,5.713956,-0.412531,1.289407,0.858627,-19.927123,-11.321406,-7.448443
43040,,2.880622,-2.217925,5.749118,-0.265639,1.205080,0.808578,-20.115456,-10.515576,-7.243975
43041,,2.634349,-2.132652,5.814109,-0.150681,1.126366,0.752049,-20.250433,-9.794923,-7.059277
43042,,2.439417,-2.151478,6.072596,-0.037430,1.057990,0.685918,-20.295982,-9.091637,-6.896566
43043,,2.216968,-2.151493,6.282337,0.045782,0.973014,0.623620,-20.306900,-8.479843,-6.753535
43044,,2.207323,-2.017211,6.425934,0.122752,0.892559,0.569817,-20.252806,-7.888518,-6.621299
43045,,2.002616,-1.784934,6.526594,0.134762,0.826049,0.515811,-20.204871,-7.378065,-6.507180
43046,,1.827990,-1.723568,6.598094,0.135895,0.766887,0.466187,-20.137069,-6.875066,-6.405278
43047,,1.553976,-1.729649,6.774619,0.136832,0.710625,0.409362,-20.080197,-6.448345,-6.325059
43048,,1.336469,-1.926871,7.028692,0.156332,0.650983,0.364128,-19.995713,-6.028021,-6.254535
43049,,1.314356,-2.262023,7.219738,0.227979,0.597742,0.313369,-19.880712,-5.680770,-6.202796
43050,,1.407370,-2.453907,7.429929,0.341501,0.538219,0.271141,-19.686692,-5.339605,-6.158881
43051,,1.433813,-2.405944,7.425798,0.457830,0.495924,0.230965,-19.436320,-5.063111,-6.129716
43052,,1.300109,-2.241753,7.431599,0.553586,0.460130,0.191599,-19.118163,-4.779638,-6.111165
43053,,1.241825,-2.025288,7.469967,0.611161,0.428974,0.153140,-18.776496,-4.554046,-6.108447
43054,,1.212103,-1.676968,7.666266,0.614042,0.390199,0.117710,-18.421687,-4.322303,-6.113969
43055,,1.213115,-1.359072,7.750781,0.533698,0.364566,0.090540,-18.121217,-4.142748,-6.130535
43056,,1.122533,-1.265369,8.075001,0.411870,0.353041,0.074259,-17.881249,-3.938917,-6.150766
43057,,0.992427,-1.290990,8.260818,0.258597,0.326846,0.055856,-17.735185,-3.785554,-6.177564
43058,,0.967323,-1.486441,8.266722,0.105669,0.309922,0.044708,-17.670295,-3.610319,-6.205357
43059,,1.009714,-1.692271,8.238579,-0.006560,0.283277,0.035798,-17.673694,-3.483556,-6.234699
43060,,0.928901,-1.929762,8.118608,-0.082020,0.259536,0.038848,-17.716817,-3.336855,-6.256874
43061,,0.822984,-2.043649,8.277438,-0.116857,0.231297,0.037932,-17.782613,-3.237590,-6.275921
43062,,0.841791,-2.145812,8.353111,-0.156392,0.204678,0.036226,-17.868876,-3.121335,-6.290221
43063,,0.784255,-2.387505,8.490299,-0.174945,0.200046,0.033205,-17.967114,-3.039301,-6.306533
43064,,0.795907,-2.663233,8.599869,-0.159781,0.182177,0.024035,-18.055209,-2.937526,-6.323869
43065,,0.775597,-2.703974,8.643757,-0.117795,0.164058,0.020307,-18.120245,-2.876731,-6.341055
43066,,0.753697,-2.611557,8.627135,-0.105350,0.147203,0.019038,-18.177363,-2.794945,-6.355109
43067,,0.850145,-2.412449,8.574109,-0.166634,0.131163,0.035821,-18.270804,-2.748631,-6.358097
43068,,0.939061,-2.401104,8.613324,-0.291331,0.127083,0.056754,-18.435642,-2.671047,-6.348276
43069,,0.928319,-2.358725,8.899799,-0.462718,0.127513,0.102375,-18.699740,-2.614177,-6.314742
43070,,0.966120,-2.105598,8.946297,-0.752440,0.097592,0.171493,-19.131757,-2.531187,-6.237951
43071,,0.978579,-1.917914,8.872946,-1.137113,0.075883,0.251763,-19.784952,-2.472870,-6.114903
43072,,0.876201,-1.798275,8.893140,-1.572425,0.062297,0.322967,-20.690251,-2.377099,-5.951556
43073,,0.822351,-1.631279,8.724633,-2.086663,0.029110,0.394935,-21.888781,-2.309791,-5.744784
43074,,0.548737,-1.591094,8.477403,-2.603122,0.015853,0.446971,-23.386973,-2.204498,-5.509746
43075,,0.379187,-1.309290,8.412543,-3.133898,-0.021192,0.468276,-25.184266,-2.134954,-5.257633
43076,,0.314358,-0.484651,8.874305,-3.898882,-0.074976,0.569295,-27.427019,-2.030461,-4.943913
43077,,0.494122,0.220218,9.205386,-4.963506,-0.090766,0.682046,-30.271889,-1.916098,-4.573035
43078,,0.625388,0.320126,8.758495,-6.286172,-0.085344,0.793230,-33.884174,-1.717534,-4.159598
43079,,0.542633,-0.343622,7.889741,-7.655656,-0.076649,0.913317,-38.264896,-1.472870,-3.705883
43080,,0.559098,-1.333683,6.491074,-8.924639,-0.063278,0.999497,-43.386242,-1.127027,-3.246476
43081,,0.375003,-2.192403,5.021759,-10.050782,-0.049050,1.049503,-49.129212,-0.739522,-2.804358
43082,,0.218126,-2.595683,3.769932,-11.032886,-0.005006,1.091437,-55.451415,-0.247317,-2.417233
43083,,0.011038,-2.700780,2.123424,-11.921648,0.049637,1.128287,-62.257565,0.293904,-2.100416
43084,,-0.174580,-3.373768,0.021835,-12.794307,0.126491,1.171396,-69.583409,0.935868,-1.890299
43085,,-0.579000,-5.098907,-2.481024,-13.439028,0.167098,1.217356,-77.258283,1.606184,-1.776017
43086,,-0.669679,-6.661728,-5.110515,-13.566820,0.183095,1.264177,-85.028653,2.338187,-1.765688
43087,,-0.622714,-7.613259,-6.988782,-13.449100,0.258681,1.243893,-92.725636,3.030200,-1.894568
43088,,-0.972775,-8.739818,-8.553700,-13.065022,0.268574,1.216607,-100.222323,3.706331,-2.124101
43089,,-1.114903,-10.366891,-9.892371,-12.351045,0.229225,1.160068,-107.314337,4.299078,-2.407976
43090,,-1.208453,-12.151739,-10.812003,-11.272928,0.182645,1.104795,-113.796195,4.856574,-2.727249
43091,,-1.125494,-13.904416,-11.138511,-9.774871,0.166008,0.962440,-119.430468,5.286818,-3.061074
43092,,-1.301287,-13.728581,-10.536583,-8.021305,0.172637,0.802460,-124.054764,5.627847,-3.387034
43093,,-1.338843,-12.159059,-9.515319,-6.428948,0.113672,0.672171,-127.773882,5.881882,-3.669072
43094,,-1.021397,-10.467790,-8.720652,-5.161875,0.066431,0.550239,-130.752749,6.104197,-3.898138
43095,,-0.725247,-9.541855,-8.011879,-4.169292,0.055312,0.443979,-133.170068,6.252902,-4.095226
43096,,-0.765987,-9.038930,-7.575946,-3.321780,0.087888,0.349913,-135.090043,6.364173,-4.271057
43097,,-0.992503,-8.445410,-7.229232,-2.590596,0.109498,0.250522,-136.596994,6.399913,-4.420744
43098,,-1.105924,-7.545407,-7.238752,-2.086285,0.126088,0.185230,-137.803936,6.421512,-4.547646
43099,,-0.996957,-6.624753,-7.188409,-1.831694,0.123038,0.131618,-138.869815,6.400262,-4.653212
43100,,-0.965288,-5.953667,-7.396647,-1.729406,0.122598,0.100497,-139.868053,6.386989,-4.742447
43101,,-0.895559,-6.246614,-7.703872,-1.643065,0.119780,0.071290,-140.822459,6.342073,-4.819860
43102,,-0.873818,-6.965165,-8.088970,-1.353766,0.124753,0.032605,-141.602037,6.300636,-4.878868
43103,,-0.864831,-7.196883,-8.245985,-0.907717,0.148457,-0.003564,-142.131896,6.214677,-4.931685
43104,,-0.921962,-6.917105,-8.226326,-0.483301,0.161453,-0.040637,-142.410302,6.129864,-4.969446
43105,,-0.956040,-6.728961,-8.207164,-0.138800,0.167843,-0.069057,-142.496047,6.012012,-4.998129
43106,,-0.851416,-6.084986,-7.899327,0.059928,0.175433,-0.076090,-142.461863,5.908349,-5.024261
43107,,-0.765000,-5.520410,-7.696889,0.060511,0.183425,-0.068544,-142.433471,5.784007,-5.058464
43108,,-0.791102,-5.455874,-7.701352,0.004891,0.193648,-0.067212,-142.431771,5.675204,-5.095106
43109,,-0.878756,-5.516618,-7.734299,-0.077513,0.193842,-0.061023,-142.483269,5.549142,-5.136380
43110,,-0.864292,-6.088706,-8.004043,-0.089906,0.190651,-0.066021,-142.535674,5.442079,-5.172345
43111,,-0.890562,-6.753458,-8.330526,0.081662,0.200012,-0.092447,-142.494705,5.302707,-5.201262
43112,,-0.849776,-6.979121,-8.378831,0.371927,0.206051,-0.115449,-142.280798,5.171457,-5.220309
43113,,-0.782999,-6.420155,-8.058011,0.604995,0.191203,-0.121106,-141.937879,5.026585,-5.233713
43114,,-0.664769,-5.254611,-7.583170,0.534438,0.170148,-0.090849,-141.630751,4.920433,-5.252470
43115,,-0.666021,-5.049191,-7.567119,0.258908,0.161270,-0.070091,-141.487337,4.807678,-5.279339
43116,,-0.780128,-5.144876,-7.563281,-0.005526,0.135831,-0.052133,-141.489995,4.730831,-5.303763
43117,,-0.679968,-5.515769,-7.765278,-0.188343,0.115347,-0.048773,-141.602922,4.646773,-5.323972
43118,,-0.720126,-6.192857,-8.139772,-0.189860,0.103242,-0.062360,-141.709810,4.580875,-5.331923
43119,,-0.636918,-6.591310,-8.338365,-0.014235,0.086262,-0.077363,-141.721334,4.500098,-5.328694
43120,,-0.649455,-6.672892,-8.367106,0.202968,0.076228,-0.084027,-141.601620,4.438649,-5.317231
43121,,-0.702987,-6.246121,-8.118930,0.365588,0.071900,-0.083501,-141.394755,4.362389,-5.306245
43122,,-0.556639,-5.791985,-7.909542,0.382861,0.058900,-0.081885,-141.171633,4.309390,-5.289914
43123,,-0.570497,-5.872053,-7.797288,0.362956,0.059131,-0.081695,-140.966257,4.239725,-5.275578
43124,,-0.673702,-6.064095,-7.906029,0.389978,0.052162,-0.085746,-140.738820,4.188213,-5.255476
43125,,-0.660262,-6.584834,-8.132668,0.533793,0.045227,-0.113185,-140.434468,4.113481,-5.222551
43126,,-0.709280,-7.249096,-8.523936,0.850236,0.044946,-0.148988,-139.941246,4.041725,-5.172485
43127,,-0.802955,-8.297305,-9.052337,1.431348,0.045437,-0.206149,-139.119828,3.932074,-5.100016
43128,,-0.668946,-9.662532,-9.396103,2.332525,0.055890,-0.279476,-137.774151,3.804561,-5.000255
43129,,-0.535350,-9.978991,-9.367351,3.491371,0.078238,-0.340621,-135.769314,3.625292,-4.888757
43130,,-0.546194,-9.861274,-9.231230,4.627595,0.107518,-0.398491,-133.108186,3.421758,-4.771534
43131,,-0.551771,-9.752079,-8.808871,5.661295,0.118723,-0.457017,-129.859494,3.167604,-4.648580
43132,,-0.479681,-9.560313,-8.280406,6.569075,0.143282,-0.517580,-126.086883,2.885830,-4.529247
43133,,-0.525402,-9.345659,-7.842684,7.349124,0.169850,-0.598931,-121.873314,2.534042,-4.417454
43134,,-0.622228,-9.225467,-7.549580,8.009857,0.197562,-0.712354,-117.277226,2.125539,-4.312602
43135,,-0.701976,-9.325722,-7.066660,8.622137,0.198917,-0.851747,-112.338031,1.622219,-4.210594
43136,,-0.598525,-9.216308,-6.416972,9.148091,0.172423,-0.978899,-107.091725,1.062987,-4.112240
43137,,-0.228214,-8.763155,-5.745463,9.511164,0.156620,-1.077742,-101.648597,0.430559,-4.045294
43138,,-0.232046,-8.436783,-4.979560,9.783569,0.164985,-1.150281,-96.040464,-0.233482,-4.034880
43139,,-0.242369,-8.433397,-4.041320,9.907885,0.073737,-1.190151,-90.374663,-0.928434,-4.038324
43140,,0.126299,-8.583291,-3.311263,10.041437,0.071505,-1.182815,-84.617311,-1.602478,-4.106106
43141,,0.123554,-8.821345,-2.109045,10.200367,0.014178,-1.166632,-78.784277,-2.274383,-4.210004
43142,,0.515934,-9.037483,-1.474560,10.451673,0.021374,-1.123303,-72.785857,-2.894628,-4.377116
43143,,0.574463,-9.072582,-0.653285,10.827666,0.042001,-1.087038,-66.587227,-3.482270,-4.615384
43144,,0.693451,-9.059537,-0.018112,11.371386,0.078034,-1.027192,-60.049751,-3.988059,-4.917153
43145,,1.031581,-8.894326,0.081938,12.068832,0.150410,-0.969065,-53.129449,-4.416622,-5.294797
43146,,1.097566,-8.498764,0.822497,12.879671,0.295785,-0.957343,-45.708906,-4.723728,-5.778731
43147,,1.525798,-7.550431,1.147935,13.559699,0.422138,-0.910327,-37.920581,-4.905092,-6.329701
43148,,1.315616,-5.543396,2.434988,14.148165,0.559272,-0.891203,-29.760256,-4.924974,-6.931510
43149,,0.956397,-2.165289,3.388681,14.193824,0.573755,-0.855945,-21.608517,-4.857219,-7.517661
43150,,0.529352,2.023419,5.648567,13.462077,0.577464,-0.682812,-13.853673,-4.663701,-7.990410
43151,,0.753831,6.487492,8.362724,11.702980,0.550728,-0.467056,-7.150919,-4.419442,-8.312475
43152,,0.692410,9.059069,10.750683,9.036957,0.540880,-0.170899,-1.961761,-4.121139,-8.433633
43153,,0.582240,8.535054,11.974764,6.242727,0.581891,0.057577,1.595377,-3.805236,-8.402109
43154,,0.420202,5.687165,11.519306,4.066509,0.623948,0.133459,3.921632,-3.454769,-8.307330
43155,,0.524189,3.042151,11.061044,2.767642,0.613230,0.202832,5.489499,-3.131413,-8.162645
43156,,0.802719,1.531803,10.583600,2.145433,0.585378,0.274368,6.711026,-2.817606,-7.969592
43157,,0.799111,1.224739,10.233043,1.950537,0.514478,0.320698,7.810272,-2.565498,-7.750101
43158,,0.637015,1.668389,10.014270,1.863340,0.463293,0.333648,8.870409,-2.333615,-7.521521
43159,,0.395808,1.971176,9.950691,1.735898,0.401374,0.348804,9.847970,-2.156223,-7.287180
43160,,0.335950,2.021519,9.831140,1.545607,0.361924,0.332589,10.727668,-1.989286,-7.061883
43161,,0.430657,2.468134,9.677244,1.296248,0.298246,0.288507,11.456354,-1.870096,-6.867191
43162,,0.355695,3.246199,9.558081,0.930613,0.273593,0.259902,11.986194,-1.749950,-6.688906
43163,,0.009113,3.354689,9.341030,0.552920,0.241082,0.222109,12.292074,-1.658163,-6.535849
43164,,-0.017376,3.074131,9.262352,0.290781,0.177339,0.176425,12.457515,-1.583688,-6.414783
43165,,0.044895,2.741374,9.443963,0.158432,0.127638,0.138525,12.540757,-1.545445,-6.321788
43166,,0.139634,2.478028,9.447676,0.110551,0.075915,0.105810,12.604502,-1.519310,-6.252632
43167,,0.311639,2.415628,9.532500,0.090432,0.045537,0.085840,12.650549,-1.520178,-6.199212
43168,,0.354679,2.533663,9.582913,0.030708,0.017070,0.071606,12.669256,-1.522760,-6.156540
43169,,0.405069,2.774713,9.495372,-0.088002,-0.012901,0.055221,12.614161,-1.552308,-6.127524
43170,,0.316299,2.688082,9.365311,-0.227888,-0.020027,0.054515,12.485054,-1.573437,-6.099031
43171,,0.211353,2.070048,9.223539,-0.265039,-0.017669,0.035641,12.329572,-1.602990,-6.081414
43172,,0.327572,1.694410,9.244688,-0.167896,-0.045684,0.010003,12.235595,-1.632934,-6.080884
43173,,0.413913,1.789401,9.259484,-0.052647,-0.056235,0.007402,12.202328,-1.680375,-6.083710
43174,,0.363201,2.197234,9.362305,-0.008470,-0.067949,0.009178,12.199782,-1.722697,-6.086300
43175,,0.329494,2.476385,9.442098,-0.057578,-0.076339,0.005087,12.163887,-1.780999,-6.092820
43176,,0.426540,2.671547,9.417553,-0.179545,-0.091493,-0.001084,12.063591,-1.835289,-6.103933
43177,,0.490224,2.711206,9.388776,-0.345829,-0.109458,-0.006256,11.863550,-1.910692,-6.120508
43178,,0.541524,2.472532,9.199818,-0.508229,-0.113469,0.002018,11.574968,-1.977755,-6.132070
43179,,0.515433,1.944631,8.968845,-0.578568,-0.117713,-0.005612,11.242373,-2.057992,-6.148539
43180,,0.489081,1.439858,8.788444,-0.524352,-0.139959,-0.015113,10.945013,-2.138191,-6.171933
43181,,0.541527,1.225358,8.647063,-0.388136,-0.161442,-0.023762,10.722125,-2.241186,-6.202644
43182,,0.575924,1.326424,8.560005,-0.254239,-0.194035,-0.026288,10.580063,-2.350838,-6.237454
43183,,0.604702,1.559921,8.522051,-0.197620,-0.218783,-0.021336,10.466346,-2.486533,-6.272323
43184,,0.611142,1.805770,8.416755,-0.243391,-0.243151,-0.014569,10.330564,-2.625236,-6.305133
43185,,0.661933,1.837523,8.262250,-0.359734,-0.263746,0.003119,10.123880,-2.788949,-6.330117
43186,,0.659042,1.635492,7.957372,-0.477713,-0.272117,0.028749,9.852886,-2.948542,-6.340352
43187,,0.798689,1.250265,7.566805,-0.543206,-0.285484,0.072225,9.539559,-3.131440,-6.326912
43188,,0.959833,0.921173,7.068451,-0.551231,-0.295966,0.125228,9.223461,-3.313633,-6.283068
43189,,1.033614,0.668045,6.584699,-0.497456,-0.317910,0.183468,8.932459,-3.524977,-6.207647
43190,,1.103507,0.555677,6.284624,-0.406372,-0.349911,0.239243,8.695123,-3.747287,-6.102041
43191,,0.934858,0.638203,6.218763,-0.290836,-0.399620,0.282052,8.518086,-4.013103,-5.975978
43192,,0.950390,0.689572,6.529473,-0.201798,-0.460723,0.303309,8.394932,-4.302959,-5.841881
43193,,1.145903,0.922666,6.650354,-0.163192,-0.511523,0.327337,8.288072,-4.635580,-5.698095
43194,,1.369727,1.132622,6.461401,-0.195063,-0.561677,0.343193,8.165936,-4.985424,-5.548328
43195,,1.593195,1.285951,6.287673,-0.285783,-0.632706,0.361587,7.986097,-5.389258,-5.393142
43196,,1.777229,1.428075,6.021755,-0.432233,-0.687645,0.382009,7.724576,-5.812673,-5.228689
43197,,1.637810,1.409802,5.665464,-0.563041,-0.755150,0.400854,7.382270,-6.288277,-5.056499
43198,,1.373439,1.138335,5.574531,-0.629925,-0.857427,0.391137,7.004983,-6.806948,-4.893889
43199,,1.283190,0.804600,5.803059,-0.583217,-0.998315,0.353089,6.653175,-7.415918,-4.759500
43200,,1.509623,0.620913,6.176548,-0.456525,-1.157800,0.280197,6.382206,-8.096430,-4.673753
43201,,1.837685,0.727226,6.523037,-0.313181,-1.289105,0.192819,6.197388,-8.859918,-4.643944
43202,,2.126938,1.224304,6.797725,-0.235062,-1.425300,0.110432,6.068724,-9.681852,-4.667818
43203,,2.359058,1.946618,6.687516,-0.309766,-1.558246,0.034985,5.903545,-10.589638,-4.741500
43204,,2.506958,2.731027,6.444685,-0.545627,-1.704891,-0.019318,5.614276,-11.563642,-4.851794
43205,,2.519789,3.194717,6.108620,-0.910298,-1.851934,-0.054337,5.121624,-12.635611,-4.984496
43206,,2.615600,2.650743,5.866356,-1.254676,-2.008396,-0.081859,4.438172,-13.781630,-5.130136
43207,,3.094127,1.134987,6.098166,-1.371169,-2.158198,-0.151984,3.700894,-15.027992,-5.310258
43208,,3.908709,-0.640591,6.490205,-1.138036,-2.276793,-0.276772,3.116931,-16.323953,-5.554292
43209,,4.679305,-1.325318,6.941500,-0.657696,-2.369728,-0.420109,2.838631,-17.687622,-5.879322
43210,,5.198327,-0.816885,7.328005,-0.195520,-2.437790,-0.538303,2.853864,-19.070537,-6.276025
43211,,5.563812,0.174156,7.452737,0.048054,-2.483716,-0.608693,3.035157,-20.495895,-6.723579
43212,,5.780808,1.015132,7.391217,0.017909,-2.510555,-0.627063,3.216877,-21.915825,-7.191543
43213,,5.791507,1.219085,7.316348,-0.127458,-2.530278,-0.621495,3.329395,-23.366863,-7.666466
43214,,5.797536,1.013578,7.605828,-0.226886,-2.573541,-0.611980,3.396401,-24.821522,-8.143688
43215,,6.046306,0.684609,8.133600,-0.235555,-2.620579,-0.617564,3.477391,-26.324606,-8.635646
43216,,6.612226,0.316759,8.748987,-0.152452,-2.646003,-0.621920,3.621536,-27.818938,-9.139494
43217,,7.289052,0.068969,9.086933,-0.012456,-2.614518,-0.638552,3.870763,-29.316496,-9.667616
43218,,7.810935,0.198197,9.096514,0.103985,-2.558358,-0.646664,4.205445,-30.755872,-10.212823
43219,,8.153682,0.684219,8.894613,0.128403,-2.503331,-0.626418,4.569498,-32.186477,-10.762283
43220,,8.306177,1.170774,8.582360,0.010396,-2.439160,-0.574193,4.863285,-33.555527,-11.288557
43221,,8.233848,1.188152,8.308419,-0.140830,-2.376527,-0.512963,5.067146,-34.915964,-11.787180
43222,,8.063457,0.721924,8.646083,-0.212974,-2.331802,-0.469769,5.224197,-36.225778,-12.263171
43223,,8.512715,0.016410,8.919545,-0.168672,-2.307774,-0.434467,5.411442,-37.549539,-12.728873
43224,,9.087189,-0.373847,9.064564,-0.008869,-2.249120,-0.413941,5.691679,-38.812536,-13.186897
43225,,9.372640,-0.133650,9.004680,0.122293,-2.180593,-0.379983,6.050216,-40.064108,-13.635236
43226,,9.508943,0.460244,8.709518,0.152602,-2.119976,-0.343798,6.420794,-41.253542,-14.066441
43227,,9.439957,1.115817,8.476499,0.020554,-2.038502,-0.278697,6.698881,-42.427378,-14.460895
43228,,9.273312,1.368470,8.173445,-0.206199,-1.958289,-0.194054,6.808211,-43.531912,-14.791368
43229,,8.799080,1.283671,8.241901,-0.411895,-1.888369,-0.130721,6.773757,-44.629601,-15.076125
43230,,8.777909,0.742817,8.102227,-0.552203,-1.856021,-0.085923,6.632928,-45.683399,-15.320676
43231,,8.953432,0.463679,8.219146,-0.562792,-1.813976,-0.062967,6.477712,-46.743814,-15.547493
43232,,9.254890,0.454095,8.282995,-0.551302,-1.781614,-0.052412,6.318725,-47.758306,-15.758191
43233,,9.724068,0.661651,8.023878,-0.565354,-1.737066,-0.047371,6.151959,-48.776390,-15.964545
43234,,10.055286,0.980154,7.544935,-0.679216,-1.680297,-0.044534,5.911155,-49.734540,-16.157516
43235,,10.204355,1.080004,7.072778,-0.884989,-1.630654,-0.013759,5.515500,-50.697059,-16.123178
43236,,10.036014,0.890324,6.644654,-1.108892,-1.586523,0.012780,4.975610,-51.606400,-16.242987
43237,,9.837558,0.180327,6.495533,-1.251681,-1.561965,0.045868,4.310506,-52.534326,-16.156010
43238,,9.492832,-0.738864,6.608140,-1.189325,-1.537400,0.064669,3.662395,-53.419139,-16.195059
43239,,9.018299,-1.514837,7.107718,-0.909322,-1.522689,0.045428,3.168718,-54.325406,-16.092430
43240,,9.033632,-2.115093,7.213834,-0.471747,-1.557183,0.017334,2.952807,-55.220407,-16.156368
43241,,9.597813,-2.032242,7.236764,-0.003930,-1.558688,-0.023955,3.028179,-56.144466,-16.133910
43242,,10.017787,-1.434873,7.013007,0.348077,-1.536134,-0.050569,3.346497,-57.025225,-16.273753
43243,,10.229849,-0.656395,6.607811,0.497664,-1.499689,-0.071087,3.766212,-57.912413,-16.340311
43244,,10.331129,0.071421,6.224107,0.432278,-1.475940,-0.068834,4.173422,-58.756950,-16.525219
43245,,10.448970,0.549631,5.895338,0.182388,-1.454983,-0.049926,4.416423,-59.617856,-16.597086
43246,,10.324620,0.785094,5.676699,-0.189283,-1.429465,-0.008684,4.426800,-60.437751,-16.731793
43247,,9.915724,0.754695,5.821757,-0.546067,-1.388924,0.032007,4.176088,-61.263942,-16.729420
43248,,9.496846,0.268726,6.158332,-0.837632,-1.359723,0.056099,3.736915,-62.047088,-16.773317
43249,,9.640183,-0.492689,6.086451,-0.992147,-1.366552,0.066318,3.175095,-62.861093,-16.720549
43250,,9.837318,-1.070072,5.959050,-1.000288,-1.333680,0.064939,2.604959,-63.629877,-16.721530
43251,,9.805757,-1.533591,5.821078,-0.903299,-1.311593,0.060518,2.065836,-64.411151,-16.643968
43252,,9.927054,-1.556775,5.807801,-0.803520,-1.298939,0.036804,1.611377,-65.159434,-16.648191
43253,,10.167777,-1.350463,5.715816,-0.792889,-1.284534,0.042235,1.126099,-65.923564,-16.571704
43254,,10.247411,-1.060910,5.713722,-0.900115,-1.258218,0.068078,0.545157,-66.648725,-16.498192
43255,,10.275941,-0.713481,5.619848,-1.123591,-1.235292,0.105005,-0.255214,-67.383082,-16.297500
43256,,10.214991,-0.516798,5.570561,-1.450258,-1.209821,0.156932,-1.329949,-68.078703,-16.031813
43257,,10.112079,-0.500849,5.418110,-1.815262,-1.182381,0.212936,-2.759938,-68.776224,-15.592498
43258,,9.876841,-0.693260,5.223929,-2.146822,-1.157560,0.260541,-4.491618,-69.432402,-15.053344
43259,,9.686681,-0.991413,5.043703,-2.408006,-1.145009,0.297344,-6.524690,-70.092201,-14.343936
43260,,9.619245,-1.374238,4.796146,-2.548093,-1.133629,0.303975,-8.714023,-70.716526,-13.567552
43261,,9.356959,-1.910831,4.731405,-2.555250,-1.106508,0.301091,-11.015585,-71.332980,-12.671537
43262,,9.332130,-2.481868,4.615739,-2.440843,-1.100610,0.269391,-13.271574,-71.920518,-11.765856
43263,,9.455635,-2.953657,4.473780,-2.210783,-1.076271,0.226023,-15.439917,-72.505186,-10.813283
43264,,9.617449,-3.196049,4.374708,-1.935166,-1.027124,0.166299,-17.384919,-73.046164,-9.935673
43265,,9.594152,-3.249888,4.258896,-1.657239,-0.956225,0.106923,-19.142423,-73.564396,-9.094931
43266,,9.473580,-3.244465,4.125545,-1.383205,-0.884290,0.047436,-20.622248,-74.034867,-8.377106
43267,,9.348582,-3.139726,4.010394,-1.142562,-0.807407,-0.019221,-21.885600,-74.485003,-7.750025
43268,,9.289220,-2.833100,3.839336,-0.955304,-0.745736,-0.083333,-22.873337,-74.901431,-7.291362
43269,,9.318813,-2.518232,3.779619,-0.832474,-0.690955,-0.137734,-23.722908,-75.309228,-6.915815
43270,,9.400361,-2.185766,3.731171,-0.771661,-0.635310,-0.185418,-24.371687,-75.688019,-6.700310
43271,,9.425312,-1.975924,3.732046,-0.765330,-0.582551,-0.220619,-24.968637,-76.055400,-6.547851
43272,,9.417270,-1.826461,3.799912,-0.802926,-0.534126,-0.245420,-25.450558,-76.395217,-6.523293
43273,,9.478489,-1.722926,3.772416,-0.861097,-0.485769,-0.269940,-25.927551,-76.722797,-6.556926
43274,,9.544196,-1.780688,3.742624,-0.915171,-0.419439,-0.292932,-26.268919,-77.015454,-6.742815
43275,,9.443374,-1.946146,3.799617,-0.934915,-0.369332,-0.305405,-26.594591,-77.291164,-6.973752
43276,,9.488960,-2.126735,3.834675,-0.921667,-0.344075,-0.310695,-26.817727,-77.550259,-7.284203
43277,,9.706553,-2.334443,3.864234,-0.876822,-0.285843,-0.314338,-26.989700,-77.784599,-7.639723
43278,,9.655307,-2.387426,4.019441,-0.808975,-0.250057,-0.306879,-27.037733,-77.995074,-8.062688
43279,,9.763690,-2.298126,4.164152,-0.737783,-0.217163,-0.294087,-27.085354,-78.187723,-8.462449
43280,,9.861620,-2.009139,4.294987,-0.702423,-0.173771,-0.260251,-27.078599,-78.347226,-8.878446
43281,,9.905761,-1.855901,4.251097,-0.693176,-0.109799,-0.216677,-27.143868,-78.463184,-9.237146
43282,,9.793308,-1.848246,4.147485,-0.653463,-0.055105,-0.171423,-27.171676,-78.539073,-9.588913
43283,,9.782794,-1.749281,4.075916,-0.591389,-0.020214,-0.129119,-27.278279,-78.584978,-9.843624
43284,,9.981075,-1.561078,4.156115,-0.547408,0.013478,-0.061573,-27.431407,-78.597285,-10.005459
43285,,10.048623,-1.587904,3.921033,-0.485442,0.077081,-0.013185,-27.638238,-78.561721,-10.097911
43286,,9.897324,-1.458917,3.823706,-0.406655,0.129202,-0.003507,-27.705401,-78.500030,-10.265224
43287,,10.085899,-1.170778,3.620824,-0.382208,0.158340,0.014646,-27.813035,-78.414553,-10.399415
43288,,10.320283,-0.860115,3.593163,-0.422073,0.212544,0.036698,-27.881252,-78.299979,-10.574790
43289,,10.521503,-0.826279,3.584094,-0.511519,0.272243,0.063344,-28.033794,-78.143028,-10.732740
43290,,10.890795,-0.754909,3.607222,-0.617430,0.320302,0.101833,-28.233754,-77.956583,-10.888073
43291,,11.174110,-0.484725,3.424828,-0.738936,0.385844,0.155397,-28.581570,-77.716757,-10.981776
43292,,11.056130,-0.018838,3.220889,-0.943653,0.488370,0.204920,-28.989406,-77.417848,-11.115937
43293,,10.583811,0.266691,2.989442,-1.220295,0.567200,0.259196,-29.598662,-77.058312,-11.225958
43294,,10.201508,0.058564,2.604850,-1.496109,0.609281,0.305009,-30.368027,-76.671404,-11.314301
43295,,9.927211,-0.281949,2.351276,-1.722222,0.631673,0.349832,-31.331060,-76.254454,-11.356214
43296,,9.684129,-0.549393,2.150537,-1.889463,0.627153,0.379728,-32.404443,-75.837113,-11.363837
43297,,9.522228,-0.726739,2.096683,-2.020058,0.617452,0.414814,-33.615238,-75.407639,-11.326022
43298,,9.371418,-0.962545,2.024225,-2.128748,0.601746,0.430449,-34.882457,-74.986409,-11.275000
43299,,9.187914,-1.270798,1.979829,-2.190551,0.579731,0.433996,-36.196455,-74.568372,-11.230884
43300,,9.038899,-1.652051,1.922418,-2.209073,0.554568,0.428160,-37.492898,-74.169396,-11.197110
43301,,8.896866,-2.023018,1.879388,-2.163422,0.520951,0.411164,-38.759851,-73.785928,-11.185299
43302,,8.821662,-2.372134,1.765087,-2.066610,0.484871,0.380860,-39.928708,-73.434992,-11.199309
43303,,8.766506,-2.610416,1.748038,-1.916903,0.452786,0.337592,-40.981178,-73.108708,-11.263546
43304,,8.732735,-2.798858,1.662969,-1.736593,0.420788,0.288188,-41.869252,-72.820800,-11.373515
43305,,8.751535,-2.893568,1.611987,-1.523908,0.392467,0.222379,-42.586428,-72.565069,-11.552833
43306,,8.832918,-2.936008,1.564863,-1.296038,0.352106,0.158615,-43.115122,-72.357385,-11.775285
43307,,8.946298,-2.922480,1.496306,-1.070700,0.333757,0.082990,-43.455589,-72.181896,-12.076626
43308,,8.905135,-2.830728,1.467017,-0.858613,0.314907,0.010997,-43.585950,-72.048700,-12.454724
43309,,8.836686,-2.758363,1.449642,-0.673153,0.286691,-0.059852,-43.577516,-71.949732,-12.885069
43310,,8.818275,-2.720292,1.460353,-0.507651,0.248930,-0.123445,-43.419567,-71.896928,-13.355340
43311,,8.901426,-2.625315,1.415759,-0.361738,0.208034,-0.183870,-43.175441,-71.879023,-13.846399
43312,,9.031424,-2.544508,1.486159,-0.242557,0.168285,-0.228953,-42.829104,-71.899973,-14.355177
43313,,9.208362,-2.415974,1.493998,-0.149869,0.125829,-0.270181,-42.451403,-71.948752,-14.859671
43314,,9.339410,-2.290431,1.528385,-0.086165,0.094774,-0.296694,-42.010533,-72.024839,-15.373359
43315,,9.374675,-2.233133,1.528514,-0.049444,0.069994,-0.317302,-41.574286,-72.113560,-15.878622
43316,,9.344653,-2.232878,1.505291,-0.012624,0.042960,-0.332198,-41.095817,-72.222874,-16.387032
43317,,9.316592,-2.265217,1.515058,0.022255,0.010420,-0.340903,-40.647031,-72.344171,-16.862394
43318,,9.335390,-2.270763,1.478129,0.061119,-0.019276,-0.345411,-40.168344,-72.483005,-17.326027
43319,,9.338858,-2.288279,1.495449,0.100053,-0.050065,-0.347056,-39.724881,-72.631156,-17.749325
43320,,9.349217,-2.287943,1.527353,0.137983,-0.075852,-0.348287,-39.249073,-72.793782,-18.163077
43321,,9.366297,-2.269792,1.573770,0.173945,-0.105998,-0.346167,-38.815839,-72.964767,-18.532535
43322,,9.421410,-2.254432,1.681331,0.204850,-0.125686,-0.339515,-38.356258,-73.144618,-18.888526
43323,,9.458733,-2.290303,1.739400,0.234953,-0.139543,-0.330491,-37.936324,-73.323766,-19.205597
43324,,9.393888,-2.295178,1.765162,0.263458,-0.153792,-0.319871,-37.489138,-73.507863,-19.512959
43325,,9.370875,-2.252377,1.833900,0.292405,-0.165727,-0.306729,-37.089256,-73.689423,-19.774597
43326,,9.371239,-2.286996,1.828189,0.316469,-0.177244,-0.293083,-36.665434,-73.873754,-20.025434
43327,,9.438334,-2.293249,1.877822,0.341618,-0.189974,-0.284961,-36.287680,-74.058048,-20.234066
43328,,9.502841,-2.266345,1.891405,0.374879,-0.196008,-0.266607,-35.881040,-74.241139,-20.431806
43329,,9.604007,-2.224673,1.949296,0.393577,-0.197837,-0.250483,-35.528468,-74.416793,-20.580543
43330,,9.732874,-2.152594,1.999652,0.401682,-0.192573,-0.232479,-35.146792,-74.586244,-20.736118
43331,,9.778319,-2.107177,2.034364,0.408133,-0.178731,-0.206170,-34.827501,-74.737625,-20.846286
43332,,9.732674,-2.016637,2.087658,0.394332,-0.171701,-0.177584,-34.509827,-74.878846,-20.939695
43333,,9.705677,-1.966617,2.138387,0.380849,-0.166798,-0.143288,-34.296508,-75.003944,-20.952072
43334,,9.760687,-1.969097,2.137554,0.360935,-0.160841,-0.109744,-34.099450,-75.117961,-20.940357
43335,,9.739957,-1.924069,2.221954,0.339879,-0.154905,-0.071219,-34.020930,-75.213998,-20.840314
43336,,9.752025,-1.909603,2.247340,0.326221,-0.144160,-0.029924,-33.966165,-75.294525,-20.702055
43337,,9.792846,-1.883894,2.283004,0.306224,-0.138374,0.000200,-34.017344,-75.359647,-20.487548
43338,,9.882088,-1.884130,2.326672,0.288888,-0.128522,0.036484,-34.087236,-75.411403,-20.242671
43339,,9.884205,-1.806299,2.385701,0.269001,-0.108034,0.067008,-34.246261,-75.440215,-19.938475
43340,,9.859619,-1.788950,2.367272,0.243407,-0.091822,0.093151,-34.401874,-75.455998,-19.632045
43341,,9.818608,-1.768637,2.388853,0.219341,-0.074617,0.116218,-34.638005,-75.452317,-19.276435
43342,,9.785184,-1.682786,2.404201,0.195112,-0.058800,0.138769,-34.862870,-75.437076,-18.927058
43343,,9.760392,-1.689342,2.407534,0.163618,-0.044674,0.154766,-35.161014,-75.405642,-18.539548
43344,,9.779285,-1.596900,2.428526,0.127747,-0.027284,0.172287,-35.442568,-75.363715,-18.171397
43345,,9.726079,-1.573205,2.401769,0.091099,-0.012579,0.183982,-35.788938,-75.306339,-17.775297
43346,,9.686688,-1.530133,2.424272,0.049883,0.006969,0.192872,-36.103010,-75.240552,-17.419481
43347,,9.629987,-1.559652,2.422004,0.014728,0.019673,0.205324,-36.480903,-75.159630,-17.036777
43348,,9.655939,-1.565010,2.433814,-0.019748,0.030604,0.208892,-36.825350,-75.076381,-16.690573
43349,,9.562213,-1.629693,2.408617,-0.042676,0.044602,0.209307,-37.200864,-74.981257,-16.344695
43350,,9.497871,-1.679785,2.393646,-0.053172,0.054736,0.207297,-37.522490,-74.886472,-16.041674
43351,,9.461541,-1.699057,2.370039,-0.048560,0.058911,0.198625,-37.855568,-74.787407,-15.741071
43352,,9.470670,-1.709455,2.317468,-0.040826,0.060341,0.191985,-38.129837,-74.694623,-15.479545
43353,,9.587269,-1.686541,2.379577,-0.032703,0.065157,0.184897,-38.414506,-74.596663,-15.219701
43354,,9.601466,-1.661281,2.324694,-0.030654,0.077952,0.171352,-38.620408,-74.502713,-15.022833
43355,,9.568866,-1.626836,2.281279,-0.030854,0.083055,0.161767,-38.836669,-74.404419,-14.831576
43356,,9.509494,-1.636794,2.265789,-0.035002,0.085194,0.148149,-38.994073,-74.315222,-14.687490
43357,,9.480395,-1.631205,2.259695,-0.038349,0.080955,0.133797,-39.168371,-74.227689,-14.541399
43358,,9.485538,-1.668941,2.213247,-0.039031,0.084264,0.120319,-39.282393,-74.148772,-14.444693
43359,,9.406196,-1.701816,2.239727,-0.032753,0.079733,0.103463,-39.403623,-74.072609,-14.350989
43360,,9.396386,-1.729394,2.231421,-0.022336,0.071025,0.083136,-39.465508,-74.012980,-14.298505
43361,,9.418458,-1.756063,2.251007,-0.005732,0.064927,0.053449,-39.510529,-73.961505,-14.268414
43362,,9.403132,-1.796681,2.227298,0.012766,0.064604,0.038822,-39.491818,-73.920841,-14.278856
43363,,9.385719,-1.803412,2.166559,0.033314,0.061977,0.011743,-39.453466,-73.885858,-14.311943
43364,,9.367390,-1.780475,2.192889,0.047733,0.056212,-0.004532,-39.359187,-73.864666,-14.380208
43365,,9.417504,-1.736831,2.166249,0.053817,0.050777,-0.023333,-39.269216,-73.847370,-14.454519
43366,,9.416975,-1.732685,2.171863,0.052304,0.048901,-0.040274,-39.127091,-73.842292,-14.569894
43367,,9.407767,-1.714065,2.125184,0.049961,0.049869,-0.051209,-38.997400,-73.835431,-14.687904
43368,,9.380231,-1.753285,2.157724,0.036757,0.042046,-0.061236,-38.840610,-73.840789,-14.827839
43369,,9.393613,-1.818237,2.164661,0.033984,0.040148,-0.073171,-38.698188,-73.846080,-14.966900
43370,,9.488368,-1.826664,2.148457,0.041721,0.029970,-0.083957,-38.518099,-73.864750,-15.128129
43371,,9.561086,-1.845806,2.155659,0.038406,0.031296,-0.086501,-38.362387,-73.878555,-15.279348
43372,,9.530804,-1.835064,2.131090,0.042160,0.036357,-0.088224,-38.166873,-73.895590,-15.456359
43373,,9.471923,-1.853946,2.115418,0.047928,0.031510,-0.090387,-37.998697,-73.910475,-15.614454
43374,,9.466665,-1.862620,2.104117,0.048706,0.025121,-0.091098,-37.807911,-73.933284,-15.782622
43375,,9.514909,-1.861234,2.097348,0.048771,0.024069,-0.088202,-37.650772,-73.950536,-15.929432
43376,,9.569349,-1.841975,2.105514,0.051208,0.025605,-0.079646,-37.475206,-73.968841,-16.080253
43377,,9.534081,-1.866397,2.084087,0.038722,0.026023,-0.072028,-37.347021,-73.979456,-16.200490
43378,,9.465486,-1.862489,2.120801,0.037023,0.023155,-0.068020,-37.200458,-73.994626,-16.329582
43379,,9.453783,-1.892219,2.093669,0.033345,0.017036,-0.063395,-37.099127,-74.006210,-16.426901
43380,,9.479466,-1.905406,2.109576,0.031905,0.015079,-0.057447,-36.981694,-74.021272,-16.528738
43381,,9.481475,-1.915257,2.130376,0.032534,0.015332,-0.049227,-36.905592,-74.028702,-16.599182
43382,,9.452296,-1.924367,2.122556,0.032572,0.014809,-0.047780,-36.803313,-74.040468,-16.684861
43383,,9.448084,-1.953182,2.128181,0.035080,0.007249,-0.045760,-36.740329,-74.050307,-16.742697
43384,,9.552820,-1.896324,2.101748,0.036903,0.004510,-0.038699,-36.662306,-74.063626,-16.800572
43385,,9.495229,-1.936313,2.102074,0.035661,0.008027,-0.038985,-36.608921,-74.070754,-16.848056
43386,,9.448554,-1.924486,2.113391,0.033127,0.008032,-0.028991,-36.544355,-74.079096,-16.894194
43387,,9.450310,-1.936520,2.133514,0.036128,0.006335,-0.029816,-36.508002,-74.083883,-16.922058
43388,,9.445896,-1.967176,2.138701,0.039561,0.003472,-0.022919,-36.454949,-74.092229,-16.952400
43389,,9.462308,-1.971161,2.101311,0.043110,0.003082,-0.018418,-36.437345,-74.094621,-16.955622
43390,,9.483792,-1.944434,2.184160,0.046086,-0.002125,-0.013954,-36.401721,-74.102482,-16.963967
