// Start Time: Unknown
// Update Rate: 100.0Hz
// Filter Profile: human (46.1)
// Firmware Version: 4.3.5
PacketCounter,Acc_X,Acc_Y,Acc_Z,Gyr_X,Gyr_Y,Gyr_Z
10774,9.251946,-2.380527,2.190071,-0.007382,-0.055862,-0.030703
10775,9.262404,-2.402093,2.281658,-0.015341,-0.062358,-0.033366
10776,9.302336,-2.422952,2.333626,-0.020422,-0.063083,-0.033827
10777,9.362788,-2.475202,2.338549,-0.022809,-0.071631,-0.043160
10778,9.350866,-2.472245,2.350988,-0.012322,-0.071494,-0.037000
10779,9.344511,-2.501424,2.336726,-0.010286,-0.070730,-0.040178
10780,9.344382,-2.509962,2.388228,0.006499,-0.076690,-0.042700
10781,9.376628,-2.507113,2.433372,0.015961,-0.078316,-0.043979
10782,9.397541,-2.494367,2.531012,0.021921,-0.079718,-0.042323
10783,9.459245,-2.435850,2.538413,0.021067,-0.075021,-0.042900
10784,9.470998,-2.399060,2.539252,0.013198,-0.069876,-0.037609
10785,9.403523,-2.439738,2.571721,0.005137,-0.061493,-0.034367
10786,9.385656,-2.459373,2.611379,0.000807,-0.059160,-0.032567
10787,9.373405,-2.456754,2.625965,-0.000163,-0.049272,-0.032080
10788,9.357746,-2.464359,2.608465,0.002699,-0.043488,-0.029906
10789,9.345060,-2.461989,2.624483,0.010000,-0.038092,-0.026392
10790,9.378708,-2.448110,2.615080,0.015513,-0.030409,-0.028322
10791,9.392145,-2.456723,2.651630,0.018126,-0.025923,-0.031871
10792,9.475173,-2.475409,2.648618,0.019676,-0.022378,-0.027930
10793,9.531833,-2.427621,2.628431,0.012065,-0.010474,-0.042542
10794,9.577052,-2.424161,2.660380,0.002978,0.000669,-0.043065
10795,9.505090,-2.420175,2.667902,-0.012654,0.009473,-0.044848
10796,9.484977,-2.436970,2.622942,-0.021888,0.021255,-0.047952
10797,9.435859,-2.454884,2.617845,-0.029878,0.024445,-0.045804
10798,9.400983,-2.527195,2.592307,-0.029428,0.035935,-0.044518
10799,9.401108,-2.523760,2.595200,-0.019933,0.038883,-0.042167
10800,9.394704,-2.540921,2.532913,-0.016010,0.043865,-0.033137
10801,9.435106,-2.549342,2.536529,-0.006348,0.050714,-0.024538
10802,9.413599,-2.513506,2.496560,-0.001812,0.052279,-0.020059
10803,9.403857,-2.489761,2.495829,-0.006403,0.060429,-0.019762
10804,9.422893,-2.465374,2.456164,-0.008318,0.061594,-0.013424
10805,9.374657,-2.473987,2.396577,-0.017015,0.066238,-0.009851
10806,9.352699,-2.494252,2.356445,-0.015610,0.070426,-0.008474
10807,9.313071,-2.470672,2.304579,-0.011811,0.068919,-0.006223
10808,9.288390,-2.503664,2.322857,-0.010819,0.066156,-0.002475
10809,9.316041,-2.502449,2.289661,-0.011778,0.068908,-0.006186
10810,9.288352,-2.490772,2.276358,-0.002789,0.062968,-0.004561
10811,9.284186,-2.500259,2.249273,-0.001542,0.063264,-0.009435
10812,9.315064,-2.488350,2.248763,0.003086,0.059648,-0.006036
10813,9.316845,-2.475217,2.195885,0.005301,0.057189,-0.007184
10814,9.304007,-2.464922,2.253673,0.007644,0.054085,-0.005754
10815,9.320750,-2.505913,2.179314,0.012316,0.047883,-0.002908
10816,9.328464,-2.472686,2.191341,0.016022,0.044437,-0.003790
10817,9.286771,-2.461284,2.195620,0.014155,0.035888,-0.002250
10818,9.359040,-2.460252,2.193009,0.015529,0.035542,-0.004552
10819,9.340912,-2.470459,2.183106,0.017453,0.030033,0.002907
10820,9.357674,-2.459701,2.199449,0.015404,0.024719,0.002415
10821,9.362958,-2.437239,2.176368,0.016416,0.019376,0.005593
10822,9.324249,-2.416597,2.211513,0.018036,0.017745,0.008445
10823,9.285733,-2.450689,2.244970,0.019757,0.010935,0.010194
10824,9.279393,-2.473688,2.271818,0.026570,0.004871,0.012433
10825,9.299577,-2.451012,2.228006,0.038841,0.004547,0.009681
10826,9.298779,-2.398521,2.321671,0.041934,-0.002611,0.009131
10827,9.330822,-2.386972,2.316173,0.038802,-0.004533,0.002333
10828,9.316206,-2.386760,2.336154,0.040302,-0.005523,0.002613
10829,9.324923,-2.353376,2.343905,0.036533,-0.004028,0.000370
10830,9.304454,-2.375465,2.389428,0.029945,-0.003785,-0.000392
10831,9.304444,-2.320108,2.390853,0.022570,-0.004023,-0.002857
10832,9.322121,-2.363385,2.403226,0.016053,-0.001827,-0.000495
10833,9.307562,-2.363310,2.422821,0.013823,-0.003910,-0.003018
10834,9.322353,-2.362177,2.403513,0.015095,0.000919,-0.004227
10835,9.305017,-2.372155,2.390522,0.015931,-0.001190,-0.003072
10836,9.307905,-2.360959,2.423794,0.020782,0.000830,-0.007737
10837,9.331558,-2.381114,2.410968,0.022156,0.000479,-0.010040
10838,9.372488,-2.335822,2.412704,0.019826,0.003575,-0.011468
10839,9.372743,-2.334009,2.413466,0.018135,0.003246,-0.017448
10840,9.355624,-2.342872,2.400761,0.008011,0.003709,-0.015310
10841,9.382086,-2.352318,2.420995,0.001067,0.010405,-0.020148
10842,9.347511,-2.371927,2.395134,-0.003195,0.007551,-0.019487
10843,9.373964,-2.381418,2.415386,-0.004741,0.011129,-0.019215
10844,9.330524,-2.379311,2.383466,-0.006897,0.010996,-0.018611
10845,9.290040,-2.421621,2.383207,-0.007556,0.009876,-0.017731
10846,9.319601,-2.419143,2.345032,-0.004736,0.011128,-0.019209
10847,9.313894,-2.439882,2.371741,-0.000349,0.013346,-0.017286
10848,9.290525,-2.416738,2.386272,-0.005568,0.013233,-0.020359
10849,9.287974,-2.425426,2.354455,-0.007602,0.012463,-0.017177
10850,9.320162,-2.413012,2.349118,-0.007306,0.008599,-0.012567
10851,9.277014,-2.465908,2.315806,-0.011983,0.010241,-0.019095
10852,9.291910,-2.464059,2.296969,-0.013356,0.010590,-0.016791
10853,9.286278,-2.485170,2.323064,-0.010309,0.006027,-0.016786
10854,9.318577,-2.472705,2.317347,-0.006587,0.007128,-0.013986
10855,9.275229,-2.471048,2.284840,-0.001382,0.002700,-0.014583
10856,9.316381,-2.480601,2.285106,0.003955,0.002179,-0.008932
10857,9.310830,-2.501842,2.310775,0.003162,-0.002847,-0.014303
10858,9.302312,-2.478789,2.304528,0.003348,-0.001531,-0.008602
10859,9.308857,-2.509960,2.277437,0.004173,-0.008180,-0.011120
10860,9.277332,-2.519984,2.282723,0.004943,-0.012240,-0.013091
10861,9.359864,-2.539957,2.281392,0.011823,-0.020878,-0.011381
10862,9.363377,-2.528057,2.312639,0.022670,-0.022794,-0.014931
10863,9.309212,-2.570206,2.329247,0.030691,-0.030511,-0.020667
10864,9.293611,-2.632740,2.312430,0.045613,-0.042322,-0.021016
10865,9.240650,-2.727716,2.327164,0.069234,-0.049303,-0.037513
10866,9.136399,-2.909259,2.392499,0.120355,-0.065133,-0.048238
10867,9.050687,-3.076837,2.472058,0.198133,-0.082805,-0.070608
10868,8.977680,-3.197190,2.592848,0.281563,-0.106224,-0.088197
10869,9.059346,-3.170177,2.710221,0.342455,-0.120549,-0.101666
10870,9.073088,-3.238769,2.866526,0.396823,-0.129536,-0.114614
10871,9.138630,-3.391817,3.213553,0.440934,-0.127368,-0.105770
10872,9.224307,-3.520243,3.426404,0.458275,-0.115505,-0.083657
10873,9.259995,-3.725646,3.546443,0.493281,-0.076678,-0.056915
10874,9.270780,-4.021367,3.595606,0.497891,-0.039066,-0.004596
10875,9.183941,-4.233445,3.794470,0.530186,-0.006353,0.069086
10876,9.338638,-4.567891,3.909991,0.555158,0.028782,0.140871
10877,9.387640,-4.898241,4.021963,0.594615,0.077959,0.226942
10878,9.304648,-5.040937,4.047322,0.658996,0.117968,0.305331
10879,9.296515,-4.983647,4.255330,0.712104,0.155380,0.379906
10880,9.288582,-5.127251,4.451094,0.735370,0.190278,0.468216
10881,9.378153,-5.270164,4.548784,0.754598,0.229985,0.539094
10882,9.450307,-5.253717,4.512629,0.742235,0.289518,0.617363
10883,9.371731,-5.189660,4.488778,0.682168,0.354213,0.675618
10884,9.281116,-5.208100,4.497085,0.601339,0.406214,0.729312
10885,9.296960,-5.501613,4.496862,0.545852,0.457054,0.787814
10886,9.219663,-5.791825,4.467934,0.541614,0.506863,0.850525
10887,9.084974,-6.052823,4.435810,0.587692,0.542051,0.921084
10888,8.952908,-6.202834,4.342142,0.678569,0.566165,0.989341
10889,8.990082,-6.258913,4.350433,0.781262,0.582912,1.069567
10890,8.986765,-6.161610,4.374755,0.879900,0.606084,1.138889
10891,9.109512,-6.068608,4.317564,0.951256,0.623482,1.196780
10892,9.253453,-5.934435,4.240659,0.997603,0.660926,1.244598
10893,9.300658,-5.761561,4.269241,1.029847,0.704407,1.282923
10894,9.223852,-5.377401,4.297577,1.003307,0.755752,1.314128
10895,9.170676,-5.108758,4.199741,0.947949,0.794133,1.338416
10896,9.036372,-4.984461,4.194364,0.872485,0.824633,1.353876
10897,8.995117,-4.920635,4.147546,0.801744,0.846236,1.378823
10898,8.967057,-4.889204,4.150630,0.737010,0.868581,1.382454
10899,8.949464,-4.918624,4.044428,0.684343,0.894743,1.389851
10900,8.947041,-4.938553,3.910476,0.666162,0.919578,1.383617
10901,8.896099,-4.966928,4.084732,0.698414,0.940242,1.363870
10902,8.935679,-4.854180,4.037593,0.706572,0.970875,1.335470
10903,8.786584,-4.655637,3.977172,0.707952,1.003989,1.296633
10904,8.609347,-4.450866,3.873069,0.672494,1.005627,1.260593
10905,8.583036,-4.165907,3.784811,0.605543,0.992609,1.228858
10906,8.496044,-3.897907,3.621194,0.512126,0.974960,1.197305
10907,8.405530,-3.703814,3.471668,0.394373,0.945443,1.169904
10908,8.316681,-3.639900,3.572693,0.284451,0.907522,1.163077
10909,8.191392,-3.695341,3.658872,0.197652,0.869245,1.156849
10910,8.086170,-3.768859,3.848834,0.125479,0.829218,1.143518
10911,8.054797,-3.770204,4.107259,0.086824,0.807222,1.112180
10912,8.001275,-3.770924,3.939365,0.078286,0.786147,1.071532
10913,7.892355,-3.679306,3.718651,0.089212,0.770726,1.020629
10914,7.633257,-3.432168,3.572749,0.079077,0.734053,0.971852
10915,7.337625,-3.297607,3.495706,0.056297,0.682846,0.908543
10916,7.166919,-3.335054,3.515697,0.040864,0.634899,0.850618
10917,7.005245,-3.443594,3.638792,0.043852,0.587988,0.778922
10918,6.977735,-3.468395,3.725445,0.086538,0.551729,0.713654
10919,6.970736,-3.366376,3.776257,0.127426,0.513810,0.654113
10920,6.872464,-3.237850,3.694018,0.143957,0.462918,0.601099
10921,6.718852,-2.942740,3.570175,0.118468,0.414214,0.552033
10922,6.486270,-2.736022,3.500469,0.067551,0.353826,0.497711
10923,6.299453,-2.663374,3.588452,-0.006067,0.299796,0.438898
10924,6.308985,-2.715997,3.619082,-0.063968,0.235717,0.370463
10925,6.458723,-2.915789,3.588791,-0.085538,0.158332,0.296898
10926,6.591737,-3.119983,3.580548,-0.042578,0.082512,0.229068
10927,6.688519,-3.114134,3.648389,0.024609,0.017384,0.155808
10928,6.563304,-2.983710,3.732869,0.076421,-0.041777,0.083719
10929,6.561645,-2.950885,3.874170,0.119698,-0.097019,0.000694
10930,6.489051,-2.880760,3.896232,0.141411,-0.145541,-0.087939
10931,6.557749,-2.641776,3.847166,0.119263,-0.199791,-0.167745
10932,6.607838,-2.484652,3.928501,0.046491,-0.250960,-0.247881
10933,6.873523,-2.539778,3.963778,-0.054539,-0.302235,-0.316781
10934,7.074648,-2.615869,3.887815,-0.134569,-0.347452,-0.376481
10935,7.353096,-2.577645,4.098511,-0.198178,-0.369843,-0.408089
10936,7.585485,-2.615816,4.354414,-0.288922,-0.373042,-0.432392
10937,7.634554,-2.666460,4.399232,-0.397170,-0.363747,-0.443381
10938,7.659877,-2.574167,4.250506,-0.532514,-0.371840,-0.450066
10939,7.765168,-2.628299,4.218818,-0.695806,-0.374069,-0.436657
10940,8.004670,-2.858390,4.172398,-0.859024,-0.378874,-0.414153
10941,8.207280,-3.243709,4.144920,-0.988435,-0.365868,-0.378027
10942,8.322737,-3.495461,4.231148,-1.064811,-0.350711,-0.324622
10943,8.486164,-3.524466,4.081844,-1.116444,-0.322811,-0.272988
10944,8.474103,-3.548075,3.701637,-1.159206,-0.317875,-0.211629
10945,8.634333,-3.544707,3.569158,-1.186094,-0.292810,-0.132852
10946,8.922665,-3.622407,3.969082,-1.286279,-0.249364,-0.026305
10947,9.063927,-4.043599,4.299562,-1.434812,-0.200573,0.088620
10948,9.134089,-4.818557,4.030897,-1.487721,-0.172821,0.218252
10949,8.949513,-5.363665,4.072319,-1.434370,-0.146188,0.339176
10950,8.912501,-5.268762,4.338101,-1.383567,-0.128703,0.451951
10951,9.051371,-5.458145,4.164791,-1.348726,-0.119177,0.572077
10952,9.034057,-5.875877,3.536064,-1.190321,-0.108216,0.679154
10953,8.901955,-5.949629,3.107048,-0.908813,-0.123638,0.768685
10954,8.753178,-6.010617,2.897779,-0.597640,-0.147866,0.855141
10955,8.529495,-6.205769,2.858403,-0.267968,-0.172155,0.910284
10956,8.430935,-6.082250,3.003669,0.047753,-0.210784,0.944507
10957,8.452737,-5.635601,3.344510,0.225262,-0.245113,0.989055
10958,8.627637,-5.405016,3.473825,0.265086,-0.273864,1.029242
10959,8.682404,-5.263556,3.532908,0.209984,-0.297345,1.053580
10960,8.454862,-5.263422,3.374625,0.116488,-0.328450,1.077089
10961,8.306360,-5.473888,3.260422,0.050337,-0.379790,1.086946
10962,8.450407,-5.618011,3.391112,0.038393,-0.424230,1.072470
10963,8.539341,-5.626887,3.493065,0.033039,-0.433199,1.050009
10964,8.493479,-5.616202,3.889632,0.050988,-0.406785,1.015455
10965,8.377247,-5.521607,4.178661,0.020601,-0.346038,0.985514
10966,8.123703,-5.416259,4.211150,-0.084269,-0.274756,0.957017
10967,7.865587,-5.567791,3.947319,-0.249199,-0.224615,0.933560
10968,7.541532,-6.037629,3.656954,-0.409876,-0.188160,0.920135
10969,7.412933,-6.608880,3.374177,-0.535732,-0.191686,0.913141
10970,7.513986,-7.065880,3.124313,-0.617701,-0.167563,0.899786
10971,7.410224,-7.534733,3.169700,-0.637320,-0.155418,0.895488
10972,7.503059,-7.872309,3.143679,-0.591892,-0.201730,0.892766
10973,7.666348,-8.024500,3.021693,-0.517341,-0.222593,0.891697
10974,7.761701,-7.967677,2.963052,-0.407429,-0.229793,0.877912
10975,7.732144,-7.841915,3.048406,-0.318091,-0.232826,0.868088
10976,7.622405,-7.700195,3.174380,-0.263794,-0.206263,0.855616
10977,7.375789,-7.625266,3.284114,-0.284015,-0.178715,0.838344
10978,7.007512,-7.623451,3.223700,-0.358129,-0.145258,0.827502
10979,6.614289,-7.898979,3.118942,-0.456398,-0.120015,0.805640
10980,6.365184,-8.199042,2.925413,-0.535347,-0.107094,0.783962
10981,6.140257,-8.561729,2.719558,-0.568232,-0.095308,0.757580
10982,5.876308,-8.897228,2.605844,-0.536226,-0.093202,0.730748
10983,5.661966,-9.194055,2.638433,-0.454897,-0.101771,0.702923
10984,5.394008,-9.408599,2.597927,-0.342880,-0.107399,0.672160
10985,5.123079,-9.595814,2.618506,-0.206570,-0.131719,0.649401
10986,4.862217,-9.482171,2.704208,-0.077030,-0.143368,0.619043
10987,4.533615,-9.545678,2.902525,0.037415,-0.155675,0.593729
10988,4.352507,-9.835920,3.019700,0.114082,-0.176822,0.582723
10989,4.225479,-9.808707,3.145192,0.186372,-0.183305,0.567383
10990,4.046433,-9.706529,3.328345,0.225998,-0.187807,0.556110
10991,3.868740,-9.508635,3.455248,0.239500,-0.175962,0.541480
10992,3.607476,-9.464369,3.664382,0.241583,-0.154339,0.526072
10993,3.326944,-9.696066,3.785486,0.253342,-0.122446,0.517898
10994,3.072855,-9.964583,3.988301,0.303895,-0.108423,0.518304
10995,2.975005,-10.207844,4.150169,0.385986,-0.085511,0.538434
10996,2.905421,-9.876347,4.352523,0.473614,-0.048549,0.553157
10997,2.682250,-9.763531,4.754236,0.516556,0.010114,0.592230
10998,2.549167,-9.931602,4.855444,0.538674,0.059304,0.642809
10999,2.446842,-9.861065,5.018802,0.595013,0.137166,0.681892
11000,2.006465,-9.655172,5.304044,0.632334,0.267767,0.711605
11001,1.755305,-9.635767,5.513291,0.667246,0.345109,0.766707
11002,1.768059,-9.590797,5.566418,0.697013,0.437843,0.823060
11003,1.460948,-9.634380,5.511828,0.678613,0.570034,0.877724
11004,0.981756,-9.335609,5.604629,0.638269,0.651707,0.948170
11005,0.769320,-9.179403,5.649197,0.529659,0.725373,1.025850
11006,0.395270,-9.452934,5.420880,0.427456,0.787798,1.101354
11007,0.276945,-9.065679,5.698411,0.412799,0.809825,1.186520
11008,0.323787,-9.297500,5.754482,0.347080,0.867001,1.281259
11009,0.488899,-9.321197,5.991432,0.353351,0.911345,1.390666
11010,0.387092,-9.836485,6.123329,0.317304,1.005018,1.476658
11011,0.212731,-10.345317,6.273689,0.459286,1.061979,1.574454
11012,0.394601,-10.225566,6.497384,0.585592,1.108368,1.701296
11013,0.319291,-9.966474,6.563712,0.617653,1.178631,1.838922
11014,0.116623,-9.310813,6.611387,0.611364,1.226319,1.979725
11015,-0.076228,-9.152957,6.700039,0.484265,1.274564,2.125619
11016,-0.064143,-9.923238,6.689577,0.341350,1.306756,2.283160
11017,-0.022520,-10.419059,6.687302,0.296782,1.351572,2.426406
11018,-0.304988,-10.894282,6.613090,0.345723,1.393584,2.582056
11019,-0.620734,-11.223447,6.602786,0.527041,1.434586,2.726578
11020,-0.588039,-11.756453,6.530603,0.681407,1.442002,2.909900
11021,-1.255440,-11.137664,6.777406,1.074164,1.493979,3.009669
11022,-1.077695,-10.953913,6.559575,1.299936,1.429013,3.168272
11023,-1.979556,-8.649088,7.273475,1.289370,1.598005,3.156514
11024,-1.474917,-8.572741,7.621911,0.763593,1.567072,3.288531
11025,-0.988491,-10.922077,6.224112,0.691731,1.568622,3.523968
11026,-1.986297,-11.226736,5.932653,0.927505,1.525247,3.668582
11027,-2.453372,-10.038262,5.871587,1.121818,1.427145,3.760598
11028,-2.570754,-9.456165,5.833351,1.187910,1.403943,3.840693
11029,-2.586804,-9.873945,5.808958,1.301573,1.393263,3.884680
11030,-2.582037,-10.133545,5.643763,1.527080,1.370231,3.907692
11031,-2.718361,-9.665235,5.828888,1.773646,1.370841,3.912959
11032,-2.787489,-9.078664,5.976661,1.944635,1.371692,3.911086
11033,-2.809938,-8.552888,5.787177,2.029925,1.401613,3.889632
11034,-3.066534,-8.211735,5.510813,2.051821,1.440557,3.858536
11035,-3.410280,-8.032235,5.080460,2.082423,1.461324,3.812258
11036,-3.631938,-7.867037,4.785597,2.153170,1.481187,3.742236
11037,-3.695974,-7.707162,4.738560,2.275342,1.491266,3.668576
11038,-3.755029,-7.148026,4.719257,2.397274,1.510211,3.587348
11039,-4.009600,-6.542294,4.759420,2.475788,1.541710,3.514172
11040,-4.269635,-5.798683,4.691594,2.469617,1.568611,3.436382
11041,-4.550062,-5.211379,4.623705,2.387332,1.589929,3.365344
11042,-4.615337,-4.866175,4.508029,2.304507,1.596649,3.278570
11043,-4.504560,-4.518991,4.360265,2.248198,1.596652,3.185818
11044,-4.567747,-4.106353,4.374201,2.214347,1.596432,3.093063
11045,-4.573276,-3.667417,4.408592,2.204252,1.606519,2.994031
11046,-4.473312,-3.218146,4.315175,2.174815,1.637696,2.900203
11047,-4.763087,-2.914121,4.406845,2.133285,1.648384,2.819745
11048,-4.973133,-2.578446,4.343810,2.071391,1.621185,2.740149
11049,-5.059124,-2.280936,4.400357,1.989944,1.582677,2.661594
11050,-5.075915,-2.017310,4.281772,1.910174,1.561868,2.580276
11051,-5.343123,-1.898418,4.233831,1.853675,1.556946,2.500399
11052,-5.501435,-1.647046,4.275276,1.836074,1.529541,2.415677
11053,-5.420261,-1.363981,4.204824,1.841354,1.501124,2.331196
11054,-5.520370,-1.028468,4.266678,1.874770,1.499856,2.250244
11055,-5.686193,-0.446450,4.267403,1.879362,1.467265,2.181804
11056,-5.916314,0.149942,4.378413,1.800594,1.421874,2.122291
11057,-6.012754,0.673587,4.125431,1.653698,1.389535,2.063842
11058,-6.121434,1.105010,4.087522,1.482950,1.347026,1.993530
11059,-6.138581,1.509566,3.963215,1.299403,1.316873,1.913716
11060,-6.252514,1.793940,3.921932,1.119319,1.287877,1.833325
11061,-6.342643,1.974615,3.744794,0.957680,1.245311,1.750565
11062,-6.427519,2.089468,3.474392,0.851310,1.220111,1.653434
11063,-6.642360,2.297618,3.246808,0.775483,1.156729,1.559848
11064,-6.723481,2.432844,2.994624,0.697410,1.100252,1.464066
11065,-6.860029,2.541271,2.834176,0.642801,1.021728,1.367457
11066,-6.827753,2.824353,2.666597,0.585888,0.931293,1.259690
11067,-6.764344,3.196795,2.621198,0.522338,0.858851,1.143320
11068,-6.866612,3.610932,2.585809,0.416304,0.788654,1.026279
11069,-6.972047,3.862258,2.511625,0.277575,0.712386,0.909164
11070,-7.109921,3.877946,2.331006,0.149696,0.639307,0.777693
11071,-7.185932,3.791724,2.153034,0.065023,0.562512,0.648293
11072,-7.288225,3.750409,1.985615,0.010786,0.483106,0.513317
11073,-7.410108,3.711580,1.869552,-0.029758,0.384551,0.380140
11074,-7.395801,3.697886,1.778629,-0.067972,0.289733,0.243297
11075,-7.331385,3.616240,1.760170,-0.097108,0.180640,0.100488
11076,-7.168213,3.662319,1.752310,-0.114211,0.079711,-0.050313
11077,-7.114135,3.697989,1.738543,-0.159210,-0.019428,-0.194439
11078,-7.096682,3.750502,1.767275,-0.213783,-0.112663,-0.337648
11079,-7.166529,3.703631,1.795865,-0.277889,-0.206142,-0.469262
11080,-7.305081,3.699698,1.901794,-0.346032,-0.302721,-0.602842
11081,-7.317395,3.658862,2.074239,-0.412298,-0.400288,-0.716721
11082,-7.297807,3.547032,2.229302,-0.483307,-0.483546,-0.828222
11083,-7.360113,3.425315,2.466889,-0.548086,-0.553118,-0.927956
11084,-7.434518,3.255305,2.554613,-0.622782,-0.628122,-1.022065
11085,-7.391306,3.012469,2.599226,-0.685789,-0.709077,-1.125702
11086,-7.219531,2.663297,2.580687,-0.716916,-0.784974,-1.236615
11087,-7.128331,2.434192,2.664768,-0.710727,-0.853953,-1.347350
11088,-7.108382,2.255721,2.791929,-0.709948,-0.926516,-1.455005
11089,-7.068188,2.061470,2.876504,-0.722733,-0.999887,-1.562794
11090,-6.912860,1.786028,2.881640,-0.738682,-1.082421,-1.653655
11091,-6.859725,1.452820,3.039651,-0.742665,-1.151927,-1.749895
11092,-6.725805,1.156638,3.187939,-0.739643,-1.245562,-1.838902
11093,-6.595573,0.959168,3.319818,-0.731675,-1.331675,-1.923268
11094,-6.458001,0.764900,3.731014,-0.735945,-1.397040,-2.012346
11095,-6.428404,0.505911,4.035955,-0.771074,-1.447792,-2.103718
11096,-6.321362,0.244358,4.154384,-0.825315,-1.508824,-2.183941
11097,-6.331245,0.012304,4.388113,-0.888559,-1.522730,-2.267386
11098,-6.399439,-0.298147,4.533188,-0.961869,-1.558187,-2.344707
11099,-6.195203,-0.593085,4.732477,-1.019380,-1.602810,-2.416124
11100,-6.000833,-0.879460,4.943828,-1.091242,-1.625499,-2.483153
11101,-5.835600,-1.171226,5.089139,-1.176400,-1.642706,-2.550393
11102,-5.656685,-1.619840,5.148090,-1.263218,-1.658815,-2.619881
11103,-5.760773,-2.126539,5.098957,-1.332708,-1.648080,-2.691097
11104,-6.117934,-2.658220,5.107286,-1.365548,-1.634284,-2.759301
11105,-6.233151,-3.204035,5.042889,-1.341391,-1.643200,-2.828553
11106,-6.107630,-3.674782,5.223153,-1.256204,-1.648182,-2.886610
11107,-6.045432,-4.181815,5.484926,-1.145463,-1.625939,-2.928558
11108,-6.079089,-4.497951,5.660358,-1.032534,-1.599082,-2.956625
11109,-6.113885,-4.559333,5.798905,-0.923259,-1.581435,-2.985651
11110,-5.898383,-4.753968,5.980545,-0.804614,-1.553537,-3.005080
11111,-5.589095,-5.172020,6.126508,-0.695657,-1.524319,-2.992532
11112,-5.466496,-5.285606,6.365355,-0.584679,-1.486279,-2.962868
11113,-5.387030,-5.214494,6.760797,-0.531131,-1.458304,-2.925173
11114,-5.177602,-5.241312,7.059894,-0.561490,-1.433975,-2.869374
11115,-4.940240,-5.549489,7.254930,-0.624740,-1.404413,-2.801557
11116,-4.820662,-5.741249,7.372642,-0.682309,-1.373731,-2.746328
11117,-4.724604,-5.860595,7.476335,-0.739919,-1.359609,-2.691058
11118,-4.573202,-5.991016,7.617569,-0.794705,-1.347631,-2.642388
11119,-4.394862,-6.146430,7.745544,-0.847915,-1.332163,-2.593591
11120,-4.288189,-6.329303,7.851455,-0.873958,-1.320599,-2.553567
11121,-4.179413,-6.465468,7.837861,-0.885573,-1.311007,-2.509082
11122,-4.162373,-6.620121,7.864813,-0.876423,-1.295379,-2.455465
11123,-4.054553,-6.948678,7.812491,-0.860144,-1.290199,-2.402462
11124,-3.878729,-7.060365,7.658012,-0.804825,-1.293415,-2.356673
11125,-3.564269,-7.296105,7.438562,-0.707766,-1.248114,-2.329712
11126,-3.733799,-7.434902,7.351893,-0.541013,-1.216925,-2.293760
11127,-3.926253,-7.574292,7.190636,-0.287864,-1.294832,-2.261719
11128,-3.787697,-7.419141,7.243967,-0.020241,-1.375896,-2.220252
11129,-3.594181,-7.120312,7.399722,0.203983,-1.455698,-2.155589
11130,-3.346490,-6.911268,7.736116,0.353900,-1.525131,-2.086031
11131,-3.056762,-6.724081,8.079650,0.442365,-1.562113,-2.005124
11132,-2.945624,-6.137436,8.368932,0.452756,-1.586127,-1.940981
11133,-2.938974,-5.516884,8.534179,0.396268,-1.589073,-1.888704
11134,-2.834174,-5.467755,8.560785,0.290565,-1.576676,-1.832175
11135,-2.639212,-5.625178,8.373681,0.205674,-1.558129,-1.786165
11136,-2.477090,-5.794477,8.440645,0.149170,-1.550559,-1.753075
11137,-2.166501,-6.047376,8.335121,0.099596,-1.523234,-1.714077
11138,-2.088009,-6.079910,8.369093,0.075733,-1.502378,-1.668395
11139,-1.736784,-6.569774,8.542037,0.057966,-1.459790,-1.631239
11140,-1.569772,-6.769338,8.365773,0.115173,-1.413477,-1.596360
11141,-1.635895,-6.107848,8.417499,0.113160,-1.376845,-1.555122
11142,-1.688318,-5.541409,8.438979,-0.015374,-1.337254,-1.519434
11143,-1.585913,-5.647053,8.218820,-0.194695,-1.288929,-1.496838
11144,-1.356516,-5.737975,8.017966,-0.326607,-1.250521,-1.487733
11145,-1.267875,-5.861004,7.778591,-0.426063,-1.221806,-1.481885
11146,-1.048628,-6.172260,7.729414,-0.504934,-1.201386,-1.474367
11147,-0.480402,-6.814268,7.982756,-0.573958,-1.173942,-1.448665
11148,0.183238,-7.312218,8.129232,-0.639999,-1.118703,-1.396656
11149,0.306027,-7.152383,8.192361,-0.726745,-1.057792,-1.349815
11150,0.431542,-6.811135,8.303044,-0.939043,-1.037401,-1.280318
11151,0.636241,-6.450460,8.173878,-1.267743,-1.011895,-1.185093
11152,0.835113,-6.437967,7.881842,-1.697033,-0.980753,-1.088058
11153,1.101053,-7.544124,7.579844,-2.003968,-0.892529,-1.022362
11154,1.235097,-9.156562,7.062729,-1.930103,-0.809383,-1.028912
11155,1.260121,-10.173268,6.684688,-1.570076,-0.777857,-1.020736
11156,1.436272,-10.543422,6.498429,-1.122523,-0.770469,-1.004475
11157,1.750741,-10.156998,6.763251,-0.770719,-0.760632,-0.967865
11158,2.002055,-9.420688,6.966016,-0.596029,-0.734903,-0.933216
11159,2.214436,-8.763586,7.133011,-0.615948,-0.701180,-0.889585
11160,2.426118,-8.342892,7.006112,-0.757466,-0.671471,-0.853494
11161,2.565914,-8.178677,6.674782,-0.935344,-0.623411,-0.821043
11162,2.492737,-8.579600,6.219170,-1.028112,-0.570531,-0.809434
11163,2.595492,-8.985211,5.891072,-0.974947,-0.544472,-0.818353
11164,2.891395,-9.333241,5.692846,-0.775337,-0.506055,-0.852873
11165,3.033419,-9.305096,5.384016,-0.496007,-0.464952,-0.903551
11166,3.192603,-8.731606,5.426086,-0.253854,-0.448544,-0.932262
11167,3.567093,-8.196446,5.533046,-0.173886,-0.441387,-0.916399
11168,3.944285,-8.081621,5.572090,-0.203824,-0.409379,-0.910722
11169,4.080953,-8.197268,5.558454,-0.262464,-0.372284,-0.897527
11170,4.235519,-8.265794,5.419991,-0.288369,-0.353799,-0.905380
11171,4.463987,-8.104439,5.316845,-0.291402,-0.338015,-0.927073
11172,4.658433,-8.053471,5.139956,-0.250908,-0.314626,-0.954478
11173,4.828073,-7.973810,4.924269,-0.164492,-0.294995,-1.004285
11174,4.977069,-7.727911,4.704057,-0.063098,-0.286275,-1.044848
11175,4.963775,-7.158501,4.479144,-0.014364,-0.296789,-1.074934
11176,4.955128,-6.564167,4.201539,-0.068381,-0.333522,-1.088842
11177,5.193466,-6.308360,4.078917,-0.162750,-0.372841,-1.095009
11178,5.603989,-6.569586,4.244452,-0.233451,-0.387076,-1.102396
11179,6.024763,-6.952527,4.442572,-0.256924,-0.379727,-1.113004
11180,6.328875,-7.315915,4.668611,-0.204267,-0.351388,-1.126936
11181,6.611293,-7.428720,4.774297,-0.073789,-0.298145,-1.161652
11182,6.690498,-7.477437,4.605728,0.063507,-0.271466,-1.184935
11183,6.620022,-7.346793,4.673117,0.176229,-0.254021,-1.182148
11184,6.696949,-7.024118,4.888679,0.214480,-0.240017,-1.170538
11185,6.973942,-6.584226,4.967354,0.193189,-0.231607,-1.157036
11186,7.150744,-6.263230,4.973045,0.085003,-0.213575,-1.126715
11187,7.258411,-6.038798,4.868329,-0.039894,-0.193141,-1.091095
11188,7.247483,-6.081167,4.740558,-0.161808,-0.162913,-1.048460
11189,7.136316,-6.219335,4.659405,-0.255890,-0.145528,-0.996138
11190,7.088290,-6.236871,4.812415,-0.337244,-0.120804,-0.952105
11191,6.981954,-6.432780,4.760853,-0.380180,-0.112508,-0.914430
11192,7.093134,-6.854700,4.544274,-0.334128,-0.104090,-0.892999
11193,7.207777,-7.049740,4.439349,-0.183160,-0.098161,-0.888470
11194,7.244800,-6.961973,4.413932,-0.042211,-0.075269,-0.867243
11195,7.130931,-6.813805,4.442924,0.089468,-0.059775,-0.854898
11196,7.112561,-6.603876,4.538728,0.180494,-0.059673,-0.796948
11197,7.034446,-6.234952,4.546962,0.209968,-0.053990,-0.746467
11198,7.029019,-5.835226,4.379531,0.215594,-0.046635,-0.701297
11199,7.019789,-5.394407,4.417508,0.165542,-0.040141,-0.655526
11200,7.107688,-5.362535,4.292601,0.082906,-0.034700,-0.623069
11201,7.399507,-5.452421,4.227714,0.051801,-0.031068,-0.599271
11202,7.445115,-5.446288,4.151692,0.069785,-0.025811,-0.588523
11203,7.368314,-5.088975,4.297805,0.072698,-0.013861,-0.570550
11204,7.185186,-5.046939,4.390361,0.046748,-0.000842,-0.555468
11205,7.173327,-5.028258,4.444430,0.048951,-0.002730,-0.541650
11206,7.609186,-4.046746,4.923901,-0.033675,-0.008587,-0.495672
11207,7.617351,-3.977303,5.624837,-0.426978,0.087339,-0.376071
11208,7.249906,-5.328077,5.371890,-0.699351,0.116547,-0.340651
11209,7.038777,-5.928264,4.616527,-0.677680,0.095197,-0.296401
11210,6.812337,-5.884244,4.684419,-0.583982,0.075937,-0.250085
11211,7.065236,-6.301960,4.666095,-0.431878,0.058936,-0.239523
11212,7.484412,-6.529402,4.568864,-0.180282,0.059182,-0.229387
11213,7.646052,-6.170005,4.483873,0.063188,0.072233,-0.205675
11214,7.539970,-5.855590,4.276029,0.257882,0.078994,-0.192890
11215,7.452689,-5.615120,4.264182,0.405540,0.079448,-0.175668
11216,7.569568,-5.226529,4.392561,0.492701,0.073793,-0.163451
11217,7.662295,-5.048912,4.353534,0.481022,0.097453,-0.128861
11218,7.559773,-5.022564,4.350756,0.462163,0.098352,-0.088448
11219,7.482722,-4.462557,4.393228,0.420533,0.102229,-0.051842
11220,7.417459,-3.837811,4.239987,0.324696,0.100265,-0.016210
11221,7.626560,-3.637092,4.255876,0.215584,0.106057,0.028173
11222,7.796563,-3.737564,4.334349,0.068579,0.119020,0.100385
11223,7.950608,-4.288404,4.241002,-0.043549,0.145886,0.179127
11224,7.970772,-4.469276,4.156172,-0.060411,0.159903,0.252301
11225,7.839174,-4.250516,4.241346,-0.080770,0.176007,0.333608
11226,7.775663,-3.788861,4.240547,-0.148275,0.182243,0.394340
11227,7.705457,-3.699148,4.107429,-0.243370,0.168158,0.457205
11228,7.792230,-3.987459,3.991583,-0.293797,0.134406,0.531672
11229,7.967108,-4.400020,3.772077,-0.276638,0.101228,0.595282
11230,8.161409,-4.388603,3.652520,-0.201650,0.077040,0.652966
11231,8.254290,-4.224095,3.597280,-0.149991,0.068156,0.702760
11232,8.219642,-4.206189,3.539481,-0.123479,0.073611,0.743356
11233,8.134725,-4.159744,3.527327,-0.128032,0.080794,0.777424
11234,7.872604,-4.030163,3.501630,-0.149427,0.083859,0.792633
11235,7.624298,-4.011970,3.527851,-0.177947,0.079746,0.767557
11236,7.483713,-4.092040,3.499668,-0.198798,0.059468,0.739691
11237,7.268740,-4.363176,3.485624,-0.200326,0.022049,0.703081
11238,7.333730,-4.620159,3.564636,-0.166260,-0.029371,0.646433
11239,7.479751,-4.796699,3.431016,-0.124838,-0.084355,0.583776
11240,7.520104,-4.982574,3.268907,-0.089794,-0.132658,0.537790
11241,7.510743,-4.959559,3.337198,-0.071520,-0.182960,0.487702
11242,7.517950,-4.972000,3.324219,-0.074268,-0.234834,0.437605
11243,7.130204,-5.069389,3.432229,-0.060936,-0.280024,0.396994
11244,6.982911,-5.059485,3.589347,-0.051480,-0.358797,0.353097
11245,7.193107,-5.008831,3.603062,-0.069704,-0.416688,0.305048
11246,7.257546,-4.987841,3.636801,-0.098053,-0.468241,0.253200
11247,7.106496,-4.999367,3.585723,-0.155312,-0.523752,0.198573
11248,6.985273,-5.051715,3.508113,-0.219779,-0.587306,0.123529
11249,6.992762,-5.245416,3.418810,-0.271005,-0.647383,0.044258
11250,6.871955,-5.400002,3.322373,-0.292319,-0.707625,-0.046541
11251,6.649006,-5.416991,3.328579,-0.311997,-0.769394,-0.135226
11252,6.536481,-5.381474,3.431812,-0.327485,-0.840892,-0.223184
11253,6.243032,-5.384004,3.462255,-0.325205,-0.910849,-0.312873
11254,5.937524,-5.342752,3.631708,-0.301833,-0.987265,-0.404185
11255,5.806931,-5.267388,3.710853,-0.261681,-1.064739,-0.514217
11256,5.773201,-5.325495,3.704814,-0.207801,-1.128203,-0.629813
11257,5.700443,-5.406887,3.608748,-0.110527,-1.180046,-0.759724
11258,5.545173,-5.527624,3.612199,0.026555,-1.241248,-0.887785
11259,5.415257,-5.513881,3.665429,0.191002,-1.291368,-1.037874
11260,5.589734,-5.419023,3.681172,0.362833,-1.339393,-1.189633
11261,5.818000,-5.494575,3.774673,0.533487,-1.367883,-1.329663
11262,6.116280,-5.582162,3.932511,0.680016,-1.386390,-1.450976
11263,6.526953,-5.656277,4.036435,0.801122,-1.385329,-1.568725
11264,6.938061,-5.696265,4.156642,0.876079,-1.375301,-1.682766
11265,7.174374,-5.689856,4.088905,0.913996,-1.354826,-1.773278
11266,7.421853,-5.742747,4.095670,0.923023,-1.344171,-1.847324
11267,7.753564,-5.668903,4.160499,0.886513,-1.321121,-1.901491
11268,8.073952,-5.423942,4.255096,0.797319,-1.278602,-1.947058
11269,8.229015,-5.121861,4.393507,0.662073,-1.224943,-1.973317
11270,8.357979,-4.864981,4.597232,0.493238,-1.157230,-1.987250
11271,8.476619,-4.692449,4.702302,0.311780,-1.078085,-2.002677
11272,8.600545,-4.571747,4.769201,0.143828,-0.991538,-2.010941
11273,8.609302,-4.378417,4.754778,-0.003249,-0.893348,-2.022284
11274,8.524916,-4.150384,4.696703,-0.141995,-0.810788,-2.048605
11275,8.532556,-3.931702,4.555296,-0.277327,-0.724028,-2.072012
11276,8.554911,-3.772718,4.361701,-0.426214,-0.643710,-2.103267
11277,8.521964,-3.691223,4.164503,-0.564668,-0.583949,-2.129700
11278,8.498266,-3.775529,3.878645,-0.694674,-0.544016,-2.164949
11279,8.578061,-3.958146,3.565224,-0.805606,-0.536301,-2.191605
11280,8.803815,-4.127353,3.333656,-0.907037,-0.523315,-2.222680
11281,9.029719,-4.222664,3.219990,-0.995565,-0.512622,-2.243261
11282,9.332335,-4.279794,3.046793,-1.085653,-0.506270,-2.251526
11283,9.703330,-4.360027,2.915058,-1.160951,-0.498516,-2.263808
11284,10.141745,-4.475980,2.914122,-1.207824,-0.477933,-2.258974
11285,10.523000,-4.490517,2.907729,-1.219143,-0.442377,-2.236550
11286,10.855100,-4.484994,3.041163,-1.211439,-0.393701,-2.190247
11287,11.100016,-4.405865,3.111053,-1.195529,-0.335890,-2.115720
11288,11.236447,-4.345501,3.149592,-1.164247,-0.275746,-2.014568
11289,11.338793,-4.202821,3.170321,-1.119033,-0.223482,-1.872651
11290,11.485726,-4.015867,3.260798,-1.076253,-0.174733,-1.720394
11291,11.682478,-3.779907,3.282228,-1.048847,-0.124870,-1.525767
11292,11.748337,-3.583709,3.297780,-1.028078,-0.055326,-1.313665
11293,11.543019,-3.281294,3.307708,-1.016196,0.016887,-1.081690
11294,11.261871,-3.017039,3.262104,-1.015929,0.073595,-0.841738
11295,11.123543,-2.798711,3.237244,-1.024265,0.109260,-0.598508
11296,11.201760,-2.506600,3.080846,-1.056868,0.143073,-0.360344
11297,11.057999,-2.215441,2.886523,-1.114907,0.208742,-0.143495
11298,10.621093,-2.224467,2.725494,-1.174207,0.256284,0.066930
11299,10.153802,-2.358772,2.479480,-1.211076,0.293017,0.245076
11300,9.841644,-2.558413,2.387032,-1.233681,0.303831,0.400625
11301,9.633967,-2.636055,2.288929,-1.241212,0.308307,0.528503
11302,9.595494,-2.733962,2.273559,-1.236261,0.319198,0.629109
11303,9.514815,-2.802022,2.266571,-1.213152,0.331714,0.706588
11304,9.474888,-2.986716,2.184949,-1.157869,0.348537,0.762510
11305,9.360886,-3.052609,2.162596,-1.076058,0.369913,0.791203
11306,9.141970,-3.167580,2.183564,-0.973940,0.391495,0.808808
11307,9.000073,-3.089769,2.202147,-0.870889,0.402308,0.807181
11308,8.841732,-3.043601,2.236615,-0.786297,0.407554,0.787105
11309,8.764441,-3.035836,2.263653,-0.709210,0.415234,0.756078
11310,8.703044,-3.019562,2.273829,-0.646326,0.413873,0.718348
11311,8.753356,-3.035850,2.360761,-0.592207,0.407729,0.676466
11312,8.900549,-2.971421,2.319328,-0.540452,0.406584,0.629562
11313,8.950836,-2.901818,2.268357,-0.500861,0.411229,0.596064
11314,8.983675,-2.864386,2.229253,-0.475998,0.408495,0.557356
11315,8.957230,-2.763499,2.091939,-0.444534,0.400603,0.528148
11316,8.977702,-2.736935,2.006581,-0.401649,0.377765,0.504555
11317,9.009815,-2.656944,1.874297,-0.354613,0.351523,0.483632
11318,9.028652,-2.580527,1.884819,-0.304376,0.313646,0.468113
11319,9.136382,-2.500448,1.837817,-0.264575,0.279332,0.460894
11320,9.270131,-2.517252,1.791869,-0.232206,0.246032,0.446202
11321,9.243056,-2.619413,1.820009,-0.183745,0.212411,0.440208
11322,9.233436,-2.637382,1.811096,-0.119195,0.178052,0.434842
11323,9.201958,-2.695297,1.774589,-0.047633,0.139375,0.419589
11324,9.255899,-2.754306,1.805403,0.033710,0.099118,0.406899
11325,9.201141,-2.787509,1.780780,0.136640,0.064022,0.390424
11326,9.091716,-2.803610,1.807394,0.242459,0.025756,0.368730
11327,9.095285,-2.698373,1.911492,0.337777,-0.014956,0.344640
11328,9.134102,-2.637447,1.970180,0.406627,-0.045831,0.319327
11329,9.198175,-2.599823,1.979824,0.463803,-0.062398,0.297341
11330,9.084206,-2.584571,1.964772,0.514691,-0.080139,0.269199
11331,9.101714,-2.501024,2.000643,0.557455,-0.105460,0.247388
11332,9.055445,-2.446787,2.008921,0.582874,-0.119420,0.223316
11333,9.091295,-2.417662,1.983879,0.602769,-0.138047,0.199038
11334,9.083250,-2.383965,2.047420,0.613217,-0.149594,0.175054
11335,9.115807,-2.428664,2.039547,0.625202,-0.162910,0.153909
11336,9.175016,-2.419987,2.088301,0.635636,-0.172095,0.130739
11337,9.191117,-2.416247,2.068401,0.641933,-0.184975,0.110741
11338,9.268341,-2.455792,2.092919,0.648728,-0.192870,0.085522
11339,9.364901,-2.473003,2.164332,0.663741,-0.205948,0.065900
11340,9.490012,-2.440350,2.166465,0.666852,-0.201697,0.049314
11341,9.471009,-2.399230,2.210098,0.666341,-0.194761,0.036179
11342,9.446179,-2.379309,2.278847,0.665493,-0.196094,0.030361
11343,9.564038,-2.375843,2.272386,0.662276,-0.191787,0.023700
11344,9.586834,-2.341581,2.316517,0.657567,-0.184562,0.019832
11345,9.598523,-2.296256,2.321454,0.648232,-0.177294,0.034405
11346,9.661214,-2.218503,2.366494,0.630366,-0.170863,0.033773
11347,9.762627,-2.162744,2.378680,0.598799,-0.162923,0.046028
11348,9.798720,-2.076832,2.402315,0.560738,-0.142570,0.055800
11349,9.738165,-2.026619,2.444314,0.511745,-0.128504,0.069612
11350,9.668319,-1.957016,2.478851,0.456226,-0.123042,0.085850
11351,9.630934,-1.933134,2.507225,0.395089,-0.117025,0.096055
11352,9.587411,-1.932432,2.561654,0.334961,-0.108109,0.101646
11353,9.515574,-1.989522,2.564989,0.285788,-0.101704,0.106344
11354,9.436988,-2.014060,2.593990,0.259016,-0.087831,0.105434
11355,9.349824,-2.071661,2.617946,0.233852,-0.087353,0.099769
11356,9.326818,-2.106780,2.629042,0.225145,-0.078162,0.086746
11357,9.327531,-2.162537,2.628736,0.222923,-0.075353,0.065409
11358,9.368803,-2.117877,2.625576,0.224067,-0.062467,0.043109
11359,9.299040,-2.048377,2.660837,0.211839,-0.049637,0.021470
11360,9.288658,-2.034528,2.620846,0.188256,-0.045516,-0.009731
11361,9.298945,-2.049278,2.628471,0.159262,-0.029653,-0.036702
11362,9.300538,-2.041186,2.629130,0.131502,-0.020132,-0.055136
11363,9.281738,-2.001773,2.583097,0.090591,-0.000649,-0.077672
11364,9.248572,-2.015433,2.559803,0.052526,0.008903,-0.091744
11365,9.233246,-2.071787,2.551967,0.013041,0.018877,-0.103583
11366,9.247437,-2.129697,2.505272,-0.018953,0.027055,-0.115798
11367,9.270768,-2.208748,2.466274,-0.044732,0.033335,-0.123534
11368,9.253399,-2.276889,2.426683,-0.058766,0.041187,-0.134860
11369,9.265154,-2.341770,2.439427,-0.065431,0.041397,-0.135729
11370,9.295058,-2.398655,2.373720,-0.063109,0.047892,-0.149568
11371,9.297496,-2.386366,2.376557,-0.058296,0.044378,-0.145818
11372,9.306605,-2.407619,2.354859,-0.059332,0.045444,-0.155171
11373,9.307881,-2.461446,2.328058,-0.060803,0.044328,-0.158445
11374,9.323104,-2.461120,2.279138,-0.063016,0.044729,-0.160365
11375,9.349975,-2.469523,2.269790,-0.066575,0.042949,-0.160504
11376,9.313155,-2.500695,2.273589,-0.070805,0.040076,-0.159757
11377,9.313903,-2.499896,2.243415,-0.074437,0.040896,-0.159434
11378,9.306860,-2.532459,2.207946,-0.069622,0.037404,-0.155698
11379,9.345582,-2.550262,2.237367,-0.074608,0.036035,-0.153614
11380,9.312885,-2.507502,2.211020,-0.072655,0.035450,-0.142398
11381,9.313373,-2.508736,2.180122,-0.081096,0.033272,-0.132419
11382,9.329162,-2.562097,2.222925,-0.083597,0.030377,-0.123191
11383,9.329341,-2.565461,2.191253,-0.081406,0.026091,-0.107355
11384,9.309129,-2.590367,2.205571,-0.078181,0.023594,-0.104038
11385,9.374466,-2.626264,2.162556,-0.070935,0.022721,-0.087165
11386,9.353956,-2.586348,2.206960,-0.066104,0.020770,-0.077938
11387,9.394559,-2.602594,2.175739,-0.056593,0.015383,-0.065152
11388,9.360751,-2.618919,2.241158,-0.050926,0.011378,-0.054741
11389,9.386154,-2.569999,2.259159,-0.044596,0.008472,-0.045217
11390,9.450490,-2.543524,2.245656,-0.042589,0.004739,-0.032058
11391,9.392922,-2.544630,2.231345,-0.043170,0.007180,-0.022537
11392,9.356149,-2.576981,2.264057,-0.037527,0.003178,-0.012157
11393,9.367877,-2.585905,2.303116,-0.032261,0.003443,-0.008989
11394,9.397538,-2.519834,2.294189,-0.025860,-0.000018,0.003068
11395,9.382535,-2.520992,2.312809,-0.024051,-0.002646,0.011086
11396,9.318617,-2.480256,2.355487,-0.022437,-0.000071,0.020060
11397,9.327632,-2.503852,2.362268,-0.017168,-0.001853,0.020186
11398,9.353492,-2.515642,2.381895,-0.010952,-0.004206,0.027119
11399,9.377153,-2.473334,2.399791,-0.004925,-0.003402,0.031970
11400,9.310914,-2.445527,2.410607,-0.002141,-0.001608,0.027993
11401,9.310226,-2.448269,2.410481,0.003124,-0.001347,0.031158
11402,9.311589,-2.439102,2.442489,0.007909,-0.007392,0.034244
11403,9.323847,-2.387373,2.420871,0.003900,-0.004896,0.026771
11404,9.342206,-2.365887,2.465928,0.002275,0.000711,0.029961
11405,9.281314,-2.383081,2.420008,-0.000112,0.001689,0.025381
11406,9.309165,-2.382531,2.472603,-0.000109,-0.000356,0.022341
11407,9.328883,-2.363532,2.426580,0.003532,0.001420,0.022611
11408,9.330484,-2.353103,2.459081,0.000283,0.002415,0.013777
11409,9.301672,-2.356983,2.406900,0.005360,0.003786,0.011814
11410,9.327763,-2.367112,2.427397,0.006983,-0.001823,0.008626
