// Start Time: Unknown
// Update Rate: 100.0Hz
// Filter Profile: human (46.1)
// Firmware Version: 4.3.5
PacketCounter	Acc_X	Acc_Y	Acc_Z	Gyr_X	Gyr_Y	Gyr_Z	Roll	Pitch	Yaw
23373	9.865515	-0.852525	1.289951	0.000394	-0.020131	-0.003853	-33.446306	-81.087132	28.671055
23374	9.876866	-0.836110	1.303181	0.002210	-0.013043	-0.006549	-32.681724	-81.086413	26.796011
23375	9.865957	-0.851207	1.287439	0.007291	-0.005764	-0.008195	-33.031940	-81.086856	27.700955
23376	9.881267	-0.820757	1.243925	0.004120	-0.002047	-0.004593	-33.019586	-81.089274	27.690839
23377	9.865890	-0.802577	1.236703	0.009437	0.000254	-0.007583	-32.993694	-81.095082	27.662550
23378	9.892352	-0.779687	1.233709	0.006571	0.001513	-0.008100	-32.962068	-81.096881	27.634349
23379	9.892396	-0.778589	1.234048	0.007189	0.004252	-0.012399	-32.912714	-81.100897	27.584375
23380	9.881467	-0.816807	1.244938	0.007587	0.005702	-0.011865	-32.860576	-81.101845	27.536001
23381	9.850716	-0.804157	1.256471	0.011802	0.007565	-0.011804	-32.803272	-81.103868	27.481820
23382	9.839607	-0.818655	1.242760	0.011232	0.013612	-0.013769	-32.727497	-81.101579	27.411636
23383	9.789098	-0.778442	1.280579	0.009950	0.013012	-0.016086	-32.648317	-81.103804	27.331584
23384	9.835099	-0.782129	1.253485	0.008124	0.019849	-0.012943	-32.564626	-81.098220	27.251585
23385	9.835084	-0.804163	1.280730	0.004527	0.020726	-0.017303	-32.467099	-81.095830	27.153426
23386	9.801536	-0.802977	1.187876	0.007791	0.020920	-0.016248	-32.371484	-81.090702	27.061162
23387	9.790392	-0.817170	1.174943	0.009862	0.016765	-0.016796	-32.280591	-81.089472	26.975310
23388	9.790334	-0.815455	1.176613	0.017425	0.015076	-0.014962	-32.194980	-81.086739	26.898759
23389	9.827704	-0.775984	1.189815	0.012109	0.012771	-0.011976	-32.131309	-81.088899	26.837823
23390	9.827640	-0.774480	1.191323	0.015990	0.015706	-0.015219	-32.044553	-81.085907	26.759281
23391	9.801236	-0.794709	1.195890	0.016783	0.010949	-0.018083	-31.965655	-81.093642	26.682517
23392	9.823304	-0.760941	1.226775	0.016231	0.010729	-0.016558	-31.884231	-81.093442	26.609512
23393	9.818846	-0.725661	1.235709	0.012877	0.014283	-0.018328	-31.801068	-81.099539	26.528902
23394	9.812222	-0.773159	1.214722	0.008510	0.013647	-0.016334	-31.719107	-81.097817	26.450877
23395	9.792398	-0.744179	1.241609	-0.001832	0.012837	-0.017976	-31.647039	-81.106400	26.371842
23396	9.812308	-0.793238	1.242473	-0.003663	0.012014	-0.018769	-31.567548	-81.106175	26.289258
23397	9.774847	-0.805863	1.206496	-0.003021	0.008486	-0.019575	-31.498864	-81.119415	26.209683
23398	9.770502	-0.794508	1.240345	-0.001660	0.013001	-0.012608	-31.435520	-81.116834	26.144603
23399	9.774844	-0.802856	1.208521	-0.002139	0.007639	-0.017789	-31.380216	-81.127633	26.084663
23400	9.805722	-0.812510	1.198486	0.000176	0.006166	-0.015743	-31.319064	-81.129308	26.022872
23401	9.779305	-0.809414	1.177013	-0.000706	0.007014	-0.017527	-31.265308	-81.141790	25.966144
23402	9.790518	-0.815035	1.217717	-0.002710	0.006028	-0.023685	-31.180921	-81.145869	25.879171
23403	9.836787	-0.818141	1.189710	-0.002142	0.007641	-0.017786	-31.135897	-81.158651	25.830661
23404	9.837006	-0.839770	1.215634	0.003815	0.006428	-0.021571	-31.053432	-81.161877	25.749426
23405	9.848070	-0.821743	1.231190	0.005091	0.007033	-0.019252	-30.992008	-81.176990	25.688012
23406	9.806310	-0.824522	1.227879	0.002616	0.009736	-0.019240	-30.910995	-81.177874	25.607558
23407	9.837208	-0.833860	1.218071	0.008353	0.007234	-0.018194	-30.878372	-81.193690	25.572466
23408	9.817285	-0.780896	1.218905	0.013128	0.001670	-0.023578	-30.792643	-81.199798	25.493325
23409	9.844044	-0.803530	1.266669	0.013364	0.004352	-0.020987	-30.742870	-81.214812	25.452478
23410	9.828452	-0.760325	1.234970	0.012226	0.010179	-0.021430	-30.648099	-81.216061	25.363687
23411	9.839602	-0.765557	1.276193	0.011342	0.011027	-0.023212	-30.576223	-81.230853	25.294755
23412	9.828680	-0.779183	1.262601	0.005051	0.013305	-0.022736	-30.475184	-81.230904	25.195465
23413	9.802245	-0.775132	1.241943	0.008200	0.015868	-0.029811	-30.410154	-81.244973	25.128010
23414	9.839459	-0.734053	1.255475	0.006998	0.019176	-0.027482	-30.281604	-81.243454	25.002002
23415	9.802411	-0.792945	1.270804	0.003341	0.017522	-0.029071	-30.220210	-81.254081	24.938611
23416	9.795735	-0.792617	1.199725	0.003905	0.019137	-0.023174	-30.107562	-81.251278	24.826894
23417	9.806599	-0.774208	1.216526	0.003020	0.019985	-0.024956	-30.032592	-81.260098	24.751575
23418	9.802287	-0.785567	1.276336	0.004002	0.015390	-0.022454	-29.929135	-81.258892	24.649223
23419	9.817430	-0.753807	1.234692	-0.010470	0.016584	-0.019535	-29.894818	-81.263992	24.612479
23420	9.848420	-0.786806	1.251050	-0.017808	0.020932	-0.018792	-29.805653	-81.258931	24.511981
23421	9.821901	-0.783876	1.230605	-0.017708	0.017183	-0.018074	-29.796029	-81.264571	24.492957
23422	9.836995	-0.752626	1.189160	-0.013666	0.020295	-0.015944	-29.715205	-81.258978	24.403317
23423	9.852225	-0.745101	1.173217	-0.015264	0.022149	-0.014150	-29.682052	-81.265120	24.357344
23424	9.825866	-0.765753	1.178259	-0.005326	0.020151	-0.020439	-29.582415	-81.260860	24.253462
23425	9.825990	-0.787218	1.205257	0.002565	0.016031	-0.022699	-29.524169	-81.269281	24.200372
23426	9.795063	-0.773738	1.217411	0.001290	0.015426	-0.025016	-29.414730	-81.268606	24.090440
23427	9.821479	-0.772605	1.241059	-0.004351	0.014167	-0.025353	-29.381134	-81.280911	24.052859
23428	9.841983	-0.844530	1.267069	-0.012264	0.008102	-0.024253	-29.295361	-81.283640	23.959012
23429	9.820176	-0.851078	1.212927	-0.012754	0.011788	-0.018086	-29.272854	-81.292134	23.933468
23430	9.778411	-0.854571	1.209549	-0.019499	0.010079	-0.015383	-29.216615	-81.291353	23.865340
23431	9.782750	-0.839816	1.152404	-0.012809	0.010651	-0.007902	-29.257748	-81.300538	23.895958
23432	9.808927	-0.816742	1.150261	0.000726	0.007798	-0.009823	-29.212095	-81.299347	23.850251
23433	9.819924	-0.823194	1.191264	0.012167	0.009096	-0.011198	-29.269908	-81.304970	23.920660
23434	9.826018	-0.772370	1.214602	0.023878	0.005415	-0.013916	-29.202668	-81.306086	23.866572
23435	9.846226	-0.797698	1.189645	0.027960	0.000869	-0.015715	-29.206740	-81.320108	23.889483
23436	9.832471	-0.743042	1.262891	0.022263	-0.002918	-0.013285	-29.157844	-81.325201	23.853029
23437	9.821759	-0.757616	1.248063	0.019615	0.001008	-0.011222	-29.170972	-81.338822	23.878587
23438	9.821991	-0.779979	1.273751	0.010281	0.005742	-0.009228	-29.126291	-81.338445	23.839456
23439	9.795797	-0.801280	1.277399	0.005031	0.005930	-0.009034	-29.202215	-81.347349	23.919224
23440	9.795562	-0.777018	1.252890	0.009400	0.007976	-0.003599	-29.173152	-81.344286	23.895355
23441	9.815465	-0.780139	1.202898	0.008071	0.004846	-0.003148	-29.265365	-81.354004	23.987923
23442	9.830806	-0.773562	1.185548	0.006082	0.005243	-0.001893	-29.249248	-81.351855	23.975163
23443	9.841561	-0.757245	1.201021	0.004646	0.005865	-0.002156	-29.285228	-81.355973	24.019984
23444	9.846301	-0.790198	1.194018	0.001550	0.004425	-0.005273	-29.262020	-81.355153	23.997489
23445	9.826293	-0.786215	1.245307	0.000337	0.007729	-0.002949	-29.369513	-81.359355	24.108470
23446	9.877544	-0.847506	1.235404	0.004702	0.008388	-0.004924	-29.339185	-81.356448	24.080599
23447	9.841960	-0.826184	1.279286	0.016687	0.001120	-0.001561	-29.420234	-81.363202	24.174306
23448	9.831125	-0.841902	1.264908	0.021663	0.005916	-0.000413	-29.399763	-81.360246	24.166263
23449	9.804496	-0.816967	1.218010	0.023041	0.002773	0.002621	-29.489418	-81.365873	24.270311
23450	9.852405	-0.786027	1.270520	0.020169	0.004016	0.002093	-29.482139	-81.363164	24.274715
23451	9.784194	-0.789706	1.244561	0.021108	0.005694	0.001108	-29.581139	-81.371152	24.376267
23452	9.794738	-0.750026	1.234739	0.023039	0.002776	0.002625	-29.576031	-81.368949	24.384458
23453	9.820898	-0.727578	1.232017	0.022816	0.000092	0.000038	-29.738652	-81.378446	24.552827
23454	9.805685	-0.756929	1.275475	0.019060	0.002178	-0.002276	-29.722006	-81.377966	24.546918
23455	9.820844	-0.726856	1.232874	0.023482	0.006754	0.000390	-29.808908	-81.377850	24.651085
23456	9.836368	-0.743652	1.240963	0.020552	0.004079	-0.004779	-29.780294	-81.377114	24.633962
23457	9.820946	-0.749152	1.259520	0.019503	0.006155	-0.004511	-29.846873	-81.384169	24.708025
23458	9.842493	-0.716379	1.289855	0.014751	0.004042	-0.003069	-29.828116	-81.382994	24.697413
23459	9.858033	-0.733286	1.297744	0.008950	0.004004	-0.001361	-29.929269	-81.388632	24.799374
23460	9.826998	-0.722143	1.308765	-0.003145	0.006224	0.000802	-29.929906	-81.385287	24.797948
23461	9.847114	-0.749431	1.283850	-0.009167	0.003499	-0.000077	-29.983216	-81.394686	24.836315
23462	9.847046	-0.749549	1.284300	-0.014523	0.007436	-0.000607	-29.983347	-81.391201	24.827669
23463	9.820742	-0.772228	1.288023	-0.017230	0.008842	0.004219	-30.057273	-81.395538	24.881981
23464	9.820627	-0.772621	1.288666	-0.023030	0.007408	-0.001483	-30.059495	-81.392373	24.870408
23465	9.798805	-0.781532	1.234096	-0.019276	0.005324	0.000835	-30.157808	-81.398105	24.948263
23466	9.798735	-0.781769	1.234505	-0.020160	0.006169	-0.000950	-30.163135	-81.395455	24.941359
23467	9.798670	-0.781975	1.234891	-0.022537	0.005113	-0.000229	-30.238725	-81.391743	25.012216
23468	9.798610	-0.782149	1.235254	-0.023420	0.005958	-0.002013	-30.243484	-81.389455	25.002923
23469	9.809372	-0.765893	1.250407	-0.021100	0.003101	-0.007373	-30.318000	-81.398085	25.054320
23470	9.756838	-0.786491	1.231406	-0.018337	0.005612	-0.007556	-30.302645	-81.397618	25.027523
23471	9.803217	-0.790841	1.203369	-0.020714	0.004556	-0.006836	-30.344911	-81.397560	25.063037
23472	9.818803	-0.807428	1.211135	-0.016678	0.006286	-0.012112	-30.312838	-81.398046	25.020345
23473	9.803414	-0.812899	1.229383	-0.018726	0.004160	-0.008089	-30.411738	-81.397986	25.109868
23474	9.808057	-0.822174	1.196909	-0.016903	0.004994	-0.007288	-30.398695	-81.397682	25.086346
23475	9.812695	-0.831551	1.164419	-0.014584	0.003527	-0.005239	-30.499255	-81.396918	25.185233
23476	9.808256	-0.844788	1.222576	-0.010992	0.001282	-0.008281	-30.488200	-81.398702	25.167161
23477	9.812946	-0.853938	1.189852	-0.007732	0.001493	-0.007216	-30.584546	-81.406509	25.249820
23478	9.823801	-0.836954	1.204676	0.002713	-0.002786	-0.012238	-30.561194	-81.411488	25.227158
23479	9.813145	-0.851730	1.189787	0.008239	0.002237	-0.012604	-30.645365	-81.413882	25.318866
23480	9.824192	-0.857791	1.230099	0.012715	-0.000853	-0.013863	-30.608473	-81.418352	25.288323
23481	9.808724	-0.839107	1.222733	0.016858	-0.001486	-0.011014	-30.690009	-81.426041	25.375235
23482	9.766884	-0.819362	1.193142	0.017244	-0.000031	-0.010478	-30.660893	-81.429129	25.355123
23483	9.819483	-0.797048	1.212495	0.016304	-0.001709	-0.009493	-30.633550	-81.433079	25.341709
23484	9.788569	-0.785054	1.222973	0.012324	-0.000918	-0.006986	-30.619645	-81.435553	25.334223
23485	9.814964	-0.785246	1.245519	0.015141	0.004119	-0.009937	-30.709530	-81.432143	25.443880
23486	9.830196	-0.754470	1.202782	0.008400	0.002397	-0.007246	-30.692064	-81.432988	25.430608
23487	9.845788	-0.771168	1.210581	0.002817	0.005037	-0.002952	-30.745699	-81.431763	25.489791
23488	9.861171	-0.764404	1.193174	0.003537	0.004032	-0.006523	-30.730567	-81.431565	25.476103
23489	9.835005	-0.785989	1.196796	-0.002708	0.008811	-0.008834	-30.810042	-81.428799	25.559368
23490	9.828687	-0.787668	1.124643	0.004308	0.006941	-0.005453	-30.793322	-81.426816	25.544563
23491	9.834940	-0.784497	1.198306	0.012100	0.006591	-0.008411	-30.900593	-81.428043	25.657395
23492	9.819742	-0.813214	1.242068	0.016577	0.003503	-0.009667	-30.870943	-81.428979	25.636597
23493	9.830509	-0.796001	1.257448	0.009891	0.004302	-0.009745	-30.891653	-81.434020	25.659602
23494	9.830306	-0.771619	1.232752	0.001048	0.006726	-0.006520	-30.874940	-81.432457	25.642865
23495	9.846120	-0.811464	1.265942	-0.005134	0.003835	-0.012757	-30.911720	-81.437982	25.674074
23496	9.808872	-0.802076	1.203844	-0.013647	0.005189	-0.006230	-30.907790	-81.437096	25.661719
23497	9.771988	-0.840164	1.192339	-0.015637	0.005584	-0.004977	-31.019841	-81.443402	25.752787
23498	9.818189	-0.821016	1.139131	-0.008952	0.004786	-0.004897	-31.019214	-81.442372	25.746356
23499	9.782286	-0.776070	1.157577	0.011160	0.004916	-0.007424	-31.113299	-81.442544	25.848694
23500	9.824052	-0.769968	1.162453	0.020887	0.001651	-0.008864	-31.089965	-81.444203	25.836585
23501	9.819230	-0.735407	1.170173	0.022491	-0.000197	-0.010650	-31.111508	-81.452765	25.865387
23502	9.851665	-0.709223	1.240398	0.010611	0.003302	-0.013312	-31.076443	-81.454953	25.835408
23503	9.810189	-0.736302	1.261722	0.003594	0.005167	-0.016695	-31.123426	-81.458734	25.884912
23504	9.835418	-0.795364	1.229585	-0.005418	0.008816	-0.011420	-31.093693	-81.457641	25.851034
23505	9.798556	-0.832865	1.218580	-0.011720	0.011067	-0.010966	-31.142503	-81.455738	25.896602
23506	9.809216	-0.815773	1.234523	-0.009346	0.012128	-0.011682	-31.108445	-81.453073	25.856094
23507	9.829493	-0.842031	1.210106	-0.007078	0.008142	-0.006865	-31.101503	-81.461618	25.830552
23508	9.829223	-0.818018	1.185677	-0.010122	0.010609	-0.005344	-31.091347	-81.457894	25.813622
23509	9.844533	-0.811464	1.168861	-0.007033	0.012056	-0.002224	-31.223440	-81.453013	25.940495
23510	9.839742	-0.801335	1.202448	-0.006579	0.005844	-0.005615	-31.220928	-81.451689	25.933335
23511	9.818339	-0.832798	1.173249	-0.012489	0.008160	-0.012034	-31.310429	-81.457922	26.004835
23512	9.807638	-0.847933	1.159110	-0.007410	0.009214	-0.010164	-31.288039	-81.456341	25.976961
23513	9.844652	-0.831881	1.197020	0.000499	0.005118	-0.012402	-31.294313	-81.457269	25.987482
23514	9.818352	-0.829567	1.175433	0.006899	0.009308	-0.010979	-31.260951	-81.455856	25.956855
23515	9.797963	-0.801437	1.201755	0.004908	0.009701	-0.009728	-31.280050	-81.451052	25.989462
23516	9.808610	-0.784364	1.217569	0.003971	0.008020	-0.008746	-31.258693	-81.449553	25.969365
23517	9.839828	-0.817935	1.233298	-0.005591	0.010050	-0.009363	-31.331214	-81.448264	26.038060
23518	9.819411	-0.790185	1.259427	-0.004207	0.006906	-0.006330	-31.325287	-81.446579	26.028829
23519	9.813207	-0.792254	1.187283	-0.012672	0.010774	-0.002576	-31.388816	-81.443727	26.084974
23520	9.819057	-0.765963	1.235754	-0.018847	0.007881	-0.008818	-31.381713	-81.442302	26.066063
23521	9.808351	-0.781597	1.221434	-0.019956	0.007429	-0.005783	-31.453450	-81.442886	26.123704
23522	9.859543	-0.795693	1.161009	-0.016698	0.007647	-0.004713	-31.459378	-81.440353	26.119191
23523	9.833208	-0.794280	1.139209	-0.017081	0.006193	-0.005249	-31.508011	-81.435228	26.168510
23524	9.833391	-0.817565	1.164821	-0.016581	0.003893	-0.004001	-31.523825	-81.434262	26.174167
23525	9.838360	-0.850367	1.157686	-0.008733	0.006083	-0.009714	-31.531494	-81.441513	26.166065
23526	9.833774	-0.863628	1.216242	-0.010566	0.006630	-0.003110	-31.541189	-81.438989	26.168933
23527	9.818334	-0.869595	1.234417	-0.004472	0.001701	-0.006151	-31.681536	-81.443967	26.299212
23528	9.828754	-0.829581	1.224621	-0.004551	0.009366	-0.002218	-31.686377	-81.439852	26.300570
23529	9.833662	-0.862614	1.217866	-0.006200	0.007302	-0.005074	-31.782256	-81.445946	26.378111
23530	9.807326	-0.861145	1.196159	-0.006754	0.007075	-0.003557	-31.789439	-81.443403	26.380412
23531	9.822708	-0.854631	1.178884	-0.002995	0.004992	-0.001242	-31.929391	-81.449585	26.500950
23532	9.817868	-0.844942	1.212068	-0.002665	0.003919	0.002058	-31.959738	-81.446928	26.528879
23533	9.802188	-0.827681	1.205057	-0.005699	0.005002	-0.003827	-32.081669	-81.445746	26.645550
23534	9.817604	-0.821051	1.187593	-0.011332	0.003721	-0.004183	-32.098053	-81.445059	26.654325
23535	9.791503	-0.843157	1.190843	-0.011834	0.006022	-0.005428	-32.175310	-81.446618	26.719131
23536	9.786662	-0.833019	1.224290	-0.007257	0.009377	-0.004801	-32.176334	-81.443384	26.714692
23537	9.796399	-0.875532	1.184758	-0.005092	0.007760	-0.008105	-32.231071	-81.444242	26.761857
23538	9.785727	-0.890874	1.170627	-0.000898	0.009661	-0.008014	-32.217870	-81.441858	26.746691
23539	9.796346	-0.873915	1.186393	0.003589	0.006579	-0.009269	-32.282982	-81.443342	26.809368
23540	9.796337	-0.873031	1.187118	0.010105	0.007015	-0.007129	-32.272257	-81.441973	26.803047
23541	9.811723	-0.866193	1.170124	0.006831	0.008176	-0.000793	-32.316773	-81.437813	26.853714
23542	9.817263	-0.816530	1.193518	0.005947	0.009023	-0.002576	-32.319124	-81.434063	26.858233
23543	9.806406	-0.808667	1.153871	0.010172	0.000730	-0.003658	-32.462994	-81.437524	26.999232
23544	9.843300	-0.793152	1.191595	0.007176	0.005723	-0.004900	-32.464909	-81.436092	27.003947
23545	9.838456	-0.782786	1.224982	0.002480	0.006122	-0.006236	-32.532249	-81.431640	27.079006
23546	9.849031	-0.765955	1.240796	-0.005213	0.011514	-0.008815	-32.517313	-81.428575	27.059561
23547	9.853977	-0.798434	1.234361	-0.009910	0.011914	-0.010152	-32.558414	-81.425921	27.095668
23548	9.827853	-0.820122	1.238149	-0.013221	0.009166	-0.008461	-32.554446	-81.423869	27.082680
23549	9.817194	-0.835346	1.224114	-0.012614	0.011924	-0.012737	-32.624156	-81.421801	27.143509
23550	9.822179	-0.867811	1.217525	-0.009964	0.009386	-0.007389	-32.622006	-81.419300	27.134238
23551	9.837738	-0.884621	1.225907	-0.010312	0.011839	-0.003282	-32.691914	-81.416519	27.191471
23552	9.811557	-0.906932	1.229802	-0.005616	0.011440	-0.001943	-32.700693	-81.411351	27.195745
23553	9.821856	-0.867047	1.220666	-0.006500	0.012287	-0.003725	-32.729184	-81.408391	27.218052
23554	9.806101	-0.849514	1.214377	0.000190	0.011499	-0.003636	-32.729212	-81.403723	27.216825
23555	9.853264	-0.794366	1.242644	-0.002513	0.011509	-0.006223	-32.820491	-81.404190	27.295546
23556	9.816498	-0.832336	1.231729	-0.011144	0.015218	-0.007824	-32.806752	-81.399055	27.273741
23557	9.811520	-0.821918	1.265815	-0.004835	0.012975	-0.008271	-32.887297	-81.392789	27.353453
23558	9.852259	-0.851404	1.191399	-0.007835	0.017969	-0.009510	-32.861381	-81.386830	27.321266
23559	9.810407	-0.855886	1.188599	-0.007076	0.020880	-0.008432	-32.933454	-81.380861	27.381564
23560	9.825907	-0.872191	1.197859	0.000848	0.016794	-0.010665	-32.902050	-81.375834	27.348810
23561	9.821055	-0.885147	1.257509	0.008245	0.016386	-0.006736	-32.919716	-81.372694	27.364021
23562	9.779046	-0.866080	1.229329	0.006806	0.017005	-0.007003	-32.896270	-81.366438	27.342732
23563	9.831190	-0.843919	1.250490	0.005110	0.012410	-0.007103	-32.969135	-81.362972	27.413894
23564	9.841668	-0.826975	1.266749	-0.004281	0.013206	-0.009785	-32.951626	-81.359410	27.392160
23565	9.857253	-0.843486	1.275104	-0.017971	0.007033	-0.007047	-33.040613	-81.360329	27.463313
23566	9.804765	-0.841063	1.230934	-0.017946	0.010941	-0.002401	-33.059449	-81.355562	27.470371
23567	9.794080	-0.857135	1.216945	-0.023702	0.013413	-0.003470	-33.140705	-81.349973	27.536320
23568	9.798718	-0.843220	1.160088	-0.019007	0.013016	-0.002127	-33.157211	-81.344116	27.540391
23569	9.804077	-0.793495	1.183810	-0.008652	0.012532	-0.007823	-33.209362	-81.339898	27.586581
23570	9.804153	-0.816323	1.210168	-0.001404	0.011976	-0.009242	-33.195914	-81.336761	27.570551
23571	9.777926	-0.814183	1.188671	0.007963	0.007275	-0.011205	-33.251097	-81.336646	27.625192
23572	9.792936	-0.865617	1.116314	0.011397	0.006270	-0.012184	-33.233204	-81.337165	27.612076
23573	9.798510	-0.968910	1.184920	0.017071	0.002639	-0.000951	-33.341628	-81.334971	27.728771
23574	9.803332	-1.132527	1.199313	0.018404	0.027699	0.013741	-33.357455	-81.317056	27.753818
23575	9.724254	-1.284725	1.180403	0.025356	0.028588	0.031948	-33.558306	-81.294298	27.960704
23576	9.737996	-1.424416	1.080044	0.053416	0.017605	0.063812	-33.730930	-81.265286	28.164617
23577	9.724479	-1.672932	0.953399	0.059220	0.041369	0.107600	-33.968769	-81.207651	28.447468
23578	9.652538	-2.008764	0.915898	0.045973	0.022364	0.166448	-34.444516	-81.142996	28.953949
23579	9.766613	-2.343952	0.976903	0.101158	0.002442	0.218381	-35.203546	-81.071349	29.769119
23580	9.663215	-2.724108	0.835193	0.150552	-0.021236	0.272811	-36.007941	-80.989653	30.669101
23581	9.649041	-3.154581	0.554532	0.262311	-0.124982	0.322281	-37.180775	-80.931185	32.008837
23582	10.052371	-3.317261	0.432022	0.369315	-0.175874	0.371707	-38.446389	-80.879369	33.503187
23583	10.112108	-3.386372	0.447520	0.350299	-0.149164	0.435326	-39.825367	-80.784435	35.105350
23584	10.038337	-3.535516	0.557832	0.343068	-0.192814	0.509386	-41.465415	-80.676987	36.964620
23585	10.277533	-3.243142	0.747908	0.429367	-0.244771	0.598744	-43.428740	-80.538265	39.207642
23586	10.369416	-2.693087	0.752482	0.447782	-0.249303	0.676635	-45.449748	-80.367204	41.515613
23587	10.328311	-1.960627	0.687652	0.435281	-0.253992	0.762566	-47.667001	-80.138834	44.019701
23588	10.147685	-1.667183	0.760955	0.265624	-0.251135	0.804298	-49.888388	-79.884946	46.428256
23589	9.985211	-1.362871	0.680757	0.241062	-0.280088	0.836262	-52.233629	-79.609855	48.930183
23590	9.786228	-1.366879	0.809590	0.206733	-0.280756	0.856817	-54.416539	-79.309699	51.269365
23591	9.696936	-1.517247	0.928291	0.257140	-0.299792	0.869801	-56.582559	-78.989695	53.611848
23592	9.634313	-1.566777	0.997539	0.302787	-0.296409	0.871261	-58.519354	-78.656691	55.761184
23593	9.631843	-1.445460	1.123144	0.299893	-0.303662	0.861636	-60.385948	-78.320035	57.821190
23594	9.668772	-1.895112	0.830592	0.293673	-0.317382	0.826321	-62.090591	-77.989391	59.732999
23595	9.884424	-1.788021	0.904891	0.407565	-0.334742	0.819831	-63.701480	-77.651009	61.611586
23596	10.068359	-1.699250	1.075548	0.397321	-0.278971	0.796480	-65.035897	-77.305376	63.209843
23597	10.090200	-1.476096	1.169282	0.378489	-0.230623	0.752232	-66.195500	-76.961689	64.604676
23598	10.052601	-1.180525	1.381656	0.309859	-0.216357	0.695925	-67.198592	-76.641057	65.815383
23599	9.928711	-1.327480	1.444654	0.162499	-0.182516	0.635998	-68.121844	-76.349026	66.839507
23600	9.893579	-1.506269	1.194727	0.140174	-0.194628	0.587882	-68.987279	-76.072808	67.811251
23601	9.875721	-1.553317	1.137405	0.123334	-0.193531	0.524803	-69.816783	-75.829677	68.710789
23602	10.007874	-1.528561	1.210366	0.138031	-0.197398	0.451047	-70.520552	-75.621429	69.516359
23603	9.966495	-1.281013	1.489712	0.178609	-0.151343	0.378806	-71.026439	-75.448681	70.135044
23604	9.893701	-1.132722	1.572420	0.163968	-0.113498	0.295490	-71.396605	-75.305855	70.612432
23605	9.797981	-0.822865	1.686529	0.155756	-0.143984	0.216878	-71.770662	-75.221447	71.075302
23606	9.810556	-0.567767	1.624136	0.121464	-0.125959	0.117155	-72.058228	-75.176617	71.442362
23607	9.760374	-0.462142	1.588545	0.071930	-0.059564	0.006842	-72.181336	-75.181834	71.591292
23608	9.622455	-0.447346	1.539689	0.044963	0.006210	-0.074963	-72.111598	-75.218236	71.543348
23609	9.596369	-0.398272	1.526224	-0.003283	0.046346	-0.149579	-71.947396	-75.294445	71.347098
23610	9.598288	-0.331482	1.792241	-0.049986	0.091319	-0.233238	-71.645252	-75.401754	71.002614
23611	9.502125	-0.309654	1.726879	-0.095836	0.148848	-0.335061	-71.150453	-75.567499	70.418370
23612	9.444281	-0.290025	1.727313	-0.097465	0.191835	-0.412993	-70.515748	-75.751810	69.702950
23613	9.525775	-0.170929	1.792426	-0.140112	0.195062	-0.475345	-69.830120	-75.976035	68.887745
23614	9.615232	-0.072095	1.929004	-0.230735	0.272774	-0.582624	-68.916224	-76.230465	67.807315
23615	9.684308	-0.158701	2.094630	-0.254717	0.384962	-0.690073	-67.605254	-76.523659	66.294278
23616	9.745323	-0.028005	1.947812	-0.258828	0.459057	-0.775794	-66.015401	-76.826019	64.505198
23617	9.925971	0.027639	1.703345	-0.252328	0.544944	-0.868768	-64.008772	-77.149560	62.291781
23618	9.936397	0.134712	1.848304	-0.287008	0.636081	-0.949943	-61.653302	-77.465096	59.705908
23619	9.946614	0.145587	1.984275	-0.378171	0.692620	-1.019689	-58.966783	-77.781012	56.719731
23620	10.014868	0.095371	1.804743	-0.438193	0.744947	-1.067158	-56.024736	-78.065529	53.451478
23621	10.082511	-0.013936	1.710200	-0.410652	0.804001	-1.110058	-52.711634	-78.310629	49.815598
23622	10.011521	-0.027181	1.848628	-0.356324	0.871298	-1.128977	-49.066441	-78.496370	45.883156
23623	9.898927	-0.099610	2.005854	-0.341946	0.909125	-1.139951	-45.168756	-78.622481	41.691881
23624	9.863629	-0.116239	2.081448	-0.381906	0.938179	-1.148147	-41.192713	-78.680039	37.410446
23625	9.854153	-0.136091	2.182528	-0.459357	0.977108	-1.144898	-37.144850	-78.658606	33.007906
23626	9.963313	-0.195918	2.283079	-0.561507	1.002717	-1.142891	-33.194104	-78.566127	28.646716
23627	10.270542	-0.185961	2.182889	-0.613582	1.047616	-1.158734	-29.246194	-78.394066	24.249013
23628	10.403423	-0.036807	2.110449	-0.618180	1.148766	-1.160777	-25.333833	-78.114624	19.888272
23629	10.197974	0.067020	2.267804	-0.607870	1.223928	-1.134347	-21.603589	-77.725672	15.714206
23630	10.098012	0.092101	2.435836	-0.622004	1.221150	-1.130914	-18.161666	-77.289261	11.820859
23631	10.274022	0.062261	2.428364	-0.681459	1.219022	-1.134621	-14.992239	-76.798414	8.175161
23632	10.358471	0.038841	2.325796	-0.675622	1.256557	-1.128926	-12.075674	-76.251576	4.775098
23633	10.179750	-0.047055	2.168791	-0.609005	1.290065	-1.109372	-9.470373	-75.642963	1.721418
23634	10.003041	-0.108349	2.129187	-0.502774	1.283312	-1.099317	-6.998116	-75.007755	-1.134869
23635	9.903544	-0.129944	2.227325	-0.440212	1.275860	-1.110996	-4.753143	-74.349930	-3.736836
23636	9.814946	-0.102978	2.199235	-0.431320	1.242821	-1.110797	-2.643218	-73.683158	-6.191619
23637	9.783854	0.002639	2.276052	-0.454646	1.170135	-1.076751	-0.869661	-73.038138	-8.322618
23638	9.882998	0.024912	2.373769	-0.515304	1.079542	-1.037614	0.730511	-72.423545	-10.310494
23639	10.106512	0.089092	2.522842	-0.566028	1.027089	-1.015550	2.068975	-71.827701	-12.058811
23640	10.093045	0.071365	2.617015	-0.624147	1.012707	-1.018417	3.355413	-71.224049	-13.795139
23641	9.995258	0.085574	2.837408	-0.621515	0.979708	-1.039100	4.507272	-70.636085	-15.396491
23642	9.842605	0.217024	3.025368	-0.652243	0.943683	-1.054661	5.666728	-70.047797	-17.027493
23643	9.711150	0.227666	3.107049	-0.684409	0.909491	-1.065031	6.711466	-69.474002	-18.562282
23644	9.690978	0.210089	3.082727	-0.679261	0.859305	-1.080088	7.758014	-68.911765	-20.101152
23645	9.768933	0.289691	2.985499	-0.683016	0.829231	-1.085425	8.763253	-68.352582	-21.594971
23646	9.850578	0.456047	3.011886	-0.696312	0.827641	-1.079239	9.676125	-67.789758	-23.012098
23647	9.846858	0.525393	3.266389	-0.695021	0.824793	-1.087755	10.569396	-67.213869	-24.407785
23648	9.814958	0.561172	3.454495	-0.681327	0.811751	-1.088534	11.393859	-66.642974	-25.731241
23649	9.783442	0.486619	3.540076	-0.697803	0.836984	-1.071954	12.154214	-66.046615	-26.994853
23650	9.588394	0.406961	3.423621	-0.707696	0.846746	-1.041296	12.795489	-65.448679	-28.145966
23651	9.394251	0.482345	3.362696	-0.718350	0.816180	-1.014895	13.388009	-64.860382	-29.249702
23652	9.309840	0.592279	3.350753	-0.760044	0.772469	-1.000415	13.892087	-64.299846	-30.293032
23653	9.334089	0.741649	3.451102	-0.794757	0.740138	-0.987203	14.358191	-63.750229	-31.315258
23654	9.307773	0.950355	3.660352	-0.799969	0.729986	-0.966041	14.750584	-63.211133	-32.269132
23655	9.166918	0.931192	3.857626	-0.778216	0.713958	-0.945918	15.130403	-62.676549	-33.193408
23656	9.163871	0.905367	4.049929	-0.725331	0.683386	-0.940636	15.500245	-62.161448	-34.082660
23657	9.127883	0.946904	4.039046	-0.677895	0.675382	-0.922828	15.875252	-61.646787	-34.945189
23658	9.075486	1.073448	3.996789	-0.632911	0.676344	-0.907166	16.220861	-61.135647	-35.755075
23659	9.018881	1.356205	4.053930	-0.584561	0.660110	-0.902852	16.590058	-60.628154	-36.558208
23660	8.871163	1.636979	4.138882	-0.582943	0.633607	-0.907091	16.936517	-60.135676	-37.344122
23661	8.722326	1.831070	4.220440	-0.576719	0.579191	-0.917038	17.308774	-59.665770	-38.153179
23662	8.651708	1.814946	4.236786	-0.570201	0.526914	-0.903624	17.654695	-59.227370	-38.937456
23663	8.555222	1.684251	4.261299	-0.504145	0.441428	-0.902241	18.061828	-58.830407	-39.745578
23664	8.596877	1.559102	4.402286	-0.443957	0.380228	-0.905593	18.494052	-58.465967	-40.552794
23665	8.683789	1.609686	4.516587	-0.408340	0.366057	-0.914291	18.959227	-58.101820	-41.370897
23666	8.775865	1.761007	4.686740	-0.384398	0.407762	-0.921146	19.401866	-57.712986	-42.156598
23667	8.587474	2.179498	4.746728	-0.349286	0.429796	-0.936184	19.870151	-57.303797	-42.945202
23668	8.333588	2.461226	4.565198	-0.292573	0.367065	-0.964126	20.383495	-56.921547	-43.759416
23669	8.410479	2.725628	4.636851	-0.257715	0.292088	-1.006838	20.974422	-56.564428	-44.638315
23670	8.530899	3.092497	4.856129	-0.312657	0.293114	-1.041686	21.531453	-56.196948	-45.525654
23671	8.420352	3.113540	4.885971	-0.466292	0.293443	-1.082210	22.032618	-55.813970	-46.447154
23672	8.215932	2.929168	4.678167	-0.553378	0.273111	-1.082125	22.459342	-55.439874	-47.351624
23673	8.080685	2.729746	4.799666	-0.564729	0.217015	-1.075569	22.894947	-55.090796	-48.269345
23674	8.179973	2.634205	4.920657	-0.565794	0.203547	-1.079295	23.307234	-54.746426	-49.172645
23675	8.370579	2.627233	4.863825	-0.553545	0.213995	-1.112573	23.751226	-54.382756	-50.100323
23676	8.490926	2.766831	4.916201	-0.511105	0.249631	-1.142803	24.199006	-53.991601	-51.016991
23677	8.559703	3.470954	5.101422	-0.482771	0.252941	-1.191196	24.697855	-53.580598	-51.971186
23678	8.554273	3.830786	5.307116	-0.618237	0.270065	-1.215318	25.097764	-53.152751	-52.914350
23679	8.253867	3.493552	5.071363	-0.764422	0.270682	-1.205839	25.409590	-52.721058	-53.846011
23680	7.866577	2.523423	4.575612	-0.801066	0.218012	-1.159176	25.654661	-52.327795	-54.736588
23681	7.726664	1.687670	4.374195	-0.661666	0.130176	-1.101775	25.975744	-51.989202	-55.614677
23682	7.828148	1.070325	4.434294	-0.488369	0.127830	-1.051067	26.335216	-51.663764	-56.431330
23683	7.909920	1.284597	4.649801	-0.275037	0.140018	-1.021906	26.799883	-51.334233	-57.218650
23684	7.871246	1.712192	5.067643	-0.149171	0.157003	-0.958822	27.264653	-51.010252	-57.928443
23685	7.883997	2.001265	5.174662	-0.094915	0.081990	-0.942951	27.779906	-50.723578	-58.655978
23686	7.985716	2.617890	5.250821	-0.105326	0.017741	-0.941404	28.286510	-50.467001	-59.393229
23687	8.078360	3.058221	5.160699	-0.269944	0.007389	-0.920431	28.695141	-50.216659	-60.118601
23688	8.152447	3.110968	5.088553	-0.427812	-0.001415	-0.866324	28.964000	-49.983969	-60.792093
23689	8.188833	2.868241	5.174464	-0.508703	0.019066	-0.826532	29.163916	-49.749616	-61.428337
23690	8.156624	2.379703	5.296202	-0.515257	0.032922	-0.784290	29.312716	-49.519650	-62.014640
23691	7.926244	2.031524	5.370465	-0.472739	0.016588	-0.736684	29.471760	-49.309886	-62.574637
23692	7.821145	2.151182	5.286680	-0.449344	-0.024761	-0.707918	29.625148	-49.128208	-63.120771
23693	7.872039	2.465771	5.186472	-0.414920	-0.049885	-0.695074	29.806976	-48.961708	-63.671211
23694	7.934431	2.731065	5.250230	-0.386898	-0.074340	-0.674541	29.987296	-48.812028	-64.208352
23695	7.941497	2.713257	5.227612	-0.433095	-0.072620	-0.639272	30.128375	-48.671085	-64.721487
23696	7.941283	2.552279	5.097362	-0.473475	-0.062500	-0.591824	30.203946	-48.537707	-65.187441
23697	7.840528	2.603649	5.258823	-0.497101	-0.038929	-0.561770	30.249314	-48.401918	-65.624323
23698	7.681014	2.597459	5.316250	-0.557475	-0.050915	-0.542955	30.242374	-48.276488	-66.046164
23699	7.682429	2.159623	5.263625	-0.618425	-0.056624	-0.505890	30.189440	-48.165997	-66.446700
23700	7.641827	1.582505	5.246052	-0.607058	-0.026243	-0.457800	30.096867	-48.053352	-66.793179
23701	7.579503	1.428790	5.295367	-0.548234	-0.045527	-0.425411	30.032882	-47.961674	-67.127293
23702	7.678355	1.460782	5.291507	-0.505457	-0.053476	-0.378549	29.962255	-47.885838	-67.425919
23703	7.659551	2.027152	5.406372	-0.469697	-0.062495	-0.372620	29.916620	-47.818758	-67.726503
23704	7.698976	2.884549	5.465080	-0.434573	-0.082168	-0.371045	29.890634	-47.759649	-68.031198
23705	7.867523	3.644915	5.523696	-0.478843	-0.104447	-0.375494	29.852878	-47.713186	-68.350743
23706	7.925092	3.928845	5.456268	-0.579665	-0.089185	-0.369100	29.744201	-47.658500	-68.656531
23707	7.907677	3.827854	5.531879	-0.662128	-0.061618	-0.358603	29.578868	-47.596456	-68.945540
23708	7.791402	3.549096	5.611555	-0.721612	-0.041236	-0.347395	29.361596	-47.525155	-69.214990
23709	7.659605	3.303444	5.698966	-0.736786	-0.042863	-0.345777	29.140782	-47.458855	-69.486959
23710	7.625595	3.048172	5.681230	-0.694971	-0.034918	-0.351156	28.938532	-47.384717	-69.756676
23711	7.622230	2.741043	5.737349	-0.614322	-0.032770	-0.345812	28.784321	-47.314703	-70.024483
23712	7.626540	2.471481	5.672630	-0.521376	-0.040826	-0.328342	28.670359	-47.250817	-70.279591
23713	7.697232	2.419171	5.585632	-0.422945	-0.051928	-0.307544	28.609493	-47.201864	-70.526274
23714	7.803221	2.350127	5.459691	-0.350004	-0.040315	-0.291534	28.573054	-47.148230	-70.753646
23715	7.802677	2.140837	5.316050	-0.295098	-0.002748	-0.266869	28.547539	-47.086292	-70.949683
23716	7.738924	2.095914	5.345269	-0.213935	0.013007	-0.248896	28.549653	-47.017615	-71.123667
23717	7.721635	2.271667	5.538189	-0.141312	0.018783	-0.235864	28.587638	-46.953840	-71.287236
23718	7.658402	2.240618	5.642448	-0.100992	0.027869	-0.210771	28.628940	-46.888027	-71.426646
23719	7.576358	2.432600	5.730850	-0.028748	0.003083	-0.180136	28.704621	-46.847642	-71.554572
23720	7.691009	2.720508	5.770659	-0.000476	-0.012503	-0.156866	28.786023	-46.816739	-71.670202
23721	7.742500	2.908749	5.871413	-0.016236	0.016693	-0.132246	28.838295	-46.782759	-71.756870
23722	7.696892	3.312292	6.070489	-0.023934	0.018088	-0.133688	28.884621	-46.742758	-71.842932
23723	7.818562	3.403737	6.115512	-0.073701	0.016470	-0.125224	28.899875	-46.710849	-71.924256
23724	7.795058	3.156471	5.998415	-0.109907	0.044033	-0.100570	28.871522	-46.666978	-71.975487
23725	7.636058	3.178625	6.057737	-0.070649	0.040180	-0.084469	28.859699	-46.634546	-72.017340
23726	7.580847	3.418017	6.063348	-0.049134	0.036712	-0.088258	28.861699	-46.597771	-72.062484
23727	7.614618	3.367228	5.989426	-0.056367	0.046878	-0.090497	28.859171	-46.560319	-72.105965
23728	7.582253	3.117619	6.029540	-0.056989	0.095123	-0.079672	28.835001	-46.496613	-72.121316
23729	7.418471	2.827491	6.147056	-0.008736	0.108463	-0.064800	28.828088	-46.435399	-72.121261
23730	7.323307	2.919131	6.103712	0.089019	0.087162	-0.053612	28.876098	-46.382895	-72.120796
23731	7.398708	3.144389	5.968334	0.143766	0.058589	-0.042390	28.958629	-46.352880	-72.124055
23732	7.559920	3.266539	5.938465	0.125442	0.081992	-0.023231	29.012933	-46.311406	-72.103440
23733	7.436490	3.526494	6.049038	0.079736	0.102430	-0.019788	29.034007	-46.265740	-72.072520
23734	7.458484	3.505770	5.964439	0.008733	0.092108	-0.003182	29.008032	-46.224781	-72.033310
23735	7.435968	2.999979	5.760035	-0.068092	0.122853	0.020596	28.917679	-46.180026	-71.965162
23736	7.400270	2.856902	5.851736	-0.040072	0.135709	0.046693	28.825328	-46.130921	-71.872632
23737	7.476151	2.800839	5.955340	-0.031916	0.136960	0.052518	28.735005	-46.087853	-71.775925
23738	7.432614	2.461425	5.753682	-0.005566	0.156751	0.077687	28.640632	-46.036493	-71.652985
23739	7.355946	2.181393	5.683403	0.072127	0.149508	0.112483	28.574849	-46.003518	-71.507922
23740	7.433328	2.106578	5.631896	0.131203	0.145422	0.153809	28.522738	-45.978499	-71.334641
23741	7.436303	1.869717	5.547331	0.127835	0.169856	0.211421	28.430870	-45.962335	-71.109621
23742	7.383947	1.637170	5.337157	0.160355	0.151856	0.262995	28.336923	-45.963467	-70.854831
23743	7.462575	1.831362	5.340365	0.197013	0.126122	0.301602	28.248696	-45.993726	-70.580837
23744	7.655084	2.026902	5.350769	0.165446	0.136453	0.349986	28.116167	-46.025554	-70.268568
23745	7.769078	1.946360	5.305299	0.114599	0.128033	0.417038	27.917983	-46.085405	-69.908606
23746	7.888240	1.698860	5.304090	0.080201	0.064493	0.514333	27.668674	-46.196141	-69.502807
23747	7.991515	1.280328	5.258928	0.045135	-0.005950	0.628203	27.351910	-46.378241	-69.036085
23748	7.937509	0.740867	5.270181	-0.021614	-0.064209	0.748761	26.948845	-46.612725	-68.501126
23749	7.806122	0.194950	5.253397	-0.058056	-0.098817	0.862582	26.460870	-46.898725	-67.885559
23750	7.634572	0.068182	5.205471	-0.006564	-0.103657	0.946746	25.956153	-47.197500	-67.204773
23751	7.604336	0.375943	5.204365	0.140931	-0.134237	1.002825	25.495763	-47.529880	-66.479776
23752	7.657817	0.930524	5.016104	0.358507	-0.164138	1.020793	25.157841	-47.870951	-65.748799
23753	7.778001	1.607536	5.011154	0.646643	-0.221196	1.021941	24.980442	-48.247758	-65.024029
23754	8.012195	2.264513	5.132444	0.851018	-0.294294	1.043251	24.930070	-48.658668	-64.308794
23755	8.166727	2.689322	5.203149	0.891368	-0.352755	1.094211	24.868472	-49.120050	-63.561049
23756	8.189442	2.692817	5.204089	0.771883	-0.393224	1.195743	24.688948	-49.617578	-62.745288
23757	8.133368	2.400990	5.148928	0.564417	-0.426021	1.323615	24.294689	-50.168278	-61.818328
23758	8.019825	2.198952	4.884061	0.414676	-0.472678	1.406349	23.767241	-50.749554	-60.829774
23759	8.038448	2.138783	4.760230	0.346731	-0.508088	1.432730	23.158490	-51.357596	-59.802611
23760	8.181531	2.287176	4.746527	0.387016	-0.501771	1.420160	22.566178	-51.944348	-58.768048
23761	8.255656	2.560927	5.040560	0.507161	-0.472433	1.362129	22.037841	-52.505097	-57.742545
23762	8.121628	2.736363	5.137205	0.568068	-0.457045	1.310922	21.565691	-53.032823	-56.744150
23763	8.050696	2.930987	5.186172	0.559463	-0.488672	1.288003	21.080488	-53.575949	-55.749155
23764	8.065968	2.895607	5.156956	0.489429	-0.512704	1.298014	20.544009	-54.120345	-54.740814
23765	8.194967	2.814397	5.165561	0.403266	-0.576618	1.320851	19.922603	-54.705709	-53.701691
23766	8.424173	2.501066	4.988447	0.316569	-0.627230	1.362894	19.216144	-55.311358	-52.621271
23767	8.699529	2.035226	4.905246	0.266235	-0.672748	1.397563	18.422370	-55.947896	-51.483189
23768	9.084215	1.627343	4.725457	0.267698	-0.712154	1.416116	17.599831	-56.592181	-50.313015
23769	9.367277	1.266418	4.691069	0.325096	-0.690374	1.450187	16.725935	-57.228417	-49.055737
23770	9.246314	1.093900	4.921274	0.378800	-0.663576	1.480445	15.820912	-57.836319	-47.729039
23771	9.344447	0.932632	4.963217	0.361428	-0.633497	1.503970	14.822873	-58.427043	-46.318042
23772	9.289126	1.111390	4.832361	0.347409	-0.594740	1.528675	13.753681	-58.978514	-44.837026
23773	9.233148	1.381764	4.657361	0.270255	-0.622677	1.528529	12.586326	-59.537737	-43.306764
23774	9.297091	1.339881	4.499748	0.208958	-0.652513	1.545449	11.338865	-60.091914	-41.728292
23775	9.296924	1.143321	4.512537	0.142160	-0.732755	1.553012	9.992709	-60.680739	-40.094044
23776	9.366397	0.915961	4.537660	0.048426	-0.781999	1.550461	8.558526	-61.270792	-38.425304
23777	9.276875	0.630428	4.662569	-0.036805	-0.756720	1.591631	6.950848	-61.834893	-36.628335
23778	9.250781	0.457339	4.709828	-0.052999	-0.752613	1.632400	5.237435	-62.367356	-34.727084
23779	9.343822	0.401600	4.647715	-0.043768	-0.740374	1.653996	3.420023	-62.871525	-32.716212
23780	9.416800	0.191016	4.467464	-0.072376	-0.757963	1.649064	1.540145	-63.350329	-30.658061
23781	9.741160	-0.056387	4.184790	-0.097480	-0.798410	1.629577	-0.417382	-63.826081	-28.542220
23782	10.045598	-0.274302	4.093925	-0.113163	-0.798393	1.610094	-2.415054	-64.264237	-26.395663
23783	10.033341	-0.469078	3.949332	-0.099879	-0.773912	1.600353	-4.477012	-64.661049	-24.181111
23784	9.812315	-0.644517	3.893945	-0.060251	-0.789275	1.606729	-6.571272	-65.025766	-21.908607
23785	9.540758	-0.781413	3.856691	-0.005325	-0.828276	1.637009	-8.759077	-65.379335	-19.509111
23786	9.611127	-0.875953	3.632179	0.028723	-0.886812	1.639345	-10.986427	-65.721618	-17.047341
23787	9.778326	-1.035935	3.447803	0.077292	-0.922978	1.628529	-13.266696	-66.050136	-14.507625
23788	10.043185	-1.165530	3.391563	0.115237	-0.938722	1.621877	-15.562217	-66.341962	-11.929562
23789	10.194222	-1.350498	3.560654	0.133219	-0.939201	1.637742	-17.946090	-66.593519	-9.253234
23790	10.095639	-1.589345	3.795361	0.120433	-0.913334	1.638353	-20.351821	-66.781616	-6.561550
23791	10.139640	-1.766898	3.761791	0.144107	-0.892835	1.637633	-22.792714	-66.917980	-3.824128
23792	10.130207	-1.806209	3.483831	0.154503	-0.878437	1.635602	-25.217304	-66.997586	-1.096165
23793	10.109116	-1.794769	3.186272	0.171865	-0.869779	1.617489	-27.642548	-67.035570	1.638093
23794	9.975662	-1.868480	3.177252	0.222875	-0.886203	1.607735	-30.016453	-67.036679	4.351976
23795	9.997296	-1.991903	3.348835	0.270548	-0.917254	1.604601	-32.403154	-67.012846	7.105631
23796	10.021336	-2.061829	3.162832	0.276892	-0.908336	1.586185	-34.723127	-66.943957	9.795706
23797	10.031285	-2.051552	2.859915	0.259870	-0.898951	1.563727	-37.027498	-66.838075	12.455965
23798	10.058489	-2.069897	2.844668	0.272560	-0.895696	1.526910	-39.231858	-66.700914	15.021727
23799	9.980080	-1.991132	2.766204	0.320851	-0.889228	1.481327	-41.351788	-66.541568	17.524583
23800	10.011970	-2.110767	2.550265	0.345582	-0.891019	1.440809	-43.361349	-66.361449	19.929666
23801	9.898783	-2.186396	2.593999	0.380685	-0.885065	1.408757	-45.305033	-66.160329	22.284434
23802	9.851424	-2.220501	2.515123	0.425863	-0.893160	1.365835	-47.130326	-65.947785	24.545587
23803	9.707839	-2.434398	2.708516	0.491970	-0.856079	1.336966	-48.844500	-65.706127	26.735061
23804	9.520867	-2.280033	2.614280	0.537998	-0.867615	1.284686	-50.438336	-65.465114	28.820913
23805	9.593154	-2.243381	2.268056	0.513937	-0.868792	1.214585	-51.980084	-65.233595	30.834568
23806	9.649042	-2.240167	2.265260	0.537703	-0.835622	1.159745	-53.378100	-64.993063	32.712288
23807	9.488879	-2.307088	2.402862	0.588222	-0.799584	1.121477	-54.675499	-64.740995	34.511076
23808	9.279126	-2.222840	2.206662	0.605509	-0.810165	1.066324	-55.882751	-64.500566	36.228252
23809	9.340715	-2.237918	1.958090	0.623408	-0.825176	1.027320	-57.064057	-64.269694	37.927987
23810	9.146588	-2.226380	2.066985	0.679556	-0.810366	1.006774	-58.137593	-64.028527	39.550520
23811	8.863504	-2.200385	2.044016	0.667397	-0.825613	0.972680	-59.209474	-63.796943	41.166608
23812	8.690096	-2.501081	2.133744	0.652598	-0.838155	0.916706	-60.225303	-63.582417	42.713925
23813	8.558048	-2.622060	2.178962	0.645788	-0.841362	0.864150	-61.219644	-63.384861	44.232442
23814	8.640268	-2.891958	2.215403	0.653676	-0.813431	0.801093	-62.108414	-63.198757	45.643594
23815	8.696218	-2.962782	2.202426	0.706809	-0.770178	0.741784	-62.897236	-63.023604	46.979811
23816	8.871625	-2.933071	2.259182	0.726304	-0.718025	0.676837	-63.556707	-62.859222	48.184600
23817	8.977037	-2.841721	2.238290	0.731760	-0.649068	0.617692	-64.123567	-62.703459	49.291217
23818	8.988227	-2.655904	2.200223	0.734423	-0.597332	0.579497	-64.590490	-62.548664	50.287842
23819	8.767774	-2.591135	2.353667	0.720685	-0.576435	0.547498	-65.040244	-62.403509	51.254766
23820	8.666171	-2.560398	2.486232	0.653255	-0.569401	0.498430	-65.473412	-62.277032	52.163374
23821	8.723853	-2.647121	2.351492	0.582890	-0.555599	0.434381	-65.916400	-62.179412	53.037200
23822	8.740506	-2.723288	2.207382	0.536503	-0.539756	0.373156	-66.321705	-62.105369	53.840291
23823	8.816026	-2.798340	2.255104	0.505602	-0.518771	0.320154	-66.714887	-62.053895	54.608164
23824	8.815985	-2.906917	2.281630	0.471115	-0.480089	0.277460	-67.052718	-62.011866	55.293262
23825	8.745322	-3.056929	2.255346	0.422159	-0.453162	0.229961	-67.386303	-61.989257	55.943437
23826	8.716944	-3.272392	2.309582	0.413999	-0.431707	0.189973	-67.670556	-61.979350	56.531091
23827	8.797215	-3.327772	2.293017	0.407789	-0.403542	0.154906	-67.930925	-61.983111	57.084112
23828	8.802522	-3.411896	2.184397	0.403419	-0.381432	0.116464	-68.141378	-61.999054	57.581280
23829	8.889218	-3.342233	2.196788	0.416194	-0.357302	0.081977	-68.321106	-62.029837	58.051259
23830	8.848587	-3.281670	2.248700	0.397267	-0.317007	0.066567	-68.451745	-62.057343	58.453842
23831	8.788819	-3.308503	2.304843	0.371406	-0.295170	0.041994	-68.579364	-62.095503	58.834808
23832	8.790669	-3.248729	2.294477	0.344998	-0.280656	0.022502	-68.687242	-62.138128	59.177493
23833	8.601289	-3.225062	2.321840	0.312532	-0.252793	0.008506	-68.792934	-62.184735	59.496802
23834	8.464524	-3.289754	2.435814	0.248704	-0.235351	-0.000767	-68.902401	-62.229835	59.778636
23835	8.590108	-3.442470	2.464615	0.152356	-0.218370	-0.016209	-69.055774	-62.282151	60.044526
23836	8.711825	-3.538465	2.422603	0.059796	-0.165729	-0.022861	-69.195325	-62.324236	60.237850
23837	8.827420	-3.665445	2.298339	-0.024667	-0.125405	-0.024199	-69.351871	-62.361222	60.395463
23838	9.067807	-3.877329	2.268382	-0.059174	-0.091573	-0.024136	-69.484033	-62.388603	60.503391
23839	9.189530	-4.076024	2.259331	-0.053221	-0.017156	-0.031398	-69.542838	-62.407531	60.530065
23840	9.113776	-4.068771	2.284301	-0.018887	0.053064	-0.047533	-69.494618	-62.418391	60.460484
23841	9.049993	-3.811244	2.214797	0.011816	0.115840	-0.088782	-69.356459	-62.441293	60.306782
23842	8.905568	-3.483548	2.031811	0.004572	0.168308	-0.137338	-69.141224	-62.476730	60.064033
23843	8.671566	-3.155473	1.783884	-0.038846	0.158403	-0.191375	-68.946258	-62.545371	59.815129
23844	8.568195	-3.087222	1.495369	-0.050166	0.122550	-0.228515	-68.771534	-62.638230	59.582982
23845	8.415959	-3.040214	1.364517	-0.063626	0.080346	-0.241441	-68.648417	-62.749445	59.400853
23846	8.172602	-3.138649	1.325621	-0.146157	0.017078	-0.220174	-68.639058	-62.859464	59.293238
23847	8.100964	-3.473627	1.364566	-0.251159	-0.037842	-0.184306	-68.768677	-62.965221	59.271747
23848	8.106356	-3.995028	1.419392	-0.277622	-0.054886	-0.130758	-68.946394	-63.042519	59.289745
23849	8.311134	-4.285501	1.510769	-0.188019	-0.062438	-0.105540	-69.098553	-63.111275	59.334325
23850	8.761250	-4.357008	1.617768	-0.097869	-0.070301	-0.128786	-69.191256	-63.190627	59.372453
23851	9.026310	-4.299721	1.759482	-0.077771	-0.033480	-0.158868	-69.228449	-63.281778	59.360945
23852	9.178830	-4.176644	1.641869	0.027485	0.008919	-0.190787	-69.140112	-63.378201	59.276798
23853	9.256647	-3.761157	1.753074	0.176610	0.020943	-0.212474	-68.950622	-63.486867	59.173663
23854	9.210835	-3.284234	2.032225	0.154432	0.020063	-0.277619	-68.739590	-63.627165	59.033889
23855	9.096379	-3.051460	1.966910	0.050551	0.011324	-0.370950	-68.562517	-63.822200	58.865390
23856	9.047507	-2.825548	1.855456	0.023905	-0.032875	-0.466872	-68.398641	-64.074108	58.695334
23857	9.065577	-2.485796	1.721390	0.018578	-0.072321	-0.542589	-68.250569	-64.378081	58.539777
23858	9.094146	-2.257600	1.724273	-0.092695	-0.068944	-0.601125	-68.126972	-64.708705	58.341196
23859	9.119830	-2.390622	1.728554	-0.229296	-0.052033	-0.640083	-68.046023	-65.060368	58.104254
23860	9.142615	-2.636220	1.741017	-0.291254	-0.028931	-0.608294	-67.978988	-65.385961	57.843776
23861	9.165764	-2.743701	2.111385	-0.398815	-0.011346	-0.594391	-67.960473	-65.704803	57.570417
23862	9.538962	-2.998044	2.206297	-0.549423	0.001822	-0.651875	-67.976158	-66.046856	57.239850
23863	10.173828	-3.125342	2.094138	-0.528893	0.026684	-0.721233	-67.914799	-66.425031	56.838294
23864	10.734459	-2.808406	1.931024	-0.439684	0.077750	-0.813752	-67.679954	-66.836123	56.305219
23865	10.619977	-2.478266	1.660691	-0.374771	0.179357	-0.907609	-67.219330	-67.278211	55.570007
23866	9.781142	-2.351235	1.653923	-0.339400	0.232029	-0.960517	-66.614650	-67.728723	54.702260
23867	9.039496	-2.471613	1.834821	-0.383466	0.172746	-0.957192	-66.087149	-68.193216	53.895508
23868	8.910674	-2.642489	2.042257	-0.463678	0.107140	-0.941600	-65.671600	-68.656996	53.160205
23869	9.024858	-2.694989	2.025989	-0.592414	0.121623	-0.942327	-65.286352	-69.121250	52.383044
23870	9.076997	-2.613236	1.793076	-0.717389	0.160782	-0.975374	-64.869626	-69.585813	51.495732
23871	9.170600	-2.570263	1.629220	-0.789147	0.168798	-1.002688	-64.434153	-70.065619	50.549272
23872	9.437533	-2.652977	1.572404	-0.824876	0.182643	-1.023385	-63.950373	-70.544614	49.530732
23873	9.594288	-2.709601	1.511019	-0.830224	0.231890	-1.038076	-63.346971	-71.020775	48.387471
23874	9.595006	-2.833431	1.434386	-0.848821	0.284411	-1.038878	-62.630510	-71.473898	47.114548
23875	9.500065	-2.981999	1.271377	-0.862459	0.304436	-1.025647	-61.850944	-71.914963	45.773185
23876	9.549217	-3.107495	1.200479	-0.818506	0.289264	-1.000234	-61.041432	-72.336139	44.427188
23877	9.570921	-3.220560	1.137348	-0.753641	0.273152	-0.970303	-60.193352	-72.746138	43.085461
23878	9.625079	-3.267781	1.141992	-0.650502	0.242181	-0.945063	-59.309921	-73.141201	41.768868
23879	9.777796	-3.310254	1.023331	-0.580721	0.210328	-0.915781	-58.413657	-73.530223	40.488685
23880	9.756339	-3.270868	0.984146	-0.478250	0.191986	-0.879645	-57.478043	-73.896421	39.225837
23881	9.757896	-3.301517	0.972881	-0.424364	0.143705	-0.856704	-56.565905	-74.265655	38.026084
23882	9.946959	-3.221654	0.882170	-0.396566	0.099321	-0.805934	-55.725933	-74.615055	36.915664
23883	9.964852	-3.251386	0.849188	-0.396126	0.067911	-0.721898	-54.997163	-74.935640	35.924078
23884	9.958209	-3.415821	0.870176	-0.407867	0.047112	-0.624705	-54.400016	-75.209948	35.061598
23885	9.899588	-3.604062	0.857701	-0.424981	0.000875	-0.516429	-54.008553	-75.451832	34.407290
23886	10.040027	-3.776331	0.845365	-0.387837	-0.052621	-0.444248	-53.771424	-75.673125	33.930349
23887	10.048416	-3.750985	0.932610	-0.338678	-0.034789	-0.389422	-53.537543	-75.866646	33.487454
23888	9.970460	-3.674608	1.001258	-0.294259	-0.033089	-0.352913	-53.314994	-76.038281	33.081638
23889	9.886484	-3.539819	0.943652	-0.228881	-0.050446	-0.320129	-53.127698	-76.203866	32.757389
23890	9.839372	-3.419524	0.843118	-0.141826	-0.076402	-0.273163	-52.997324	-76.353269	32.536935
23891	9.755756	-3.105502	0.921647	-0.061931	-0.094473	-0.215890	-52.938313	-76.485868	32.437550
23892	9.635508	-2.816908	1.029640	-0.024455	-0.115963	-0.159079	-52.975349	-76.596661	32.458627
23893	9.639147	-2.407920	1.123862	-0.036898	-0.106336	-0.130638	-53.047714	-76.693986	32.509562
23894	9.571745	-2.199001	1.124700	-0.081094	-0.085982	-0.128134	-53.105435	-76.780281	32.518536
23895	9.539032	-2.221436	1.090660	-0.111106	-0.080575	-0.114679	-53.195948	-76.861321	32.544244
23896	9.467204	-2.161964	1.149660	-0.083934	-0.111967	-0.108855	-53.336344	-76.947667	32.636427
23897	9.547504	-2.028156	1.148356	-0.073350	-0.114146	-0.110139	-53.481170	-77.037798	32.744391
23898	9.572423	-1.966644	1.156347	-0.069197	-0.109084	-0.104613	-53.616753	-77.121108	32.840236
23899	9.617912	-1.836650	1.112721	-0.030363	-0.130306	-0.103715	-53.782906	-77.213504	32.997657
23900	9.708281	-1.706630	1.202021	0.005786	-0.120249	-0.115745	-53.884931	-77.305635	33.103080
23901	9.714914	-1.563399	1.205148	0.026990	-0.095660	-0.137143	-53.901180	-77.402052	33.133104
23902	9.615009	-1.432319	1.241876	0.022970	-0.083246	-0.160719	-53.850112	-77.502487	33.091697
23903	9.680559	-1.534805	1.180555	0.020224	-0.087884	-0.176624	-53.791699	-77.614480	33.041936
23904	9.689891	-1.665696	1.196580	0.043811	-0.094007	-0.177538	-53.723703	-77.726319	32.995462
23905	9.734888	-1.865168	1.205497	0.055182	-0.079135	-0.163534	-53.645325	-77.829167	32.950283
23906	9.763346	-1.902400	1.312198	0.098705	-0.073806	-0.134596	-53.568318	-77.914312	32.926800
23907	9.749983	-1.723520	1.403644	0.164596	-0.068338	-0.135900	-53.446935	-78.000710	32.901879
23908	9.743801	-1.571616	1.322970	0.170873	-0.048015	-0.158217	-53.232233	-78.087870	32.779933
23909	9.728840	-1.548025	1.264050	0.164136	-0.051153	-0.165276	-53.021332	-78.181796	32.658932
23910	9.761222	-1.495055	1.318190	0.133392	-0.057382	-0.158822	-52.842785	-78.272291	32.552066
23911	9.790309	-1.456811	1.318935	0.060977	-0.043412	-0.145086	-52.700761	-78.353961	32.440430
23912	9.837416	-1.630407	1.314775	-0.047022	-0.031277	-0.126384	-52.619009	-78.420508	32.326914
23913	9.823825	-1.936324	1.233787	-0.121075	-0.007696	-0.099600	-52.578333	-78.468954	32.215631
23914	9.797902	-2.213026	1.202251	-0.135455	0.006824	-0.080814	-52.538545	-78.501462	32.093274
23915	9.823559	-2.345408	1.211132	-0.096000	0.016457	-0.057073	-52.502823	-78.522168	31.999571
23916	9.867698	-2.354162	1.290427	-0.038400	0.011371	-0.034396	-52.476409	-78.531969	31.947625
23917	9.955414	-2.172577	1.353507	0.024217	-0.008974	0.005216	-52.533857	-78.532694	32.018360
23918	9.939159	-1.877735	1.303730	0.061125	-0.003831	0.037258	-52.607489	-78.515205	32.126689
23919	9.884240	-1.733277	1.148320	0.091501	0.018322	0.041558	-52.627032	-78.489460	32.201981
23920	9.794628	-1.611133	1.181818	0.085089	0.019795	0.040281	-52.638784	-78.462359	32.261190
23921	9.799352	-1.644208	1.170178	0.065752	0.028546	0.030881	-52.631849	-78.438053	32.290901
23922	9.746930	-1.735506	1.256255	0.071053	0.038772	0.027793	-52.588049	-78.410041	32.285208
23923	9.734742	-1.676484	1.291867	0.085273	0.041370	0.033310	-52.549320	-78.380414	32.293454
23924	9.735727	-1.518664	1.290676	0.092623	0.041698	0.033876	-52.497252	-78.348619	32.291938
23925	9.711921	-1.353690	1.266607	0.091569	0.047174	0.026743	-52.429699	-78.319778	32.274623
23926	9.724593	-1.357787	1.204902	0.076661	0.051429	0.014812	-52.333626	-78.293235	32.218833
23927	9.750146	-1.437959	1.184964	0.068872	0.056470	0.010960	-52.230995	-78.268203	32.151824
23928	9.722023	-1.488977	1.205954	0.055373	0.057138	0.001560	-52.113005	-78.245613	32.061180
23929	9.739631	-1.595488	1.238847	0.054116	0.056868	-0.000785	-51.999638	-78.225834	31.975237
23930	9.765312	-1.674755	1.219379	0.059079	0.058498	0.003332	-51.880366	-78.201893	31.885442
23931	9.731143	-1.593502	1.285570	0.071682	0.051748	0.019075	-51.800859	-78.174729	31.843280
23932	9.782067	-1.447616	1.330729	0.067496	0.062472	0.011418	-51.682732	-78.145680	31.759565
23933	9.724532	-1.388320	1.235027	0.044382	0.066978	0.002552	-51.554882	-78.120188	31.652797
23934	9.716833	-1.386228	1.275123	0.034864	0.051680	0.000274	-51.460479	-78.099918	31.574205
23935	9.689797	-1.305446	1.306083	0.023683	0.048144	-0.010304	-51.370269	-78.087478	31.493925
23936	9.705062	-1.379986	1.195137	0.006954	0.058884	-0.031131	-51.223832	-78.078613	31.345803
23937	9.637848	-1.505024	1.158169	0.003713	0.054580	-0.026623	-51.100949	-78.070917	31.220755
23938	9.669288	-1.554797	1.242840	0.006291	0.042702	-0.027346	-50.995838	-78.066065	31.114478
23939	9.684396	-1.570527	1.251433	0.002518	0.048078	-0.031699	-50.879460	-78.062916	30.994480
23940	9.719848	-1.533180	1.279536	0.008367	0.049112	-0.031263	-50.753168	-78.057398	30.867767
23941	9.760346	-1.424618	1.322406	0.016882	0.040143	-0.023300	-50.664840	-78.053751	30.785297
23942	9.747083	-1.242916	1.314101	0.021130	0.031402	-0.036930	-50.558734	-78.057094	30.686690
23943	9.757624	-1.284881	1.216127	-0.006825	0.036606	-0.047060	-50.444609	-78.064620	30.569621
23944	9.679283	-1.477870	1.195154	-0.027314	0.029186	-0.056726	-50.336477	-78.077434	30.440584
23945	9.659399	-1.569601	1.268019	-0.027405	0.011008	-0.057368	-50.269476	-78.098868	30.358908
23946	9.747170	-1.616573	1.289737	-0.017318	0.010925	-0.054247	-50.197556	-78.117214	30.272750
23947	9.736159	-1.550557	1.320498	-0.003775	0.013186	-0.047165	-50.128078	-78.133164	30.201812
23948	9.713295	-1.423586	1.381305	0.003578	0.013525	-0.046567	-50.051739	-78.147136	30.123385
23949	9.675120	-1.364408	1.336471	-0.010999	0.016715	-0.060799	-49.964046	-78.168728	30.025587
23950	9.668702	-1.444125	1.269846	-0.035841	0.015628	-0.059766	-49.882206	-78.187671	29.918479
23951	9.662284	-1.568112	1.292764	-0.050951	0.004483	-0.061995	-49.836474	-78.213946	29.839269
23952	9.667829	-1.622604	1.296561	-0.059304	0.010972	-0.056159	-49.783674	-78.232992	29.748111
