// Start Time: Unknown
// Update Rate: 100.0Hz
// Filter Profile: human (46.1)
// Firmware Version: 4.3.5
PacketCounter,Acc_X,Acc_Y,Acc_Z,Gyr_X,Gyr_Y,Gyr_Z
09001,9.340855,-2.093004,2.772972,-0.014037,0.007578,-0.006842
09002,9.352809,-2.124692,2.778644,-0.015003,0.010046,-0.007204
09003,9.325215,-2.171519,2.783165,-0.010244,0.012810,-0.005391
09004,9.340916,-2.131987,2.760127,-0.009452,0.010053,-0.001441
09005,9.363040,-2.077294,2.816241,-0.002589,0.008169,-0.002491
09006,9.296303,-2.056079,2.758109,-0.014467,0.011938,0.001529
09007,9.271809,-1.993021,2.748520,-0.024108,0.011533,0.004870
09008,9.231926,-2.009411,2.747551,-0.035294,0.011889,0.004888
09009,9.251554,-2.023175,2.740950,-0.040233,0.008835,0.006663
09010,9.211780,-2.040066,2.739199,-0.047468,0.004546,0.005738
09011,9.202932,-2.021883,2.765970,-0.045048,0.010833,0.000287
09012,9.211340,-2.042788,2.738649,-0.044449,0.002191,-0.001333
09013,9.257839,-2.052811,2.803535,-0.041556,-0.000631,-0.010591
09014,9.235303,-2.067616,2.762073,-0.033683,-0.005158,-0.017054
09015,9.247343,-2.059118,2.781051,-0.027084,-0.007979,-0.022475
09016,9.228774,-2.084730,2.771124,-0.022121,-0.015265,-0.028837
09017,9.253400,-2.106744,2.794534,-0.014772,-0.016084,-0.034879
09018,9.274078,-2.076423,2.800932,-0.014080,-0.019490,-0.038886
09019,9.295551,-2.084976,2.792012,-0.012025,-0.019366,-0.046317
09020,9.320600,-2.105245,2.815416,-0.008510,-0.015070,-0.049221
09021,9.294801,-2.148051,2.817243,-0.007549,-0.017538,-0.048860
09022,9.287737,-2.123999,2.842582,0.003334,-0.018644,-0.047482
09023,9.348713,-2.116302,2.835680,0.000942,-0.014942,-0.048970
09024,9.330045,-2.099819,2.841203,-0.004084,-0.013071,-0.045987
09025,9.319842,-2.103391,2.819836,-0.010081,-0.008735,-0.043361
09026,9.285054,-2.127616,2.849576,-0.019377,-0.002998,-0.038021
09027,9.306009,-2.136945,2.841897,-0.022012,-0.004831,-0.033548
09028,9.314688,-2.114642,2.829173,-0.026872,-0.002667,-0.034149
09029,9.308227,-2.172255,2.825116,-0.032921,0.002001,-0.019993
09030,9.280608,-2.179127,2.843537,-0.029576,0.006006,-0.019315
09031,9.260789,-2.166202,2.850211,-0.023609,0.001844,-0.016175
09032,9.250533,-2.212118,2.814352,-0.018591,-0.000018,-0.019154
09033,9.267473,-2.210399,2.775053,-0.009551,-0.001107,-0.019703
09034,9.247063,-2.157233,2.796828,-0.008414,-0.003272,-0.022931
09035,9.264241,-2.154887,2.757174,-0.004883,-0.009136,-0.024672
09036,9.296458,-2.157310,2.769814,-0.009837,-0.002041,-0.024062
09037,9.289356,-2.175109,2.780883,-0.010630,-0.009444,-0.026833
09038,9.291127,-2.212358,2.764289,-0.005098,-0.014838,-0.024478
09039,9.315819,-2.234517,2.788000,0.004084,-0.015455,-0.022849
09040,9.348316,-2.236677,2.799966,0.011103,-0.016841,-0.021734
09041,9.309073,-2.210175,2.812509,0.021863,-0.018385,-0.022553
09042,9.326536,-2.207273,2.772224,0.027979,-0.022075,-0.017237
09043,9.331214,-2.216915,2.803014,0.039777,-0.020846,-0.020076
09044,9.300746,-2.209567,2.788404,0.037843,-0.026086,-0.019610
09045,9.258625,-2.254059,2.829187,0.047266,-0.031332,-0.022764
09046,9.271658,-2.242484,2.847366,0.051396,-0.035827,-0.033056
09047,9.254183,-2.309207,2.912625,0.063071,-0.045404,-0.042652
09048,9.181848,-2.345988,2.939118,0.075770,-0.052213,-0.054264
09049,9.174255,-2.429122,2.976880,0.099789,-0.059022,-0.069491
09050,9.153025,-2.588999,3.023844,0.145843,-0.067180,-0.083387
09051,9.191205,-2.702504,3.081280,0.215444,-0.077601,-0.098375
09052,9.255132,-2.729653,3.242382,0.296203,-0.087619,-0.105395
09053,9.316230,-2.530756,3.618119,0.361137,-0.068392,-0.116966
09054,9.346307,-2.316640,3.800078,0.336059,-0.027772,-0.116378
09055,9.233711,-2.016789,3.940064,0.240637,0.025213,-0.112890
09056,8.902284,-2.195312,3.918809,0.076252,0.084022,-0.093712
09057,8.735289,-3.088924,3.882459,0.034907,0.115265,-0.080690
09058,8.793118,-4.131048,3.991171,0.189517,0.109476,-0.057986
09059,8.972144,-4.870677,4.222243,0.518899,0.092599,-0.024530
09060,9.275297,-5.007539,4.520148,0.951290,0.077050,0.014232
09061,9.526538,-4.478205,4.769686,1.292920,0.098656,0.061056
09062,9.711992,-3.708312,5.047076,1.468016,0.155848,0.097922
09063,9.806821,-3.125198,5.119471,1.458500,0.232561,0.127735
09064,9.808532,-2.849140,5.105228,1.366107,0.311521,0.133696
09065,9.783576,-2.673048,5.208941,1.252142,0.362607,0.140247
09066,9.787515,-2.586702,5.518944,1.082075,0.428298,0.155271
09067,9.739587,-2.692971,5.643986,0.908799,0.487232,0.177550
09068,9.660167,-2.896638,5.771803,0.755593,0.554939,0.204052
09069,9.640840,-3.237384,5.780743,0.649553,0.623200,0.242884
09070,9.574337,-3.478916,5.701345,0.608238,0.680549,0.287623
09071,9.611453,-3.808084,5.551245,0.617809,0.740811,0.338486
09072,9.605603,-4.123346,5.455224,0.703695,0.793636,0.388656
09073,9.677954,-4.388950,5.485656,0.837619,0.841442,0.434942
09074,9.833881,-4.499837,5.647904,1.026666,0.880348,0.480340
09075,9.932929,-4.370717,6.031306,1.197218,0.934380,0.526896
09076,9.966123,-3.941900,6.319733,1.304923,1.003728,0.568455
09077,9.942807,-3.476382,6.491584,1.299367,1.084396,0.600061
09078,9.967276,-3.137096,6.518995,1.217877,1.162529,0.641452
09079,9.968732,-3.102748,6.609261,1.110703,1.230074,0.671495
09080,10.143385,-3.327448,6.643903,1.043231,1.290647,0.707217
09081,10.294161,-3.509093,6.856686,1.039686,1.366209,0.738830
09082,10.347627,-3.601678,7.039018,1.082032,1.435741,0.778062
09083,10.394926,-3.447691,7.014492,1.121143,1.508521,0.803031
09084,10.378436,-3.023635,6.943685,1.123128,1.570856,0.820833
09085,10.258919,-2.707479,6.921591,1.026194,1.636981,0.836678
09086,10.140684,-2.633583,6.985405,0.902787,1.684741,0.846201
09087,10.032176,-2.784139,7.091484,0.778234,1.729407,0.855918
09088,9.957067,-2.908334,7.347963,0.725414,1.771192,0.867686
09089,9.869146,-2.963306,7.593007,0.684854,1.814237,0.880554
09090,9.822472,-2.972855,7.605680,0.664578,1.848356,0.899231
09091,9.732611,-2.922150,7.472774,0.644721,1.891386,0.911346
09092,9.604402,-2.842057,7.243198,0.622045,1.936090,0.927075
09093,9.512938,-2.886472,7.145718,0.609740,1.963068,0.928268
09094,9.402122,-2.777648,7.166949,0.587784,1.990457,0.924890
09095,9.343511,-2.718333,7.112697,0.563087,2.010732,0.928012
09096,8.892657,-2.728840,7.405986,0.549921,2.053668,0.934414
09097,8.526725,-2.983981,7.527713,0.572919,2.055581,0.933750
09098,8.601224,-3.081476,7.634458,0.668270,2.051413,0.915747
09099,8.591017,-2.988375,7.708371,0.762752,2.059548,0.897193
09100,8.507376,-2.689228,7.761075,0.860295,2.082834,0.869843
09101,8.270902,-2.413870,7.688183,0.883643,2.107118,0.838833
09102,8.200915,-2.165226,7.623205,0.863828,2.105151,0.811258
09103,8.172001,-2.001574,7.422907,0.771445,2.111043,0.785418
09104,7.989252,-2.086326,7.300015,0.677788,2.108432,0.774021
09105,7.796289,-2.197040,7.401919,0.618448,2.091547,0.760681
09106,7.726328,-2.398262,7.301688,0.585435,2.076299,0.757674
09107,7.530823,-2.452445,7.385303,0.604076,2.071762,0.761691
09108,7.288098,-2.246798,7.492734,0.597564,2.057502,0.771539
09109,7.170175,-1.991213,7.325449,0.538621,2.043719,0.775122
09110,6.925107,-1.809316,7.153190,0.453703,2.040389,0.786138
09111,6.527481,-1.734290,7.088944,0.332689,2.040614,0.793166
09112,6.097023,-1.840521,7.084308,0.236962,2.024194,0.797181
09113,5.766193,-2.061863,7.054083,0.193568,1.994068,0.798326
09114,5.390370,-2.175071,7.240450,0.204920,1.949220,0.796811
09115,5.111705,-2.238658,7.347490,0.228553,1.889596,0.791520
09116,4.860699,-2.140844,7.541013,0.267232,1.832040,0.774519
09117,4.498230,-1.898662,7.679613,0.259857,1.787215,0.751995
09118,4.269729,-1.813567,7.684111,0.220734,1.746431,0.728101
09119,3.937867,-1.840379,7.734218,0.186143,1.712854,0.701772
09120,3.566571,-1.969527,7.916946,0.184192,1.675555,0.681089
09121,3.140254,-2.045344,8.298826,0.226448,1.630450,0.654274
09122,2.862718,-2.073593,8.588422,0.307138,1.577877,0.616025
09123,2.705896,-1.879752,8.901436,0.394444,1.538755,0.562414
09124,2.850946,-1.677405,8.827338,0.410925,1.496536,0.504892
09125,3.081041,-1.475301,8.763770,0.391904,1.485888,0.452771
09126,3.011227,-1.416958,8.598175,0.340953,1.476154,0.409766
09127,2.745244,-1.394348,8.592291,0.288217,1.458728,0.369132
09128,2.571360,-1.408386,8.620127,0.248740,1.428247,0.331622
09129,2.371236,-1.385382,8.735460,0.209641,1.409329,0.304008
09130,2.225480,-1.503312,8.746759,0.173894,1.376711,0.291179
09131,2.293412,-1.475754,8.664412,0.151485,1.344737,0.276206
09132,2.181433,-1.420979,8.525498,0.121134,1.318760,0.270427
09133,2.365110,-1.118449,8.284405,0.011033,1.281751,0.260091
09134,2.043871,-0.987730,8.083725,-0.120737,1.301017,0.291075
09135,1.547939,-1.169600,8.066129,-0.265394,1.281437,0.313811
09136,1.375668,-1.229046,8.027154,-0.341026,1.229103,0.330742
09137,1.321978,-1.119066,7.858390,-0.450082,1.189592,0.355343
09138,1.113449,-1.095358,7.782446,-0.575802,1.166934,0.380086
09139,0.817425,-1.325007,7.626888,-0.687564,1.133319,0.404495
09140,0.765353,-1.481461,7.393980,-0.738284,1.083359,0.409939
09141,0.587239,-1.351397,7.436192,-0.767474,1.032772,0.407229
09142,0.393391,-1.019278,7.496025,-0.877419,0.995182,0.405711
09143,0.118318,-0.683887,7.395023,-1.068944,0.961267,0.408306
09144,-0.250081,-0.678102,7.614710,-1.275764,0.924140,0.400394
09145,-0.476127,-0.703889,7.718858,-1.508821,0.851536,0.392352
09146,-0.344540,-0.581733,7.761872,-1.735649,0.769250,0.384618
09147,-0.354293,0.093902,7.786654,-2.074619,0.670933,0.386200
09148,-0.423652,1.457135,7.691503,-2.639635,0.559321,0.415705
09149,-0.638090,3.008973,7.842318,-3.550480,0.470973,0.451790
09150,-0.859347,4.242239,7.918841,-4.845646,0.429287,0.468464
09151,-0.939641,4.540447,7.457702,-6.347288,0.435249,0.480710
09152,-0.878132,4.165826,6.478137,-7.897722,0.451038,0.482468
09153,-0.559512,3.537911,5.245194,-9.373575,0.464897,0.518105
09154,-0.317683,3.362577,3.672501,-10.935302,0.513803,0.579408
09155,-0.055823,3.590094,1.883467,-12.637654,0.607419,0.694964
09156,0.174780,3.780828,-0.552219,-14.682783,0.796029,0.798467
09157,0.069897,2.802141,-4.143945,-16.668950,1.249953,0.953546
09158,-0.988332,-0.440233,-9.385074,-17.767203,1.814560,0.991269
09159,-2.787929,-5.985769,-12.872621,-17.498060,1.768739,0.701068
09160,-3.451546,-10.242032,-14.529406,-16.165313,1.167636,0.952547
09161,-3.573741,-11.934262,-14.115569,-14.793373,0.888970,1.175728
09162,-3.395914,-12.397586,-14.593887,-13.512973,0.805675,1.218471
09163,-3.805987,-12.749967,-14.580009,-12.113726,0.637008,1.210028
09164,-3.903701,-13.562345,-13.469609,-10.618165,0.379148,1.160381
09165,-3.428033,-13.933017,-12.169529,-8.846934,0.222931,1.063675
09166,-3.216028,-13.266993,-10.199135,-7.000536,0.175952,0.927515
09167,-2.862894,-11.523301,-8.237355,-5.403749,0.162723,0.841329
09168,-2.155366,-9.379559,-6.976308,-4.043709,0.299122,0.658323
09169,-1.919988,-7.957164,-5.982192,-3.165151,0.525779,0.425205
09170,-1.693130,-7.047000,-6.293743,-2.413379,0.648500,0.265948
09171,-1.733369,-6.281227,-6.642285,-1.767832,0.706109,0.115540
09172,-1.977777,-5.241944,-7.185230,-1.334034,0.693547,0.057190
09173,-2.020929,-4.433088,-7.723480,-1.091674,0.599825,0.046740
09174,-2.068787,-4.054284,-8.246641,-0.964822,0.507651,0.054390
09175,-2.115776,-3.912568,-8.581703,-0.810881,0.397393,0.071600
09176,-2.173556,-4.266017,-8.881682,-0.625179,0.290360,0.066275
09177,-2.278415,-4.672547,-8.957921,-0.323765,0.191848,0.075636
09178,-2.319090,-4.470513,-8.975509,-0.009225,0.102384,0.074274
09179,-2.158258,-4.310057,-8.949436,0.224505,0.042455,0.044436
09180,-2.117683,-4.136493,-8.742129,0.423518,0.001375,0.027880
09181,-2.103484,-3.790831,-8.611676,0.485257,0.000115,-0.000341
09182,-1.846459,-3.918357,-8.640901,0.513240,-0.004441,-0.046544
09183,-1.844290,-4.325763,-8.797265,0.608623,0.037197,-0.087728
09184,-1.993599,-4.498898,-8.808285,0.713628,0.062471,-0.118428
09185,-1.989873,-4.948693,-8.998308,0.837144,0.091874,-0.148575
09186,-1.941680,-5.273306,-9.187249,1.059970,0.131426,-0.183566
09187,-2.084277,-5.462703,-9.283205,1.320481,0.141901,-0.205045
09188,-2.119208,-5.565401,-9.401872,1.595917,0.129063,-0.234515
09189,-2.122363,-5.742888,-9.405926,1.859736,0.114294,-0.253745
09190,-2.298090,-5.870123,-9.592536,2.130465,0.063456,-0.274661
09191,-2.282937,-6.521294,-9.812404,2.470127,-0.009646,-0.320161
09192,-2.346526,-7.441764,-10.137608,3.018428,-0.070062,-0.383243
09193,-2.573543,-8.096716,-10.398358,3.809052,-0.164672,-0.439976
09194,-2.709140,-8.377224,-10.533349,4.714427,-0.288982,-0.509826
09195,-2.548390,-8.591081,-10.282291,5.567076,-0.448020,-0.555111
09196,-2.297310,-8.751041,-10.114111,6.472226,-0.552390,-0.623990
09197,-2.120073,-9.222194,-9.947446,7.346339,-0.647079,-0.707431
09198,-2.000627,-10.129402,-10.461304,8.455618,-0.720000,-0.790491
09199,-2.034680,-11.316246,-10.668637,9.729999,-0.808662,-0.857975
09200,-1.802033,-12.384721,-11.160563,11.294703,-0.846210,-0.880896
09201,-1.588983,-13.220566,-11.534287,13.109726,-0.819890,-0.882339
09202,-1.106007,-13.095843,-11.631384,14.986223,-0.831364,-0.775266
09203,-0.803234,-12.158217,-11.283414,16.907233,-0.789252,-0.609014
09204,-0.810978,-10.773343,-10.300025,18.728318,-0.713463,-0.432225
09205,-0.385141,-9.026615,-9.393078,20.344082,-0.606629,-0.169604
09206,0.382259,-6.568838,-8.215261,21.391687,-0.440644,0.086401
09207,0.751596,-2.734601,-5.289253,21.800713,-0.152194,0.415029
09208,0.636891,2.151417,-2.611855,20.849782,0.193849,0.709947
09209,-0.328999,5.892239,-0.206848,19.003024,0.508178,1.045938
09210,-0.682696,8.872077,2.880711,16.552981,0.538495,1.345191
09211,-0.221334,11.573237,5.925816,13.522793,0.590237,1.427046
09212,-0.826671,12.678984,8.909260,10.070148,0.773844,1.438455
09213,-1.685829,10.254798,8.997035,6.890593,0.975105,1.241546
09214,-1.594784,7.522403,7.547154,5.101493,0.930995,1.018452
09215,-1.886894,7.284659,7.538748,4.156617,0.712065,0.866812
09216,-2.291964,8.138618,8.144037,3.281204,0.518124,0.692274
09217,-2.310969,8.541182,8.437998,2.347213,0.380997,0.497524
09218,-2.351326,8.828740,8.809419,1.502429,0.294339,0.343909
09219,-2.274274,8.333415,9.023749,0.640333,0.270487,0.222863
09220,-2.092688,7.400471,8.651435,-0.028052,0.276899,0.146394
09221,-2.111170,6.463340,8.386408,-0.503164,0.285283,0.120237
09222,-2.095959,5.496400,7.891515,-0.812840,0.293490,0.115462
09223,-2.164805,4.323298,7.542371,-0.878536,0.287921,0.121175
09224,-2.058434,3.320043,7.477546,-0.665367,0.243517,0.149163
09225,-1.939962,3.005238,7.642880,-0.311301,0.199420,0.195952
09226,-1.869172,2.984447,7.801011,0.027062,0.153373,0.236482
09227,-1.837896,3.573677,8.174434,0.383040,0.116253,0.276200
09228,-1.831326,4.515489,8.503093,0.510806,0.112318,0.295647
09229,-1.880411,5.281455,8.775830,0.444337,0.123157,0.291816
09230,-1.992127,5.611022,8.676145,0.239334,0.142342,0.261353
09231,-2.203500,5.744367,8.612973,0.010996,0.133936,0.214436
09232,-2.216232,5.418102,8.422027,-0.211238,0.125012,0.160121
09233,-2.233777,4.826946,8.362155,-0.311684,0.098909,0.104257
09234,-2.190824,4.228627,8.384682,-0.295030,0.071148,0.061253
09235,-2.164477,3.884714,8.402960,-0.174016,0.025601,0.031985
09236,-2.095987,3.886428,8.292256,-0.035263,-0.016526,0.009870
09237,-2.129284,4.226678,8.462644,0.025512,-0.050252,-0.002022
09238,-2.017752,4.536960,8.417869,0.021673,-0.089412,-0.019343
09239,-2.038057,4.828511,8.432436,-0.127509,-0.099718,-0.041384
09240,-1.985805,4.666068,8.318337,-0.288159,-0.112463,-0.053566
09241,-1.933452,4.371277,8.182772,-0.397569,-0.120499,-0.071285
09242,-1.908749,4.027510,8.110752,-0.442638,-0.135628,-0.079550
09243,-1.866956,3.826658,8.097085,-0.422338,-0.151034,-0.085275
09244,-1.790230,3.682806,7.972199,-0.402525,-0.168393,-0.096754
09245,-1.881952,3.871356,7.928914,-0.371985,-0.198213,-0.089225
09246,-1.980833,4.162284,7.989091,-0.439048,-0.230165,-0.105353
09247,-1.765678,4.119271,7.860976,-0.568147,-0.256536,-0.118675
09248,-1.684735,4.011601,7.859366,-0.696465,-0.277972,-0.120439
09249,-1.713609,3.857355,7.813612,-0.812552,-0.294201,-0.118567
09250,-1.651008,3.632461,7.585023,-0.915307,-0.323258,-0.120738
09251,-1.565985,3.366628,7.423970,-0.985392,-0.355035,-0.119033
09252,-1.511494,2.903870,7.198911,-1.022912,-0.389191,-0.111308
09253,-1.407440,2.491464,6.932875,-0.988977,-0.438961,-0.101469
09254,-1.252563,2.459010,6.754932,-0.949686,-0.507921,-0.095533
09255,-1.136774,2.564423,6.538718,-0.967099,-0.576399,-0.079022
09256,-1.071890,2.736528,6.086089,-1.079543,-0.641845,-0.061174
09257,-1.375344,2.811640,5.708805,-1.213223,-0.716714,-0.048417
09258,-1.566408,2.545559,5.486509,-1.340886,-0.814576,-0.058232
09259,-1.270346,1.637961,5.414949,-1.363423,-0.913787,-0.089092
09260,-0.908436,0.610852,5.400006,-1.186423,-1.028302,-0.119262
09261,-0.656816,0.109949,5.690199,-0.851902,-1.154351,-0.138217
09262,-0.638153,0.372812,6.245498,-0.508842,-1.276808,-0.149681
09263,-0.801160,1.182245,6.972875,-0.288152,-1.354237,-0.156821
09264,-0.743182,1.816338,7.395686,-0.263118,-1.417145,-0.179864
09265,-0.448298,2.123201,7.416023,-0.360039,-1.455293,-0.204206
09266,-0.190109,1.925600,7.380529,-0.478991,-1.474629,-0.224249
09267,0.104690,1.671526,7.287582,-0.514889,-1.525257,-0.253604
09268,0.321229,1.594264,7.187506,-0.483630,-1.588827,-0.273068
09269,0.524937,1.752503,7.400483,-0.434475,-1.659303,-0.294883
09270,0.805481,1.827481,7.698012,-0.405616,-1.702560,-0.308685
09271,0.990671,1.866366,8.254919,-0.398319,-1.725084,-0.308673
09272,1.125822,1.697025,8.641059,-0.407880,-1.734231,-0.309501
09273,1.300124,1.496455,8.923647,-0.376677,-1.752987,-0.310171
09274,1.505283,1.358137,9.252497,-0.305924,-1.769466,-0.315317
09275,1.934936,1.456794,9.396053,-0.246041,-1.790475,-0.321439
09276,2.255167,1.793098,9.581995,-0.222315,-1.800319,-0.320413
09277,2.458880,2.084233,9.547314,-0.294577,-1.800015,-0.308627
09278,2.602761,2.129580,9.633351,-0.397740,-1.778990,-0.297079
09279,2.568017,1.981369,9.763389,-0.468201,-1.765743,-0.288815
09280,2.629855,1.788653,10.191047,-0.485195,-1.766248,-0.273807
09281,2.868079,1.642899,10.706898,-0.478856,-1.748053,-0.267004
09282,3.310424,1.549555,10.748282,-0.493016,-1.713323,-0.261066
09283,3.671909,1.609284,10.395465,-0.524757,-1.662417,-0.243626
09284,3.688317,1.787975,9.878452,-0.586436,-1.622367,-0.229556
09285,3.596404,1.550258,9.530896,-0.649534,-1.580392,-0.209508
09286,3.450756,1.075109,9.819945,-0.597238,-1.572806,-0.189179
09287,3.698522,0.607313,10.240407,-0.462193,-1.581683,-0.180410
09288,4.085426,0.426702,10.354484,-0.278528,-1.574974,-0.163749
09289,4.236029,0.976135,10.537143,-0.148031,-1.554560,-0.147970
09290,4.221516,1.410488,10.392739,-0.167072,-1.503047,-0.143221
09291,4.350356,1.295815,9.844086,-0.244813,-1.452993,-0.141097
09292,4.314613,0.947383,9.521045,-0.244485,-1.421924,-0.114790
09293,4.375764,0.610088,9.464150,-0.187142,-1.425043,-0.083419
09294,4.655901,0.316268,9.490377,-0.045782,-1.442707,-0.058963
09295,4.916003,0.368702,9.668209,0.116975,-1.453095,-0.040886
09296,4.961611,0.931331,9.968027,0.214418,-1.446337,-0.030466
09297,5.073476,1.358018,10.073744,0.156192,-1.416049,-0.034092
09298,5.308571,1.159015,9.734315,0.021374,-1.353640,-0.034339
09299,5.343934,0.727156,9.346630,-0.022372,-1.310304,-0.012743
09300,5.457076,0.330031,8.989112,0.021464,-1.293353,0.040011
09301,5.479198,0.197948,8.725999,0.138482,-1.291725,0.106861
09302,5.559975,0.332403,8.967854,0.280727,-1.307521,0.154730
09303,5.871391,0.697403,9.148713,0.353375,-1.313605,0.193879
09304,6.026655,1.575233,9.441281,0.325323,-1.297169,0.217347
09305,6.190779,2.530460,9.580314,0.043143,-1.259062,0.211976
09306,6.361558,2.499516,8.931562,-0.464715,-1.167814,0.212593
09307,6.146894,1.526546,8.619876,-0.804305,-1.097432,0.212925
09308,6.134217,0.336783,8.265783,-0.894403,-1.109017,0.241330
09309,6.388242,-0.467541,8.340251,-0.732866,-1.136050,0.275264
09310,6.713124,-0.686761,8.355076,-0.481062,-1.166784,0.329732
09311,6.776664,-0.230696,8.626354,-0.231224,-1.164518,0.361887
09312,6.911238,0.521640,8.718019,-0.154263,-1.159849,0.350008
09313,7.102877,1.190614,8.379529,-0.297990,-1.134594,0.329687
09314,7.069215,1.167760,8.062611,-0.540698,-1.081093,0.305305
09315,6.934655,0.663553,7.770775,-0.732844,-1.080957,0.279463
09316,6.957839,0.090648,7.744066,-0.796350,-1.106004,0.278106
09317,6.860677,-0.153067,8.098079,-0.752651,-1.122345,0.291826
09318,7.021827,-0.261682,8.214171,-0.698694,-1.135032,0.287930
09319,7.436002,-0.157856,8.199890,-0.641946,-1.123942,0.282398
09320,7.710599,0.430394,7.975401,-0.675627,-1.100164,0.250438
09321,7.810986,1.107526,7.558330,-0.913133,-1.062023,0.209515
09322,7.711288,1.138918,6.911016,-1.298154,-1.014787,0.175653
09323,7.329474,0.342994,6.429320,-1.616151,-1.007750,0.163314
09324,6.741779,-0.987364,6.664909,-1.688626,-1.024532,0.167925
09325,6.704842,-2.244168,7.126517,-1.433128,-1.111625,0.168621
09326,7.319090,-2.730647,7.765865,-0.964236,-1.197626,0.160701
09327,7.984024,-2.018235,8.214916,-0.537735,-1.209913,0.148947
09328,8.323974,-0.647096,8.271845,-0.381498,-1.151916,0.116207
09329,8.440723,0.451005,8.136167,-0.541174,-1.047166,0.051648
09330,8.332451,1.032221,7.648648,-0.945350,-0.954393,-0.023685
09331,8.121831,0.889110,6.517254,-1.513859,-0.920621,-0.048407
09332,7.391430,-0.084246,5.985810,-1.932832,-0.916236,-0.030096
09333,6.796605,-1.459259,6.490209,-2.068063,-0.982753,-0.019558
09334,7.207413,-2.745806,7.124654,-1.867206,-1.092595,-0.002974
09335,8.018586,-3.472766,7.686080,-1.478313,-1.176241,0.021192
09336,8.801757,-3.477332,7.815080,-1.070812,-1.182379,0.046074
09337,8.986548,-2.776464,7.808304,-0.760983,-1.124123,0.044975
09338,8.979742,-1.984266,7.515555,-0.647848,-1.046597,0.001515
09339,8.988603,-1.231599,7.059590,-0.721254,-0.979206,-0.058670
09340,8.979358,-0.686262,6.496762,-0.981107,-0.920264,-0.105972
09341,8.614259,-0.490872,5.948349,-1.353117,-0.853005,-0.133452
09342,7.836741,-0.754456,5.613310,-1.702647,-0.827556,-0.140982
09343,7.165448,-1.522029,6.023946,-1.872062,-0.843152,-0.155356
09344,7.190828,-2.366016,6.422297,-1.827136,-0.909049,-0.187629
09345,7.745785,-2.725083,6.761085,-1.641086,-0.966246,-0.217691
09346,8.146369,-2.377869,7.069674,-1.464215,-0.950491,-0.263022
09347,8.241339,-1.811165,7.072962,-1.417573,-0.891421,-0.332591
09348,8.278098,-1.521528,6.707215,-1.491647,-0.826213,-0.422020
09349,8.273099,-1.436196,6.169086,-1.624319,-0.768213,-0.527713
09350,8.313686,-1.400328,5.522767,-1.802192,-0.732823,-0.618426
09351,8.206521,-1.475716,5.143870,-1.993146,-0.703903,-0.704652
09352,8.329031,-1.623581,4.992718,-2.148511,-0.647564,-0.793684
09353,8.558613,-1.842966,5.158202,-2.225809,-0.525006,-0.894313
09354,8.741358,-1.993814,5.652103,-2.178191,-0.422830,-1.004797
09355,8.716922,-1.753087,5.941030,-2.150855,-0.336729,-1.131464
09356,8.778686,-1.154743,5.891043,-2.180452,-0.315007,-1.258663
09357,9.053097,-0.431666,5.446577,-2.426177,-0.261337,-1.375399
09358,9.194084,0.012335,4.864100,-2.847112,-0.204340,-1.476583
09359,9.274234,-0.198485,4.178999,-3.340435,-0.154434,-1.577024
09360,9.227710,-0.854015,3.684154,-3.736919,-0.141461,-1.658137
09361,9.260945,-1.819501,3.263017,-3.986793,-0.167170,-1.702644
09362,9.241438,-2.797435,3.122935,-4.004091,-0.224144,-1.711163
09363,9.322267,-3.497173,3.164221,-3.844920,-0.313134,-1.674650
09364,9.443507,-3.962080,3.394748,-3.584908,-0.398465,-1.622694
09365,9.583221,-4.440418,3.595182,-3.221960,-0.460343,-1.561961
09366,9.719897,-4.780749,3.959572,-2.767899,-0.521222,-1.485834
09367,9.782946,-4.962578,4.312157,-2.255183,-0.562217,-1.399459
09368,9.878411,-4.821347,4.912137,-1.706245,-0.603643,-1.306584
09369,9.991017,-4.291678,5.360891,-1.248340,-0.613005,-1.222697
09370,10.016631,-3.553690,5.742981,-0.942262,-0.587774,-1.139149
09371,10.007709,-3.033299,5.668450,-0.830706,-0.521804,-1.078928
09372,9.991494,-3.034829,5.263176,-0.794132,-0.448113,-1.029673
09373,9.996282,-3.310633,4.698653,-0.739799,-0.358856,-0.969022
09374,9.886612,-3.521826,4.064993,-0.618204,-0.313977,-0.902431
09375,9.796520,-3.543723,3.712490,-0.446142,-0.291531,-0.833470
09376,9.874165,-3.355955,3.335922,-0.280741,-0.263346,-0.761166
09377,9.791287,-3.176139,3.247634,-0.142263,-0.223036,-0.683668
09378,9.729662,-2.986142,3.153437,-0.043050,-0.184799,-0.601288
09379,9.688090,-2.827496,3.087786,0.054151,-0.148974,-0.517312
09380,9.604122,-2.602274,3.242333,0.090375,-0.115791,-0.417581
09381,9.614309,-2.328797,3.320520,0.067841,-0.067412,-0.323685
09382,9.576221,-2.190082,3.392075,-0.024053,-0.028491,-0.228260
09383,9.631186,-2.128301,3.492874,-0.139166,0.005622,-0.141394
09384,9.675396,-2.179003,3.431724,-0.266313,0.062202,-0.064125
09385,9.584262,-2.375168,3.348290,-0.349700,0.108257,0.003226
09386,9.460367,-2.537650,3.295578,-0.391572,0.127186,0.067603
09387,9.393498,-2.651744,3.206460,-0.415762,0.132328,0.130497
09388,9.415212,-2.721027,3.177360,-0.417723,0.141699,0.179953
09389,9.322801,-2.836374,3.095520,-0.407575,0.153703,0.219138
09390,9.288222,-2.901571,3.060770,-0.369644,0.159695,0.248469
09391,9.302504,-2.955256,2.924543,-0.328249,0.156292,0.278262
09392,9.225196,-2.923963,2.836891,-0.277054,0.152283,0.305249
09393,9.258754,-2.893928,2.839985,-0.223384,0.151718,0.316956
09394,9.273386,-2.909104,2.754142,-0.171609,0.158703,0.324858
09395,9.253942,-2.867246,2.753715,-0.122987,0.154636,0.330086
09396,9.275765,-2.819733,2.711055,-0.062924,0.147954,0.336912
09397,9.285064,-2.760210,2.699119,-0.020235,0.137382,0.337238
09398,9.281731,-2.689240,2.717459,0.002959,0.134950,0.346842
09399,9.262752,-2.682701,2.673389,0.037719,0.130829,0.356828
09400,9.233606,-2.684129,2.687798,0.074068,0.118558,0.366299
09401,9.220041,-2.597681,2.655116,0.108480,0.099397,0.382421
09402,9.256394,-2.566248,2.664129,0.139058,0.087862,0.402904
09403,9.295304,-2.589299,2.575116,0.166840,0.094572,0.424227
09404,9.236153,-2.646178,2.556466,0.225256,0.076630,0.437278
09405,9.307498,-2.637057,2.529421,0.292350,0.054521,0.457133
09406,9.350694,-2.528848,2.550268,0.352579,0.044219,0.474781
09407,9.396631,-2.497561,2.582668,0.399661,0.038074,0.492117
09408,9.350633,-2.509890,2.552392,0.454357,0.031608,0.509368
09409,9.354386,-2.404606,2.615631,0.516802,0.012484,0.526796
09410,9.367699,-2.218884,2.686837,0.545194,0.001301,0.534815
09411,9.431875,-2.010789,2.705467,0.534664,-0.005618,0.550266
09412,9.386815,-1.874723,2.724641,0.497604,0.004702,0.557096
09413,9.373078,-1.820632,2.771352,0.459345,-0.002070,0.558318
09414,9.308485,-1.752624,2.807275,0.408092,-0.006310,0.559222
09415,9.335403,-1.759051,2.792711,0.356546,-0.000074,0.552112
09416,9.282906,-1.781337,2.812217,0.313947,0.002245,0.543894
09417,9.253051,-1.830585,2.853771,0.290003,-0.006209,0.531524
09418,9.209192,-1.828929,2.863949,0.273901,-0.015900,0.512303
09419,9.167117,-1.842843,2.902654,0.257034,-0.022774,0.487196
09420,9.142513,-1.922395,2.920386,0.259145,-0.020950,0.463242
09421,9.036443,-1.976523,2.913843,0.275867,-0.023698,0.436174
09422,8.978501,-2.006836,2.937439,0.316603,-0.043757,0.410555
09423,8.995356,-1.965747,2.997253,0.358715,-0.065830,0.381591
09424,8.999991,-2.000409,3.050317,0.402589,-0.081878,0.359428
09425,8.995751,-2.018470,3.050925,0.451389,-0.095419,0.331563
09426,8.980861,-2.016736,3.079974,0.518386,-0.113495,0.301162
09427,8.991616,-1.942411,3.165237,0.579511,-0.130716,0.269480
09428,9.038591,-1.910130,3.163890,0.622711,-0.141594,0.240118
09429,9.116114,-1.863912,3.147398,0.662706,-0.144605,0.206807
09430,9.135480,-1.833639,3.159948,0.695121,-0.152322,0.169901
09431,9.132026,-1.734617,3.167172,0.708112,-0.153164,0.135403
09432,9.150139,-1.643665,3.166882,0.698206,-0.152241,0.101262
09433,9.171706,-1.603678,3.177492,0.668637,-0.140354,0.072190
09434,9.184133,-1.567275,3.165837,0.631587,-0.140079,0.038292
09435,9.164579,-1.485647,3.156038,0.586930,-0.139378,0.010152
09436,9.199159,-1.473731,3.167329,0.513485,-0.133003,-0.017342
09437,9.227234,-1.520279,3.169797,0.448429,-0.120074,-0.041898
09438,9.228006,-1.613848,3.170842,0.381944,-0.101064,-0.066250
09439,9.145462,-1.646203,3.165431,0.341066,-0.097230,-0.084561
09440,9.195748,-1.727188,3.114778,0.299568,-0.090551,-0.106746
09441,9.165962,-1.799589,3.070660,0.262108,-0.083642,-0.128595
09442,9.203677,-1.823086,3.065403,0.241865,-0.087499,-0.143566
09443,9.249255,-1.800780,3.098433,0.211203,-0.089049,-0.165100
09444,9.277985,-1.818687,3.150818,0.170385,-0.085901,-0.179995
09445,9.265798,-1.823434,3.134331,0.119157,-0.080494,-0.201460
09446,9.216307,-1.868062,3.062989,0.080124,-0.083613,-0.216641
09447,9.171083,-1.954796,3.085753,0.048981,-0.080436,-0.231006
09448,9.168027,-2.064124,3.096636,0.031099,-0.077181,-0.240908
09449,9.132340,-2.140331,3.029120,0.033250,-0.076407,-0.245936
09450,9.123404,-2.157788,3.043238,0.046140,-0.077473,-0.247972
09451,9.145193,-2.179598,3.073006,0.060651,-0.078543,-0.242307
09452,9.173676,-2.167047,3.061066,0.064905,-0.081452,-0.234446
09453,9.208697,-2.109746,3.087443,0.064179,-0.082236,-0.227245
09454,9.236683,-2.098594,3.075416,0.056138,-0.075964,-0.215541
09455,9.262767,-2.064188,3.112283,0.038195,-0.070782,-0.202993
09456,9.262815,-2.079553,3.148334,0.019907,-0.066839,-0.191291
09457,9.287769,-2.059375,3.104915,-0.000360,-0.062880,-0.175821
09458,9.319292,-2.107345,3.107658,-0.024612,-0.054007,-0.162883
09459,9.343767,-2.079944,3.144471,-0.047892,-0.054150,-0.154057
09460,9.351743,-2.106731,3.121705,-0.068752,-0.040446,-0.135840
09461,9.385666,-2.198517,3.107890,-0.081347,-0.031340,-0.126199
09462,9.319895,-2.202755,3.083416,-0.086003,-0.021083,-0.113660
09463,9.297702,-2.244002,3.078818,-0.081884,-0.018647,-0.096628
09464,9.317272,-2.307645,3.062494,-0.068543,-0.012211,-0.090027
09465,9.286864,-2.370818,3.069421,-0.041418,-0.009942,-0.078282
09466,9.269866,-2.368258,3.105576,-0.009160,-0.009329,-0.063732
09467,9.244852,-2.299394,3.096376,0.014961,-0.016815,-0.058667
09468,9.235181,-2.276206,3.123003,0.025972,-0.011575,-0.049148
09469,9.218888,-2.211523,3.055613,0.028579,-0.009140,-0.045534
09470,9.193533,-2.230910,3.103300,0.033931,-0.009573,-0.036166
09471,9.202245,-2.205875,3.092766,0.027245,-0.012393,-0.034403
