// Start Time: Unknown
// Update Rate: 100.0Hz
// Filter Profile: human (46.1)
// Firmware Version: 4.3.5
PacketCounter,Acc_X,Acc_Y,Acc_Z,Gyr_X,Gyr_Y,Gyr_Z
62550,9.660754,-0.283614,1.933499,0.003434,-0.000021,-0.011716
62551,9.651939,-0.330548,1.898851,0.008812,-0.003309,-0.008561
62552,9.646181,-0.329663,1.953076,0.018176,0.001329,-0.018522
62553,9.660196,-0.303628,1.932781,0.009646,-0.004904,-0.011502
62554,9.642589,-0.398521,1.863447,0.013633,-0.003392,-0.008738
62555,9.686027,-0.325700,1.890579,0.022217,-0.005126,-0.010998
62556,9.665607,-0.323361,1.877055,0.016385,-0.003427,-0.012702
62557,9.652571,-0.321591,1.897179,0.018659,-0.006639,-0.015226
62558,9.682850,-0.248134,1.944650,0.008005,-0.004859,-0.016752
62559,9.647815,-0.294452,1.950781,0.000837,-0.006333,-0.014086
62560,9.653847,-0.292241,1.895591,0.006422,-0.012780,-0.017240
62561,9.648334,-0.291001,1.948732,0.005410,-0.011166,-0.019122
62562,9.653673,-0.312826,1.893032,0.005410,-0.011165,-0.019122
62563,9.640813,-0.310668,1.912383,0.012078,-0.014453,-0.020360
62564,9.647798,-0.333654,1.944547,0.011695,-0.011270,-0.018872
62565,9.639232,-0.380058,1.909224,0.003742,-0.007973,-0.013239
62566,9.665758,-0.378997,1.867271,0.012076,-0.009713,-0.009216
62567,9.654253,-0.328956,1.887490,0.021245,-0.013046,-0.008133
62568,9.676456,-0.279645,1.900280,0.017326,-0.009794,-0.010860
62569,9.658552,-0.254408,1.974184,0.012390,-0.017662,-0.010735
62570,9.672042,-0.253300,1.952084,-0.004529,-0.014202,-0.012492
62571,9.691495,-0.301843,1.963323,-0.000519,-0.011094,-0.009721
62572,9.652013,-0.250446,1.936567,0.003244,-0.012739,-0.011806
62573,9.705132,-0.299935,1.940597,-0.002794,-0.007884,-0.007197
62574,9.737613,-0.348809,1.931869,0.002500,-0.004785,-0.008822
62575,9.695828,-0.371196,1.905198,0.006330,0.003078,0.000267
62576,9.684098,-0.321892,1.926314,0.021516,-0.006694,-0.003273
62577,9.692295,-0.297228,1.960074,0.013674,-0.000195,-0.008726
62578,9.677503,-0.295086,1.892437,0.007503,-0.004878,-0.004181
62579,9.663764,-0.318821,1.912393,0.001689,-0.001602,-0.005870
62580,9.649996,-0.342612,1.932501,0.002726,-0.001623,-0.003978
62581,9.628784,-0.365670,1.918993,0.017212,-0.000260,-0.004514
62582,9.663822,-0.316685,1.912455,0.029240,0.004327,-0.007350
62583,9.726115,-0.293458,1.952753,0.032373,0.005856,-0.001662
62584,9.727284,-0.243558,1.954403,0.034194,0.013791,-0.007472
62585,9.735110,-0.218410,1.989906,0.026465,0.015504,-0.008136
62586,9.735489,-0.192701,1.991755,0.011392,0.015743,-0.010950
62587,9.692737,-0.239104,1.966443,-0.003928,0.015973,-0.007478
62588,9.696204,-0.311287,1.912749,-0.015057,0.014555,-0.007555
62589,9.675375,-0.310209,1.901039,-0.013999,0.016126,-0.005652
62590,9.635680,-0.309385,1.963945,-0.011336,0.009734,-0.009656
62591,9.670502,-0.260717,1.958271,-0.005414,0.014410,-0.007914
62592,9.615314,-0.283023,1.953595,-0.001450,0.014344,-0.005164
62593,9.608934,-0.233069,1.922075,0.000507,0.019087,-0.006170
62594,9.650975,-0.184693,1.950922,0.016280,0.020449,-0.011089
62595,9.699743,-0.160532,2.013134,0.016918,0.017276,-0.018860
62596,9.714507,-0.085301,1.995307,0.009210,0.020575,-0.019522
62597,9.714769,-0.058754,1.997531,-0.005452,0.019214,-0.023823
62598,9.734332,-0.081645,2.012138,-0.023491,0.016310,-0.027529
62599,9.745313,-0.153009,1.992343,-0.050507,0.018301,-0.027498
62600,9.728447,-0.223498,1.925639,-0.059116,0.018427,-0.025252
62601,9.724447,-0.369030,1.925311,-0.067551,0.018537,-0.018185
62602,9.666563,-0.439148,1.832200,-0.062065,0.023225,-0.014968
62603,9.679468,-0.438773,1.813349,-0.049574,0.016684,-0.014503
62604,9.641431,-0.364909,1.877396,-0.039950,0.014958,-0.014862
62605,9.631668,-0.511796,1.930708,-0.060508,0.016832,-0.009763
62606,9.584149,-0.705193,1.814216,-0.073032,0.013774,0.005629
62607,9.572237,-0.826990,1.690713,-0.033667,0.000417,0.017142
62608,9.566715,-0.805331,1.745633,0.017730,0.005995,0.021150
62609,9.604501,-0.636860,1.741748,0.043845,0.000820,0.024035
62610,9.582159,-0.467423,1.786366,0.072015,0.008347,0.025992
62611,9.662432,-0.301394,1.897108,0.069047,0.005222,0.025106
62612,9.650256,-0.253583,1.919295,0.068076,0.010024,0.023248
62613,9.716100,-0.135609,2.049742,0.062460,0.008552,0.015228
62614,9.758750,-0.063529,2.078560,0.053460,0.018275,0.003064
62615,9.764067,0.107474,2.171024,0.031269,0.026611,-0.012991
62616,9.718271,0.183986,2.202837,-0.000113,0.036673,-0.030163
62617,9.722970,0.163279,2.150925,-0.017057,0.017857,-0.038390
62618,9.734025,0.043970,2.218265,-0.012222,0.011458,-0.049710
62619,9.776610,-0.172916,2.276626,0.006615,0.009598,-0.048933
62620,9.790462,-0.437285,2.287416,0.041324,0.010668,-0.037100
62621,9.790991,-0.601520,2.144785,0.115116,0.017586,-0.028037
62622,9.858050,-0.547142,2.046249,0.188684,0.034130,-0.028559
62623,9.822001,-0.245354,1.939551,0.203787,0.051498,-0.030436
62624,9.778489,0.056378,1.798851,0.160241,0.053698,-0.033758
62625,9.793487,0.233395,1.696970,0.072175,0.062765,-0.042315
62626,9.696719,0.314322,1.494890,-0.057735,0.065925,-0.044200
62627,9.600796,0.418520,1.292260,-0.179071,0.040334,-0.054717
62628,9.592614,0.448038,1.173965,-0.245986,0.009388,-0.082559
62629,9.652964,0.378875,1.302567,-0.274000,-0.002815,-0.122733
62630,9.532847,0.120673,1.341519,-0.326210,-0.000396,-0.139807
62631,9.205315,-0.351655,1.240098,-0.308422,-0.040260,-0.131556
62632,9.350915,-0.789879,1.439387,-0.192074,-0.084587,-0.106916
62633,9.708606,-1.046263,2.037865,-0.054350,-0.060918,-0.065937
62634,9.851530,-1.129673,2.620465,0.070636,-0.002134,-0.023685
62635,9.910981,-1.112201,3.070763,0.150283,0.052380,0.021016
62636,9.999235,-0.852654,3.578623,0.186438,0.104350,0.051215
62637,9.991245,-0.419662,3.973050,0.119051,0.157578,0.060231
62638,9.886475,-0.028258,3.755023,-0.079230,0.204328,0.054063
62639,9.720710,0.225099,2.826919,-0.281433,0.217893,0.038367
62640,9.731464,0.284390,1.806446,-0.418414,0.199172,0.016288
62641,9.630700,0.306768,0.735200,-0.488112,0.149618,-0.008334
62642,9.702943,0.332808,-0.113359,-0.418110,0.052508,-0.064899
62643,10.133027,0.577453,0.007631,-0.256213,0.026356,-0.153489
62644,10.084833,0.583522,0.392197,-0.154384,0.059893,-0.230606
62645,9.728484,0.358518,0.653351,-0.087250,0.050484,-0.279025
62646,9.421310,0.198142,1.150534,-0.023562,0.005509,-0.290850
62647,9.495550,0.209857,2.139909,-0.009880,0.006668,-0.267551
62648,9.710849,0.189081,3.226255,-0.065421,0.071664,-0.219347
62649,9.841509,0.126037,3.912208,-0.202385,0.154161,-0.144407
62650,9.974705,0.005160,4.461605,-0.342841,0.220680,-0.069245
62651,10.049790,0.022324,4.840662,-0.516356,0.272087,-0.017270
62652,9.949006,0.027274,4.694845,-0.713592,0.312192,-0.003246
62653,9.890047,-0.149845,3.829089,-0.883404,0.334160,-0.011780
62654,9.748583,-0.233319,2.490812,-0.960098,0.339939,-0.022528
62655,9.594249,-0.051744,1.242724,-0.885307,0.308817,-0.069121
62656,9.630766,0.080385,0.320907,-0.656299,0.207139,-0.124871
62657,9.939931,0.117286,0.107457,-0.328808,0.109354,-0.197672
62658,10.018130,0.025723,0.550222,-0.061125,0.079016,-0.260508
62659,9.773308,-0.155508,0.933084,0.149839,0.061540,-0.305315
62660,9.528917,-0.028535,1.465500,0.282762,0.046223,-0.305725
62661,9.537796,0.194760,2.065252,0.268878,0.041518,-0.267079
62662,9.669205,0.530733,2.494589,0.152024,0.065521,-0.216390
62663,9.720162,0.765625,2.862997,-0.066179,0.110906,-0.174390
62664,9.722092,0.883848,3.042833,-0.320264,0.137911,-0.151116
62665,9.713777,0.874709,3.149592,-0.625724,0.170063,-0.127994
62666,9.605157,0.508194,2.999242,-0.933764,0.202758,-0.102581
62667,9.553560,-0.154508,2.576764,-1.149950,0.230218,-0.059433
62668,9.382383,-0.792886,1.935038,-1.214382,0.240044,-0.020064
62669,9.300640,-1.340245,1.627035,-1.127012,0.233830,0.001314
62670,9.311110,-1.732206,1.489642,-0.979722,0.205235,0.026036
62671,9.266381,-1.859387,1.411307,-0.732724,0.170505,0.021557
62672,9.339748,-1.726448,1.620034,-0.475321,0.157380,-0.003429
62673,9.235186,-1.387669,1.770100,-0.309754,0.153967,-0.002711
62674,9.040033,-1.169795,1.739077,-0.232475,0.109975,0.030071
62675,9.027929,-1.135669,1.930100,-0.184657,0.063631,0.073919
62676,9.306467,-1.149656,2.421250,-0.158296,0.061903,0.125973
62677,9.582150,-1.119836,3.047929,-0.156826,0.110843,0.192150
62678,9.689159,-1.137530,3.734559,-0.174950,0.173803,0.249948
62679,9.745208,-1.318271,4.301038,-0.245840,0.233857,0.315862
62680,9.758040,-1.611755,4.451310,-0.330643,0.276391,0.402982
62681,9.784489,-1.947300,4.489480,-0.399308,0.340168,0.505545
62682,9.726833,-2.288461,4.224650,-0.450834,0.432063,0.602036
62683,9.339604,-2.501601,3.641988,-0.467870,0.494036,0.684847
62684,9.060109,-2.595556,3.101916,-0.462026,0.496417,0.742332
62685,8.898758,-2.672267,2.492902,-0.409858,0.441639,0.785994
62686,8.994967,-2.791750,2.106920,-0.222687,0.368599,0.788962
62687,9.205328,-2.729139,1.941957,0.004496,0.323881,0.755544
62688,9.232543,-2.539386,1.808841,0.124877,0.321523,0.731310
62689,9.013964,-2.483375,1.283201,0.190611,0.290086,0.746956
62690,8.922748,-2.546599,1.320608,0.319398,0.246540,0.766324
62691,9.201171,-2.369381,2.064200,0.428463,0.254540,0.803248
62692,9.441099,-1.968573,3.072654,0.434415,0.324265,0.860727
62693,9.540041,-1.534125,4.068379,0.329910,0.402523,0.927542
62694,9.640527,-1.263200,4.825253,0.114143,0.480469,1.003771
62695,9.644988,-1.393586,5.007427,-0.171338,0.560430,1.078296
62696,9.529901,-1.681012,4.785357,-0.437610,0.646416,1.149952
62697,9.247758,-2.178734,4.000410,-0.654256,0.686154,1.226369
62698,8.932708,-2.812123,2.927741,-0.728880,0.644945,1.292741
62699,8.775590,-3.407984,2.119988,-0.654419,0.551115,1.320118
62700,8.642408,-3.853372,1.470699,-0.472499,0.427778,1.307881
62701,8.652505,-4.071671,1.002189,-0.246979,0.290808,1.272259
62702,8.644363,-4.262734,0.784515,-0.026589,0.174581,1.246656
62703,8.670325,-4.301955,0.778860,0.170999,0.099104,1.224033
62704,8.649291,-4.327132,1.203337,0.322657,0.041640,1.226449
62705,8.775766,-4.179156,2.217338,0.473764,0.017592,1.241529
62706,9.109001,-3.950414,3.498767,0.515601,0.050226,1.288492
62707,9.090944,-3.599539,4.577920,0.442889,0.133408,1.370780
62708,9.079829,-3.432405,5.531482,0.310698,0.218266,1.465535
62709,9.103159,-3.473893,6.023266,0.094999,0.327059,1.562424
62710,8.901922,-3.756507,5.636898,-0.153684,0.419332,1.659746
62711,8.669695,-4.129709,4.681570,-0.323283,0.439744,1.732561
62712,8.439716,-4.580826,3.488012,-0.383777,0.393455,1.753755
62713,8.310923,-4.986419,2.349625,-0.327332,0.317958,1.721730
62714,8.221858,-5.317478,1.238896,-0.110039,0.169427,1.663257
62715,8.138501,-5.338244,0.440273,0.192769,-0.012861,1.563805
62716,8.187527,-5.151183,0.188757,0.459257,-0.141636,1.429374
62717,8.234511,-5.248694,0.283266,0.644787,-0.228564,1.343738
62718,8.175425,-5.301853,0.646922,0.823588,-0.294478,1.309059
62719,8.234075,-5.283251,1.632006,0.973782,-0.332532,1.309351
62720,8.432682,-5.174012,2.904995,1.062224,-0.307882,1.335624
62721,8.434329,-4.746770,4.111908,1.060815,-0.229527,1.369657
62722,8.484564,-4.226570,5.256060,0.935911,-0.154518,1.420238
62723,8.591141,-3.995236,6.035271,0.663820,-0.048121,1.483380
62724,8.513785,-4.052155,6.165821,0.278700,0.084034,1.551218
62725,8.134109,-4.487331,5.332023,-0.105438,0.160907,1.616920
62726,7.611532,-4.835663,3.878066,-0.346373,0.149072,1.633827
62727,7.100604,-5.069399,2.320007,-0.420083,0.083383,1.564757
62728,6.774554,-5.237068,0.771750,-0.282915,-0.085457,1.445023
62729,6.786294,-5.447272,0.182207,0.057149,-0.311918,1.288282
62730,7.334297,-5.791738,0.418547,0.304926,-0.464040,1.164742
62731,7.621728,-6.256642,0.605501,0.485952,-0.509798,1.113932
62732,7.485357,-6.575349,0.882317,0.705329,-0.527739,1.092343
62733,7.376197,-6.885536,1.614379,0.926529,-0.546239,1.078776
62734,7.404474,-6.932535,2.712543,1.119714,-0.561182,1.081360
62735,7.525742,-6.662652,3.922798,1.235857,-0.540627,1.085605
62736,7.617323,-6.130039,4.697012,1.208212,-0.473554,1.113630
62737,7.257297,-5.544346,4.830217,1.001442,-0.435308,1.173615
62738,6.911802,-5.211877,4.598586,0.729426,-0.429550,1.215395
62739,6.744549,-5.421629,4.241593,0.481141,-0.426392,1.239410
62740,6.700847,-5.972926,3.933098,0.294003,-0.411599,1.244338
62741,6.557809,-6.497483,3.670917,0.184505,-0.403728,1.233822
62742,6.429585,-7.041106,3.373950,0.185353,-0.395692,1.186978
62743,6.177705,-7.419325,3.140896,0.289677,-0.367702,1.125993
62744,5.875787,-7.655661,3.012558,0.422479,-0.346856,1.087944
62745,5.470175,-7.703027,2.470365,0.548527,-0.366561,1.075375
62746,5.215241,-7.575286,1.671295,0.729772,-0.431577,1.062365
62747,5.234581,-7.411692,0.953305,0.913858,-0.556499,1.049649
62748,5.539204,-7.336868,0.427821,1.100126,-0.711228,1.033468
62749,6.063294,-7.324705,0.366609,1.322408,-0.879887,1.008285
62750,6.671574,-7.289494,0.748690,1.528673,-1.006505,0.987899
62751,7.007751,-7.021071,1.346192,1.662725,-1.073659,0.979069
62752,7.221346,-6.681383,2.104153,1.694652,-1.091217,0.961018
62753,7.249934,-6.401693,2.702567,1.583078,-1.035892,0.942500
62754,7.096851,-6.129092,3.144526,1.449829,-0.959340,0.935902
62755,7.038764,-5.766134,3.736896,1.280607,-0.898289,0.956598
62756,6.918237,-5.541475,4.074050,1.088544,-0.843495,0.981252
62757,6.690877,-5.356995,4.119468,0.901889,-0.786116,0.970403
62758,6.431190,-5.116451,4.051538,0.757024,-0.730232,0.914045
62759,6.361039,-4.844701,4.202252,0.654023,-0.686769,0.827681
62760,6.629335,-4.608884,4.386021,0.535991,-0.636170,0.734497
62761,6.827752,-4.444552,4.405032,0.400613,-0.562158,0.687139
62762,6.702649,-4.424997,4.196095,0.199462,-0.510078,0.686060
62763,6.461857,-4.867178,3.603939,0.077215,-0.524273,0.692925
62764,6.451525,-5.295693,3.010796,0.073512,-0.546110,0.670609
62765,6.278235,-5.424241,2.453853,0.213207,-0.594938,0.587854
62766,5.993288,-5.499626,1.841939,0.357872,-0.719212,0.469667
62767,5.996693,-6.004233,0.969966,0.568160,-0.902121,0.345006
62768,6.530161,-6.570879,1.288138,0.947575,-0.985929,0.233373
62769,7.197002,-6.499365,2.837769,1.246100,-0.857513,0.163221
62770,7.243006,-6.110343,4.388668,1.450064,-0.620452,0.149903
62771,6.995035,-5.416584,5.693090,1.543841,-0.468260,0.182794
62772,7.102614,-4.503816,6.753411,1.478391,-0.390795,0.236480
62773,7.532230,-3.828510,7.902543,1.235192,-0.326253,0.306220
62774,7.676277,-3.775341,8.017192,0.791329,-0.279523,0.359270
62775,7.202445,-3.868469,6.463858,0.423423,-0.289926,0.286448
62776,6.782633,-3.987742,4.887551,0.148861,-0.329788,0.162195
62777,6.245075,-4.714486,2.742075,-0.089204,-0.471666,0.079188
62778,6.284955,-5.215050,1.511803,0.038776,-0.593262,-0.032882
62779,6.737786,-5.116482,1.249725,0.275295,-0.529710,-0.184483
62780,6.338449,-5.111218,0.812070,0.585597,-0.497390,-0.307422
62781,6.637224,-4.618006,2.224517,0.885280,-0.502240,-0.422787
62782,6.950617,-4.207023,4.534739,0.960316,-0.376942,-0.474134
62783,6.823045,-4.318932,6.506512,0.852537,-0.300023,-0.426128
62784,6.933586,-4.680278,7.531232,0.586030,-0.281196,-0.307292
62785,7.205306,-5.126140,7.694807,0.341967,-0.228291,-0.178687
62786,7.573904,-5.559863,7.851252,0.143539,-0.212593,-0.067250
62787,7.876111,-5.908931,7.554657,-0.053534,-0.203154,-0.019114
62788,7.706378,-6.633843,6.328106,-0.165312,-0.216357,-0.045604
62789,7.298952,-7.555130,4.439110,-0.111401,-0.246417,-0.102583
62790,6.981452,-7.887968,2.811004,0.135626,-0.249495,-0.182085
62791,6.696024,-7.465701,1.662129,0.448879,-0.221798,-0.252736
62792,6.719316,-6.189013,1.174238,0.803930,-0.259471,-0.310815
62793,7.194251,-4.706930,1.934266,0.988633,-0.249396,-0.380678
62794,7.436546,-3.565797,3.419530,0.948561,-0.201189,-0.430977
62795,7.176182,-2.731775,5.097741,0.677799,-0.148027,-0.444282
62796,6.962825,-2.714165,6.520546,0.283744,-0.171468,-0.372695
62797,7.365836,-3.547413,7.368266,-0.148412,-0.200752,-0.237480
62798,7.604967,-4.765484,7.537920,-0.425259,-0.127875,-0.123601
62799,7.795091,-5.724817,7.514312,-0.519558,-0.080462,-0.053439
62800,7.786624,-6.411696,6.778618,-0.567130,-0.043945,-0.028038
62801,7.280824,-6.998507,4.998524,-0.501680,-0.027580,-0.075493
62802,7.028549,-7.245657,3.389441,-0.268142,-0.046961,-0.152313
62803,6.957995,-7.137367,2.108374,0.020452,-0.051745,-0.236364
62804,7.212547,-6.480193,1.537371,0.318574,-0.090253,-0.279358
62805,7.577627,-5.578445,1.961309,0.596950,-0.071404,-0.322961
62806,7.496902,-4.502166,3.345714,0.696604,-0.019131,-0.387294
62807,7.060187,-3.570331,4.894279,0.578952,0.004672,-0.419239
62808,6.932600,-3.172827,6.532535,0.325621,-0.005566,-0.383164
62809,7.366921,-3.320482,7.699052,-0.093584,0.055029,-0.271960
62810,7.352761,-4.203934,7.579881,-0.494309,0.152682,-0.133444
62811,7.698175,-5.133060,7.348041,-0.752791,0.197074,-0.025722
62812,7.944949,-5.998031,6.489824,-0.942523,0.246712,0.030221
62813,7.678222,-6.786831,4.825827,-0.993224,0.257323,0.015296
62814,7.259118,-7.535786,3.229638,-0.792602,0.194349,-0.052685
62815,7.134809,-7.787679,2.505915,-0.389523,0.176538,-0.188148
62816,7.105383,-6.907328,2.355523,0.029060,0.190512,-0.310869
62817,7.167191,-5.786333,2.565482,0.349683,0.187765,-0.393777
62818,7.356905,-4.633838,3.398361,0.556079,0.220337,-0.453842
62819,7.304412,-3.746680,4.585213,0.581231,0.293360,-0.492387
62820,7.154086,-3.397128,5.911611,0.429355,0.323229,-0.456508
62821,7.283117,-4.029413,7.076616,0.091500,0.332063,-0.332265
62822,7.436663,-5.176211,7.118530,-0.249348,0.388402,-0.185317
62823,7.366775,-5.786052,6.656128,-0.378797,0.463015,-0.091214
62824,7.389015,-5.455498,5.926815,-0.421865,0.474198,-0.094561
62825,7.568189,-4.827430,4.753262,-0.493742,0.423735,-0.157485
62826,7.912298,-4.651412,3.626831,-0.488197,0.376448,-0.263626
62827,7.967080,-4.680230,3.106162,-0.349376,0.438134,-0.426302
62828,7.624823,-4.594422,2.778871,-0.155479,0.469785,-0.594157
62829,7.263873,-4.405470,2.785890,0.087955,0.441203,-0.723276
62830,7.137421,-4.105883,3.477759,0.324482,0.427110,-0.828406
62831,7.070213,-3.582211,4.499117,0.443988,0.456652,-0.861620
62832,7.180964,-3.273650,5.504201,0.412019,0.495896,-0.796201
62833,7.357230,-3.419468,6.699941,0.226630,0.547099,-0.642739
62834,7.563192,-3.927915,6.950416,-0.121606,0.616448,-0.473859
62835,7.557495,-4.610219,6.463895,-0.405496,0.671645,-0.356351
62836,7.448086,-5.081981,5.646698,-0.604190,0.656625,-0.327693
62837,7.371169,-5.252100,4.455233,-0.763833,0.579850,-0.364604
62838,7.436577,-5.234584,3.086956,-0.886943,0.486610,-0.440859
62839,7.540278,-5.261553,2.185568,-0.882043,0.446596,-0.527929
62840,7.721526,-5.245086,2.017011,-0.746255,0.453224,-0.652194
62841,7.740448,-5.100359,2.804303,-0.555317,0.510996,-0.780730
62842,7.468072,-5.106618,4.054311,-0.463437,0.569108,-0.836484
62843,7.235352,-5.316933,5.225355,-0.526952,0.580596,-0.762415
62844,7.084289,-5.897872,5.484507,-0.641257,0.584752,-0.580271
62845,7.158478,-6.267933,5.421270,-0.590754,0.572271,-0.410964
62846,7.426932,-5.914372,5.515294,-0.448676,0.571652,-0.358891
62847,7.966265,-5.127942,5.927624,-0.302327,0.574200,-0.451386
62848,8.445887,-4.132859,6.150993,-0.237446,0.584556,-0.597555
62849,8.288364,-3.231278,6.015120,-0.285938,0.586198,-0.756483
62850,7.714841,-2.897283,4.931049,-0.469097,0.541978,-0.850297
62851,6.995335,-3.314568,3.489370,-0.541207,0.460437,-0.900417
62852,6.380413,-3.965687,2.138421,-0.521821,0.395585,-0.921769
62853,6.004758,-4.593018,1.316295,-0.349486,0.304189,-0.935329
62854,6.155609,-4.994705,1.423997,-0.142470,0.206809,-0.938991
62855,6.442843,-5.341059,2.054266,0.019692,0.160515,-0.919468
62856,6.880971,-5.480273,3.496069,0.187064,0.152031,-0.902006
62857,7.271032,-5.252299,5.094454,0.220653,0.199460,-0.860250
62858,7.916715,-4.450289,6.653556,0.187903,0.263988,-0.799990
62859,8.541427,-3.526650,7.690257,-0.045439,0.390229,-0.731041
62860,8.117338,-2.824961,6.951845,-0.622788,0.486820,-0.631337
62861,7.197065,-2.713412,4.494470,-1.142638,0.417608,-0.552408
62862,6.780208,-3.260599,2.381405,-1.363861,0.278609,-0.539414
62863,6.871055,-4.509939,1.597728,-1.373324,0.185159,-0.593397
62864,6.919461,-5.654927,1.535516,-1.241864,0.139869,-0.665978
62865,6.874258,-6.014900,2.088935,-0.961131,0.091489,-0.743574
62866,6.721005,-5.677566,2.794082,-0.663735,0.037240,-0.809538
62867,6.763161,-4.954453,3.636601,-0.445749,0.008897,-0.868757
62868,6.889378,-4.243679,4.199655,-0.440183,0.031710,-0.899285
62869,6.929540,-4.096667,4.342620,-0.497663,0.063178,-0.902478
62870,7.199801,-4.435977,5.091031,-0.388165,0.073494,-0.899788
62871,7.750801,-4.813123,6.506575,-0.277563,0.109666,-0.889134
62872,8.475401,-4.820722,7.800071,-0.289994,0.208775,-0.853971
62873,8.766474,-4.377633,8.308360,-0.423523,0.351155,-0.798417
62874,8.392597,-3.851544,7.100781,-0.771511,0.429222,-0.741887
62875,7.559006,-3.535006,4.334040,-1.062172,0.405439,-0.739019
62876,7.046135,-3.583564,2.297065,-1.060812,0.321419,-0.809934
62877,7.056028,-4.358733,1.624898,-0.913179,0.206951,-0.878124
62878,7.149109,-5.142097,1.642475,-0.591076,0.091212,-0.959401
62879,7.548244,-5.065875,2.412143,-0.306433,0.045975,-1.032173
62880,7.790115,-4.762535,2.465140,-0.315587,0.032428,-1.014177
62881,7.845923,-4.633411,1.927596,-0.315058,0.006222,-0.967644
62882,8.070537,-4.591550,2.086051,-0.218829,-0.022655,-0.971504
62883,8.662388,-4.365109,3.234425,-0.119605,-0.029379,-1.004443
62884,9.147879,-3.811197,5.140199,-0.085614,0.008466,-1.050634
62885,9.367687,-3.203920,7.481353,-0.205756,0.112508,-1.098630
62886,9.205641,-2.814249,8.613605,-0.638700,0.227840,-1.062719
62887,8.840875,-2.719855,7.937588,-1.069062,0.272742,-0.996773
62888,8.821173,-2.956480,6.062988,-1.332168,0.281307,-0.917172
62889,8.781415,-3.510396,3.607613,-1.454007,0.247326,-0.837820
62890,8.669672,-4.426643,1.698949,-1.240198,0.146694,-0.840376
62891,8.507064,-5.234875,1.101135,-0.785910,0.016275,-0.956300
62892,8.432771,-5.191443,1.318335,-0.262283,-0.097270,-1.148470
62893,8.162408,-4.247065,1.525859,0.110170,-0.212859,-1.322239
62894,7.831153,-3.008294,1.511844,0.317794,-0.300828,-1.468094
62895,7.530019,-2.035591,1.911919,0.376573,-0.294809,-1.583913
62896,7.620018,-1.497962,2.909540,0.276130,-0.260279,-1.621357
62897,8.025837,-1.270976,4.324913,0.094061,-0.242267,-1.583332
62898,8.771452,-1.149412,6.075794,-0.149003,-0.154289,-1.504030
62899,9.149926,-1.153750,7.197676,-0.616559,0.003609,-1.383075
62900,8.973824,-1.562462,6.874209,-1.094100,0.112266,-1.270464
62901,8.706115,-2.294976,5.865192,-1.380103,0.148840,-1.202313
62902,8.647163,-3.326911,4.657328,-1.422079,0.120020,-1.191614
62903,8.697395,-4.190678,3.748464,-1.225699,0.097132,-1.243342
62904,8.256412,-4.652152,2.712609,-0.897679,0.075114,-1.325143
62905,7.839317,-4.269522,2.185824,-0.465840,-0.017022,-1.394327
62906,7.696458,-3.646926,1.814640,-0.204391,-0.150499,-1.420787
62907,7.870797,-3.368109,1.400977,-0.041260,-0.270333,-1.430109
62908,8.629358,-3.336504,1.659764,0.096560,-0.338425,-1.396839
62909,9.350188,-3.346026,2.565661,0.190464,-0.363505,-1.346014
62910,9.874291,-3.141010,4.257886,0.263301,-0.325601,-1.318653
62911,10.071236,-2.699764,6.094368,0.200132,-0.228800,-1.288438
62912,9.772110,-2.048730,7.184237,-0.034487,-0.120108,-1.236521
62913,9.111820,-1.537368,7.072472,-0.376384,-0.055300,-1.175886
62914,8.518151,-1.768929,5.806040,-0.636029,-0.025701,-1.109883
62915,8.316287,-2.222629,4.444312,-0.679887,-0.015871,-1.039854
62916,8.367985,-2.907403,3.583428,-0.536269,-0.017549,-0.979986
62917,8.344265,-3.273163,3.085567,-0.267383,0.035423,-0.967930
62918,8.386407,-3.006070,2.932654,0.052641,0.008942,-0.962579
62919,8.578829,-2.157979,2.717351,0.362558,-0.068885,-0.987903
62920,8.522570,-1.087214,2.371096,0.431233,-0.125648,-1.039200
62921,8.467838,-0.420301,1.881816,0.371600,-0.196023,-1.075494
62922,8.636871,-0.176793,1.657358,0.281096,-0.283324,-1.071118
62923,9.033182,-0.031140,2.445017,0.255957,-0.337301,-1.061591
62924,9.771972,0.037041,4.218651,0.186012,-0.268962,-1.037840
62925,10.190553,0.177151,5.704516,-0.079862,-0.114790,-0.956489
62926,10.126568,-0.012266,6.121230,-0.420227,-0.009953,-0.861147
62927,9.943213,-0.486633,5.628795,-0.683907,0.046879,-0.782201
62928,9.578785,-1.105529,4.661709,-0.816719,0.060521,-0.744874
62929,9.367780,-1.784564,3.712411,-0.708908,0.025250,-0.736484
62930,8.993048,-2.115681,3.143182,-0.451000,0.013510,-0.772126
62931,8.743591,-2.129691,2.948113,-0.202331,-0.016458,-0.785061
62932,8.792279,-1.830465,2.887212,0.092675,-0.084745,-0.760106
62933,8.951680,-1.037601,3.171615,0.320127,-0.097147,-0.750994
62934,8.723812,-0.148003,2.798815,0.307688,-0.097840,-0.749776
62935,8.515887,0.316136,2.418108,0.215699,-0.166219,-0.728333
62936,8.530865,0.203906,2.046357,0.148658,-0.265685,-0.707352
62937,8.881790,-0.060259,2.642314,0.217103,-0.308920,-0.680882
62938,9.389440,-0.097216,4.046505,0.257191,-0.261150,-0.643352
62939,9.540324,0.095193,5.223234,0.161197,-0.159489,-0.576389
62940,9.351683,0.254263,5.538838,-0.059768,-0.074430,-0.494610
62941,8.996469,0.375331,4.955748,-0.298154,-0.056525,-0.422614
62942,8.829280,0.306165,4.054281,-0.394168,-0.082912,-0.420137
62943,8.983239,0.083096,3.457484,-0.286650,-0.094194,-0.458159
62944,8.882151,-0.286713,3.155602,-0.184601,-0.075749,-0.478985
62945,8.711902,-0.523760,2.539010,-0.051357,-0.113824,-0.462768
62946,8.826854,-0.101852,2.259718,0.215076,-0.199733,-0.448194
62947,8.822359,0.571195,2.006434,0.270862,-0.256732,-0.417928
62948,8.421558,1.079506,1.246254,0.173117,-0.333029,-0.377813
62949,7.845227,1.452891,0.801232,0.020972,-0.430583,-0.313738
62950,7.811969,1.470532,0.938336,-0.056122,-0.532190,-0.241071
62951,8.491090,1.275276,2.360021,-0.063756,-0.540507,-0.159053
62952,9.202900,0.903974,3.915650,-0.245301,-0.417428,-0.061516
62953,9.261432,0.399307,4.762473,-0.584559,-0.284569,0.041256
62954,9.226770,-0.190320,4.824279,-0.815658,-0.253913,0.110220
62955,9.564321,-0.938612,4.522653,-0.748436,-0.277320,0.135439
62956,9.651301,-1.368339,4.498370,-0.480256,-0.250610,0.132840
62957,9.444900,-1.139739,4.189040,-0.195125,-0.252176,0.146615
62958,9.662942,-0.484846,3.695790,0.075876,-0.271422,0.144252
62959,9.743923,0.319824,3.092390,0.150657,-0.254158,0.135689
62960,9.438636,0.916307,2.410182,0.095376,-0.247998,0.098533
62961,9.202605,1.381014,2.015987,0.137097,-0.294550,0.039985
62962,9.020751,1.598941,1.821105,0.038292,-0.354881,0.014868
62963,8.728942,1.461634,1.210138,-0.157322,-0.433352,0.013441
62964,8.724788,1.005179,1.015373,-0.198871,-0.499159,0.011361
62965,8.802673,0.428405,1.613120,-0.104586,-0.522929,0.012759
62966,9.054621,0.062027,2.752723,-0.058393,-0.508682,0.057848
62967,9.257893,-0.260524,3.959321,-0.165371,-0.443148,0.150458
62968,9.330128,-0.693553,4.693068,-0.345124,-0.381326,0.255349
62969,9.568684,-1.261356,4.968825,-0.442228,-0.362962,0.325030
62970,9.899705,-1.547741,4.858574,-0.296393,-0.321435,0.358580
62971,9.961564,-1.389295,4.610258,-0.020428,-0.245193,0.340429
62972,9.976783,-0.755105,4.156380,0.241105,-0.182940,0.305260
62973,10.254057,0.083422,3.427823,0.439880,-0.158839,0.249108
62974,10.174621,0.931609,2.628721,0.527486,-0.130335,0.210426
62975,9.777900,1.618572,1.900590,0.577288,-0.152519,0.114727
62976,9.570168,1.949088,1.667357,0.482981,-0.201188,0.051038
62977,9.130839,1.585122,0.720234,0.160813,-0.302129,0.057172
62978,8.685063,0.688658,-0.218988,0.012221,-0.419835,0.063417
62979,8.672318,-0.263427,-0.150263,0.233744,-0.480695,0.102377
62980,8.940152,-0.394871,1.709945,0.510970,-0.457939,0.175661
62981,9.210808,-0.140881,4.015998,0.381227,-0.344287,0.286807
62982,9.309225,0.070733,4.942734,-0.049335,-0.224897,0.409804
62983,9.328350,0.150682,4.553824,-0.451881,-0.203550,0.497204
62984,9.578869,-0.175675,3.547949,-0.589815,-0.234927,0.495204
62985,9.650533,-0.677284,2.636378,-0.379529,-0.257398,0.426981
62986,9.519970,-1.114579,2.055921,-0.036972,-0.260147,0.353933
62987,9.665962,-1.155443,1.763128,0.366332,-0.270087,0.311798
62988,9.924593,-0.872156,1.735022,0.671244,-0.243124,0.293072
62989,9.838709,-0.520326,1.680683,0.718276,-0.166946,0.314717
62990,9.215825,-0.088742,1.205372,0.665898,-0.163759,0.363611
62991,8.972848,0.470524,0.911226,0.589317,-0.285584,0.378589
62992,9.224541,0.797265,0.798604,0.483010,-0.376426,0.383630
62993,9.576120,1.065459,0.956297,0.274012,-0.361548,0.389721
62994,9.556690,0.952443,1.285525,0.066339,-0.339724,0.411651
62995,9.363085,0.357177,1.761533,-0.076131,-0.382454,0.435567
62996,9.626552,-0.377131,2.389294,-0.132719,-0.429579,0.477709
62997,10.158414,-0.883416,2.855368,-0.133968,-0.411303,0.539862
62998,10.409552,-1.011261,2.889135,-0.045255,-0.338171,0.570990
62999,10.658935,-0.646198,2.957437,0.212675,-0.280668,0.526329
63000,10.826264,0.177619,3.349261,0.431039,-0.219314,0.419183
63001,10.622107,0.931498,3.125524,0.440040,-0.163385,0.344327
63002,10.430154,1.311977,2.392721,0.426030,-0.171490,0.307220
63003,10.472723,1.376025,1.684477,0.389972,-0.176258,0.289085
63004,10.149663,1.088499,1.091213,0.335308,-0.171370,0.268984
63005,10.074691,1.106451,0.928209,0.328899,-0.208114,0.197314
63006,10.126585,1.169118,1.097931,0.207237,-0.208406,0.156015
63007,9.845610,0.889944,1.169246,0.066423,-0.242623,0.145241
63008,9.790038,0.386529,1.544375,-0.030471,-0.281141,0.152838
63009,9.787879,-0.104723,2.016298,-0.090075,-0.266439,0.180094
63010,9.719429,-0.389463,2.560318,-0.149135,-0.247091,0.211065
63011,9.844447,-0.750915,2.900749,-0.242049,-0.221138,0.243323
63012,10.003998,-1.070476,2.620546,-0.314329,-0.176049,0.276778
63013,10.240295,-1.280108,2.055417,-0.179442,-0.149424,0.269982
63014,10.462451,-1.282666,2.283281,0.126893,-0.112645,0.219960
63015,10.647564,-1.033874,2.555603,0.378302,-0.036787,0.189085
63016,10.563286,-0.297878,2.713688,0.486076,0.043976,0.157922
63017,10.108724,0.443543,2.149378,0.322221,0.078549,0.151740
63018,9.808238,1.151020,0.732381,0.114544,0.027481,0.112979
63019,9.827725,1.731184,-0.162857,-0.106458,0.003371,0.050877
63020,9.204640,1.032578,-1.017968,-0.275938,-0.092435,0.005257
63021,9.082146,-0.227982,-0.492170,-0.139130,-0.253481,-0.058144
63022,9.544199,-0.953401,1.417177,-0.070170,-0.260297,-0.064838
63023,9.757977,-1.340111,2.463101,-0.041956,-0.137081,-0.020520
63024,9.772359,-1.357546,3.460029,0.031115,-0.061907,0.042446
63025,10.100353,-0.992997,4.334398,0.036850,-0.022563,0.078342
63026,10.252811,-0.810959,4.164895,-0.075737,0.034911,0.105357
63027,9.969167,-1.368550,2.886295,-0.105853,0.017307,0.114465
63028,9.778530,-1.959879,1.278547,-0.018649,-0.037520,0.129458
63029,10.005618,-1.985109,-0.103534,0.240477,-0.055769,0.126278
63030,10.212202,-1.331127,-0.122689,0.539889,-0.015990,0.103318
63031,10.078763,-0.223714,0.473168,0.628175,0.035848,0.071938
63032,9.804211,0.748359,1.039108,0.480285,0.047971,0.044221
63033,9.588335,1.033466,1.128293,0.198119,-0.005139,0.046398
63034,9.635812,0.692214,1.065182,-0.056658,-0.056961,0.042543
63035,9.486654,0.002357,1.042618,-0.178126,-0.075566,0.037182
63036,9.362244,-0.675252,1.649535,-0.172771,-0.108389,0.022866
63037,9.772762,-1.244502,2.117510,-0.177864,-0.086292,0.030395
63038,9.732733,-1.451468,2.151688,-0.079123,-0.029856,0.049867
63039,9.842613,-1.606469,2.412864,0.087615,-0.009429,0.063893
63040,9.965067,-1.552554,2.591107,0.258591,0.027807,0.059272
63041,9.936852,-1.172723,2.499996,0.339525,0.050888,0.051032
63042,9.828997,-0.830365,1.766085,0.317120,0.056434,0.046206
63043,9.809962,-0.542217,1.024994,0.294137,0.056626,0.053706
63044,9.622978,-0.551225,0.556386,0.256342,0.046294,0.051534
63045,9.404330,-0.584396,0.355416,0.236014,0.010629,0.037596
63046,9.459484,-0.682819,0.618678,0.197342,-0.044627,0.041331
63047,9.364171,-0.891703,0.741101,0.183770,-0.076895,0.058324
63048,9.126993,-1.075334,0.856734,0.211045,-0.133499,0.070685
63049,8.989324,-1.398177,0.848902,0.258940,-0.190760,0.093994
63050,9.198175,-1.711326,0.980997,0.407938,-0.204870,0.117048
63051,9.642959,-1.500210,1.653742,0.577881,-0.155278,0.137168
63052,9.868392,-0.929290,2.205251,0.633507,-0.095341,0.145878
63053,10.162078,-0.350314,2.244562,0.551962,-0.058427,0.143562
63054,10.170189,-0.102343,1.616332,0.414136,-0.043003,0.136797
63055,10.045861,-0.052237,0.951498,0.328048,-0.065036,0.125329
63056,9.929886,-0.165249,0.575381,0.269439,-0.085964,0.112475
63057,9.776168,-0.311555,0.435028,0.252788,-0.094559,0.081989
63058,9.506732,-0.390723,0.569873,0.267762,-0.118196,0.062127
63059,9.482592,-0.575912,0.856094,0.255304,-0.170192,0.052922
63060,9.629704,-0.931421,1.043084,0.272747,-0.176903,0.069046
63061,9.704220,-0.944106,1.278744,0.356184,-0.155829,0.072896
63062,9.953167,-0.451949,1.776354,0.408144,-0.142000,0.064273
63063,10.133498,0.023156,2.198975,0.330023,-0.102378,0.056350
63064,10.157493,0.171245,2.117342,0.192550,-0.084196,0.043838
63065,9.988933,-0.039340,1.770210,0.093746,-0.090565,0.039177
63066,9.995656,-0.354753,1.504278,0.092580,-0.100036,0.037206
63067,9.988646,-0.479793,1.547246,0.120302,-0.095679,0.040419
63068,9.996926,-0.606088,1.659559,0.120696,-0.065493,0.040655
63069,9.963921,-0.607440,1.662885,0.107013,-0.038272,0.040008
63070,9.962876,-0.658471,1.659755,0.082895,-0.023590,0.036329
63071,9.877892,-0.632305,1.519826,0.061844,0.000558,0.033544
63072,9.826122,-0.535369,1.515959,0.030530,-0.005285,0.026172
63073,9.853155,-0.587490,1.562098,-0.014141,0.008128,0.016606
63074,9.773940,-0.805584,1.400276,-0.059694,0.018362,0.021066
63075,9.729537,-1.074775,1.318214,-0.030145,0.017892,0.023163
63076,9.713317,-1.174725,1.339486,0.027510,0.018547,0.026954
63077,9.764983,-1.251272,1.346153,0.102304,0.015762,0.026123
63078,9.811164,-1.154350,1.233986,0.165013,0.017956,0.023437
63079,9.856673,-0.910207,1.177882,0.227262,0.017023,0.011099
63080,9.870624,-0.689028,1.216882,0.235720,0.021725,0.003998
63081,9.856919,-0.612417,1.154006,0.220124,0.029968,-0.002068
63082,9.826979,-0.560667,1.253909,0.181720,0.027452,0.004395
63083,9.770128,-0.630962,1.252155,0.131162,0.025083,0.008954
63084,9.790090,-0.728565,1.356414,0.111881,0.025393,0.009771
63085,9.795210,-0.801194,1.393774,0.097732,0.031940,0.004089
63086,9.748832,-0.774047,1.426417,0.075253,0.041753,-0.005599
63087,9.734306,-0.723486,1.363572,0.044264,0.043780,-0.008170
63088,9.705647,-0.892579,1.267812,0.019984,0.045696,-0.011993
63089,9.606835,-1.084385,1.098663,0.025568,0.026573,-0.010267
63090,9.637776,-1.352940,1.040380,0.076320,0.014778,-0.005096
63091,9.666844,-1.426056,0.947949,0.160935,0.010468,-0.001320
63092,9.714707,-1.278124,1.064577,0.239709,0.007874,0.000770
63093,9.737973,-1.079215,1.222109,0.276014,0.010668,0.001692
63094,9.787175,-0.880786,1.337551,0.259666,0.011001,0.003330
63095,9.800591,-0.854683,1.320312,0.205134,0.024567,0.011269
63096,9.753446,-0.851990,1.352723,0.153392,0.028543,0.020109
63097,9.630765,-1.044981,1.315991,0.115091,0.033891,0.026450
63098,9.436452,-1.014461,1.399070,0.116683,0.029201,0.031741
63099,9.407265,-0.986758,1.585732,0.142307,0.019445,0.036116
63100,9.625056,-1.017261,1.699868,0.161475,0.029031,0.052641
63101,9.767134,-1.100822,1.567733,0.213728,0.034994,0.064499
63102,9.892118,-0.960869,1.561023,0.312000,0.045045,0.065791
63103,9.941643,-0.669712,1.586124,0.365924,0.046060,0.060758
63104,9.930257,-0.525287,1.521126,0.375661,0.050911,0.060314
63105,9.899647,-0.402311,1.531035,0.344664,0.051411,0.057661
63106,9.849931,-0.185336,1.435441,0.290567,0.061608,0.052809
63107,9.781954,-0.010678,1.504052,0.196340,0.067449,0.049066
63108,9.791492,-0.132835,1.583659,0.075649,0.072028,0.048730
63109,9.757311,-0.388770,1.412590,-0.023152,0.071755,0.054872
63110,9.779918,-0.619708,1.334095,-0.048887,0.077028,0.061517
63111,9.760573,-0.792087,1.457278,-0.056428,0.078841,0.065623
63112,9.689191,-0.973009,1.344201,-0.035153,0.073906,0.068814
63113,9.655736,-0.929182,1.356485,0.029438,0.072994,0.065530
63114,9.650310,-0.883088,1.415592,0.069984,0.062693,0.057048
63115,9.638696,-0.812353,1.439610,0.101504,0.062016,0.047250
63116,9.637114,-0.794578,1.357147,0.125321,0.055198,0.041731
63117,9.655270,-0.800792,1.288596,0.135132,0.050131,0.035224
63118,9.700305,-0.829730,1.268171,0.129606,0.053181,0.027136
63119,9.710202,-0.840700,1.078145,0.113539,0.054871,0.022336
63120,9.676846,-0.665840,1.137049,0.107318,0.053034,0.011001
63121,9.684609,-0.510792,1.310880,0.064672,0.048802,0.009651
63122,9.664552,-0.506229,1.390503,0.017169,0.050840,0.003466
63123,9.678198,-0.503575,1.462711,-0.008080,0.046372,0.002487
63124,9.670394,-0.544863,1.611373,-0.026371,0.039981,-0.005926
63125,9.711768,-0.669677,1.593573,-0.038774,0.035160,-0.012643
63126,9.670519,-0.817597,1.523049,-0.035674,0.030176,-0.017935
63127,9.683748,-0.946843,1.369281,-0.027682,0.028306,-0.023462
63128,9.679771,-1.002547,1.198183,-0.002507,0.021792,-0.017357
