// Start Time: Unknown
// Update Rate: 100.0Hz
// Filter Profile: human (46.1)
// Firmware Version: 4.3.5
PacketCounter,Acc_X,Acc_Y,Acc_Z,Gyr_X,Gyr_Y,Gyr_Z
27383,8.972413,-3.484733,1.991834,-0.025656,0.004966,-0.014027
27384,8.953870,-3.473672,2.018410,-0.026579,0.006096,-0.017558
27385,8.980141,-3.539893,1.929383,-0.029889,0.015373,-0.017974
27386,8.949574,-3.570530,1.897770,-0.027274,0.014205,-0.017960
27387,8.996458,-3.519132,1.934127,-0.014213,0.010973,-0.020003
27388,8.962220,-3.531024,1.981457,-0.019426,0.013319,-0.020038
27389,8.997231,-3.521299,1.958941,-0.022970,0.012997,-0.021462
27390,8.966826,-3.551717,1.927098,-0.029981,0.010584,-0.018492
27391,9.001537,-3.552334,1.951879,-0.016923,0.007356,-0.020531
27392,9.029279,-3.500442,2.062757,-0.001350,0.002098,-0.026245
27393,9.030167,-3.497886,2.063204,-0.003915,0.009842,-0.031575
27394,9.043419,-3.437926,2.051307,0.001305,0.007503,-0.031542
27395,9.059406,-3.426990,2.104010,0.000575,0.011667,-0.028750
27396,9.166173,-3.458597,2.148608,0.005053,0.012176,-0.024859
27397,9.195115,-3.587570,2.197402,0.022796,0.016438,-0.019864
27398,9.239503,-3.692777,2.227863,0.069468,0.017446,-0.013658
27399,9.197641,-3.641041,2.318387,0.122562,0.027245,-0.005019
27400,9.274296,-3.545851,2.346137,0.158101,0.027969,0.011307
27401,9.437215,-3.475114,2.445861,0.167599,0.044345,0.024217
27402,9.604546,-3.285318,2.572825,0.163210,0.078198,0.024932
27403,9.582723,-3.140472,2.742062,0.121639,0.139988,0.026430
27404,9.459911,-3.034410,2.880344,0.062637,0.183258,0.010684
27405,9.411180,-2.994425,3.032194,0.001700,0.213048,0.000613
27406,9.424221,-3.068874,3.163662,-0.072463,0.268224,-0.001835
27407,9.439435,-3.164596,3.220286,-0.135331,0.337701,0.002324
27408,9.444571,-3.338296,3.215864,-0.150491,0.397702,0.015311
27409,9.432411,-3.531535,3.211316,-0.155384,0.441790,0.020029
27410,9.443366,-3.758905,3.129450,-0.113592,0.479119,0.037776
27411,9.454649,-3.886454,3.174108,-0.033883,0.518276,0.048651
27412,9.405094,-3.874342,3.127555,0.041698,0.559228,0.058297
27413,9.274598,-3.819961,3.191109,0.096107,0.590870,0.060779
27414,9.144175,-3.759620,3.232732,0.113944,0.603661,0.067211
27415,9.099741,-3.665300,3.236510,0.111355,0.610721,0.083538
27416,9.092958,-3.647407,3.277374,0.086305,0.626961,0.107213
27417,9.211337,-3.711659,3.337513,0.036849,0.664758,0.137723
27418,9.231555,-3.769725,3.296515,0.004260,0.716546,0.169285
27419,9.177490,-3.846378,3.300171,-0.001517,0.763344,0.183255
27420,9.047046,-4.011722,3.256963,-0.026139,0.814719,0.209918
27421,8.905413,-4.225928,3.180443,-0.011488,0.864691,0.231512
27422,8.746573,-4.349443,3.173229,0.030352,0.882824,0.256865
27423,8.588766,-4.397608,3.232395,0.070851,0.883155,0.288019
27424,8.463197,-4.522719,3.329317,0.061092,0.880176,0.339839
27425,8.323228,-4.736527,3.304300,0.030703,0.885480,0.395704
27426,8.175409,-4.999043,3.317887,0.019462,0.894973,0.471816
27427,8.029129,-5.256819,3.283815,0.046647,0.916407,0.549556
27428,7.916047,-5.435975,3.299417,0.089843,0.918889,0.630369
27429,7.874494,-5.530479,3.347865,0.116337,0.917779,0.707436
27430,7.880737,-5.568366,3.470914,0.141879,0.917042,0.774660
27431,7.904632,-5.550718,3.561231,0.147975,0.912764,0.838767
27432,7.791453,-5.653170,3.549559,0.121804,0.905046,0.906091
27433,7.688657,-5.815382,3.553654,0.110818,0.902082,0.973159
27434,7.576820,-6.049692,3.645662,0.125253,0.904698,1.038087
27435,7.436869,-6.235194,3.743919,0.178378,0.912179,1.106663
27436,7.251173,-6.220517,3.794122,0.251211,0.916670,1.163920
27437,7.115448,-6.146490,3.920481,0.288469,0.899117,1.226311
27438,7.051852,-6.209546,4.017023,0.270226,0.869334,1.303579
27439,7.109553,-6.404577,4.025546,0.261988,0.846675,1.377727
27440,7.079562,-6.448543,4.036201,0.298008,0.844660,1.440965
27441,6.968579,-6.395724,4.090923,0.331119,0.844200,1.498734
27442,6.903432,-6.375125,4.105010,0.357985,0.828727,1.558501
27443,6.896769,-6.358782,4.216149,0.346654,0.807597,1.609773
27444,6.927804,-6.373813,4.362565,0.325793,0.792887,1.659068
27445,6.962388,-6.412131,4.378200,0.318494,0.777708,1.700347
27446,6.917343,-6.497246,4.491742,0.327448,0.762694,1.734298
27447,6.898803,-6.554258,4.488387,0.344024,0.738834,1.762986
27448,6.853020,-6.630115,4.499554,0.373037,0.701806,1.788823
27449,6.853022,-6.667540,4.559496,0.424135,0.670433,1.804316
27450,6.793664,-6.635243,4.575658,0.506658,0.651459,1.802099
27451,6.660676,-6.498705,4.751600,0.557430,0.634506,1.785595
27452,6.516030,-6.391600,4.810300,0.572456,0.615064,1.777035
27453,6.420112,-6.298837,4.936550,0.570252,0.586021,1.767955
27454,6.307289,-6.346560,5.102474,0.572515,0.572413,1.768559
27455,6.222485,-6.371248,5.173064,0.564431,0.563625,1.780594
27456,6.080292,-6.463314,5.190861,0.578979,0.550421,1.772892
27457,5.964793,-6.502301,5.355547,0.619108,0.547380,1.773702
27458,5.889002,-6.562202,5.460053,0.616590,0.539244,1.769235
27459,5.782930,-6.610061,5.549462,0.616073,0.526797,1.775977
27460,5.639866,-6.635529,5.565317,0.639777,0.521546,1.763853
27461,5.482058,-6.611998,5.569785,0.678480,0.515416,1.747434
27462,5.272376,-6.509714,5.620110,0.684944,0.507667,1.727716
27463,5.092170,-6.483755,5.633630,0.674472,0.491295,1.713317
27464,5.030037,-6.487640,5.679181,0.671881,0.487205,1.705300
27465,4.933767,-6.532271,5.712531,0.644738,0.501940,1.693267
27466,4.743611,-6.489050,5.682740,0.648550,0.506327,1.672580
27467,4.546796,-6.503321,5.796223,0.645894,0.501690,1.652863
27468,4.406059,-6.574421,5.837256,0.642509,0.488891,1.633133
27469,4.255208,-6.654813,5.847085,0.648593,0.469978,1.625639
27470,4.093523,-6.651105,5.944861,0.669836,0.448810,1.612032
27471,3.929845,-6.619078,6.034036,0.683310,0.435614,1.592395
27472,3.769458,-6.618383,6.019756,0.694326,0.453750,1.582326
27473,3.466150,-6.507124,6.069298,0.709019,0.445326,1.559276
27474,3.358643,-6.387410,6.187496,0.715395,0.414046,1.534848
27475,3.254494,-6.449451,6.301763,0.692762,0.376982,1.528696
27476,3.227018,-6.431400,6.257141,0.704973,0.365080,1.511903
27477,3.113821,-6.356025,6.377638,0.720220,0.370359,1.496302
27478,2.918840,-6.344802,6.475370,0.679414,0.368911,1.488231
27479,2.747094,-6.387676,6.427960,0.655406,0.352666,1.472314
27480,2.600676,-6.468304,6.407926,0.664453,0.324406,1.447407
27481,2.485934,-6.437093,6.330339,0.686799,0.297725,1.433423
27482,2.333016,-6.392746,6.462235,0.697225,0.278760,1.411914
27483,2.204337,-6.383101,6.503388,0.711274,0.252951,1.390605
27484,2.112977,-6.329654,6.515229,0.753334,0.231977,1.351167
27485,1.977506,-6.134121,6.705765,0.780628,0.222738,1.308118
27486,1.792620,-5.977193,6.793409,0.735906,0.211059,1.270597
27487,1.737495,-5.767687,6.885160,0.711800,0.198489,1.247267
27488,1.588692,-5.702000,7.054794,0.620569,0.202174,1.235388
27489,1.451971,-5.898853,6.970312,0.559956,0.209699,1.236548
27490,1.301583,-6.060080,7.012681,0.514938,0.217648,1.224167
27491,1.149367,-6.230784,6.874210,0.463206,0.202603,1.224036
27492,1.078331,-6.154784,6.913148,0.495110,0.172565,1.228830
27493,0.924825,-6.024322,7.186889,0.477330,0.151757,1.227982
27494,0.742559,-6.158118,7.103225,0.394508,0.127194,1.221393
27495,0.726439,-6.309880,6.831707,0.405250,0.112153,1.218908
27496,0.694011,-6.045194,7.013116,0.485177,0.086559,1.193861
27497,0.642651,-5.850322,7.257997,0.425391,0.071030,1.202091
27498,0.558708,-5.766365,7.236674,0.379490,0.072375,1.210068
27499,0.348297,-5.670370,7.489126,0.328050,0.065590,1.199678
27500,0.488890,-5.772555,7.338046,0.221076,0.058136,1.216274
27501,0.444239,-5.782079,7.281674,0.170475,0.091835,1.237198
27502,0.341494,-5.860092,7.336952,0.085853,0.127048,1.258296
27503,0.271617,-5.950388,7.190388,0.062614,0.171256,1.263876
27504,0.094174,-5.711181,7.403217,0.127185,0.215526,1.221815
27505,-0.068235,-5.515906,7.589519,0.055132,0.234154,1.176978
27506,0.026471,-5.612957,7.320948,-0.058737,0.232470,1.139445
27507,0.067111,-5.521986,7.300652,-0.055741,0.290102,1.111957
27508,-0.139090,-5.540070,7.605022,-0.120853,0.327229,1.081550
27509,-0.488396,-5.594610,7.296074,-0.122440,0.324545,1.032941
27510,-0.584783,-5.626981,7.430163,-0.118637,0.285649,0.962763
27511,-0.402523,-5.630475,7.237785,-0.127363,0.254008,0.920021
27512,-0.478403,-5.661873,7.180902,-0.149853,0.267350,0.871076
27513,-0.674769,-5.796070,6.959704,-0.116210,0.234627,0.831983
27514,-0.772403,-5.682581,7.274531,0.015097,0.205010,0.774836
27515,-0.801586,-5.438497,7.233570,0.024319,0.189789,0.719156
27516,-0.871367,-5.138470,7.355975,0.013383,0.214823,0.645573
27517,-0.976701,-5.173363,7.452124,-0.141991,0.210261,0.592466
27518,-1.136600,-5.524977,7.176939,-0.210915,0.194967,0.545153
27519,-1.124026,-5.709820,7.322932,-0.140148,0.150986,0.507913
27520,-1.038284,-5.650974,7.154361,-0.082216,0.100730,0.467371
27521,-1.051786,-5.537575,6.939577,-0.078112,0.088678,0.440661
27522,-1.169680,-5.594269,7.134549,-0.116589,0.097914,0.403984
27523,-1.221656,-5.703903,7.135105,-0.111994,0.060587,0.367544
27524,-1.128545,-5.708429,6.854345,-0.056073,0.035761,0.331409
27525,-1.236263,-5.565979,6.966222,-0.037879,0.018302,0.295283
27526,-1.335311,-5.673349,7.078307,-0.080583,0.009150,0.252730
27527,-1.563270,-5.949624,7.105665,-0.136143,-0.003082,0.211838
27528,-1.805300,-6.307750,7.028597,-0.088670,-0.067438,0.161232
27529,-1.892557,-6.407788,7.204630,0.065687,-0.128991,0.111717
27530,-1.862009,-6.286554,7.267745,0.184863,-0.205140,0.067207
27531,-1.776192,-6.139382,7.307414,0.251963,-0.264301,0.044896
27532,-1.501661,-6.015875,7.148609,0.306580,-0.320947,0.027388
27533,-1.168818,-5.802530,7.134357,0.336963,-0.332374,0.014176
27534,-0.743534,-5.741982,7.043812,0.329673,-0.363278,-0.014876
27535,-0.169409,-5.707588,6.927391,0.395510,-0.364408,-0.072970
27536,0.187746,-5.304112,7.220905,0.462013,-0.291301,-0.154437
27537,0.151405,-5.249827,7.430248,0.396362,-0.137072,-0.222665
27538,-0.208595,-5.210791,7.762868,0.324723,0.025534,-0.270646
27539,-0.681475,-5.342843,7.796375,0.231096,0.135453,-0.304208
27540,-1.051710,-5.541858,7.815125,0.228747,0.174984,-0.346522
27541,-0.946494,-5.441549,7.989368,0.255304,0.184773,-0.394204
27542,-0.661766,-5.316437,8.144216,0.215173,0.211087,-0.427400
27543,-0.421283,-5.316293,8.119864,0.154880,0.271937,-0.457477
27544,-0.323535,-5.502154,8.091468,0.097316,0.331770,-0.485579
27545,-0.379487,-5.768581,8.066646,0.090774,0.376028,-0.530327
27546,-0.282059,-5.912287,8.004334,0.159366,0.401207,-0.588477
27547,-0.244775,-5.964806,7.984482,0.237753,0.451632,-0.662851
27548,-0.338086,-5.944115,8.025555,0.326651,0.499932,-0.751335
27549,-0.469722,-5.953766,8.083167,0.409988,0.536396,-0.826293
27550,-0.723196,-5.918129,7.920694,0.526067,0.563373,-0.911082
27551,-0.907655,-5.811509,8.309982,0.602059,0.615886,-1.008606
27552,-1.126781,-5.963514,8.460470,0.590523,0.650091,-1.069695
27553,-1.231737,-6.136221,8.270187,0.663052,0.649482,-1.112256
27554,-1.427627,-6.208292,8.365262,0.759522,0.639628,-1.143968
27555,-1.545095,-6.265787,8.388386,0.812019,0.608294,-1.168969
27556,-1.708538,-6.334712,8.219414,0.890094,0.543043,-1.182398
27557,-1.798340,-6.403719,8.095830,1.011400,0.468845,-1.200415
27558,-1.799167,-6.428307,7.995863,1.159918,0.371814,-1.197354
27559,-1.722452,-6.270377,7.974196,1.307501,0.290632,-1.180020
27560,-1.632191,-6.144148,8.083239,1.429810,0.225702,-1.156930
27561,-1.496171,-5.981137,8.167687,1.526935,0.195187,-1.126620
27562,-1.459169,-5.667186,8.436182,1.648204,0.173100,-1.095193
27563,-1.542013,-5.368125,8.566304,1.675891,0.123674,-1.075427
27564,-1.638106,-4.964831,8.406385,1.610966,0.063131,-1.056798
27565,-1.513654,-4.786274,8.392438,1.525589,0.002698,-1.040920
27566,-1.432901,-4.711340,8.236188,1.454100,-0.008706,-1.037722
27567,-1.317368,-4.435099,8.335143,1.462655,-0.077532,-1.000611
27568,-1.148726,-4.149158,8.340036,1.464628,-0.138466,-0.968473
27569,-1.019160,-3.826259,8.477993,1.398799,-0.157470,-0.960841
27570,-0.881125,-3.756295,8.782289,1.238422,-0.185616,-0.925137
27571,-0.742204,-3.695955,8.455184,1.056260,-0.206624,-0.914417
27572,-0.555146,-3.565676,8.193401,0.911789,-0.207489,-0.927229
27573,-0.423535,-3.480726,8.414267,0.727906,-0.147375,-0.917237
27574,-0.477996,-3.518172,8.497678,0.561434,-0.112755,-0.917689
27575,-0.379026,-3.516731,8.388330,0.428788,-0.084525,-0.940098
27576,-0.228317,-3.476070,8.407405,0.337166,-0.067349,-0.957672
27577,-0.013790,-3.323688,8.345158,0.263700,-0.050178,-0.964357
27578,0.024479,-3.085536,8.362747,0.183289,-0.020917,-0.928198
27579,-0.203013,-2.827387,8.345507,0.059591,-0.050537,-0.913004
27580,-0.247856,-2.856390,8.338668,-0.133869,-0.102985,-0.911969
27581,-0.173414,-3.146944,8.140397,-0.369802,-0.114980,-0.910465
27582,0.027203,-3.464805,7.943183,-0.506882,-0.117931,-0.911252
27583,0.225969,-3.751380,7.878276,-0.533455,-0.097670,-0.922198
27584,0.526910,-3.750977,8.051807,-0.488418,-0.022547,-0.957490
27585,0.870463,-3.578393,8.231522,-0.458696,0.106365,-1.015596
27586,1.013770,-3.131268,8.777291,-0.399600,0.251907,-1.031465
27587,0.933347,-2.629597,9.360194,-0.480950,0.384559,-1.026127
27588,0.859650,-2.219939,9.694869,-0.762598,0.534063,-1.006375
27589,0.577939,-2.142610,10.081255,-1.172015,0.655683,-0.968815
27590,0.246943,-2.679224,10.000763,-1.630736,0.707907,-0.939959
27591,0.136114,-3.585095,9.301593,-1.986691,0.699503,-0.978423
27592,0.303857,-4.594493,8.653164,-1.908163,0.620125,-1.015325
27593,0.620168,-4.985073,8.341133,-1.558254,0.597515,-1.072985
27594,0.953866,-4.916586,8.636436,-1.231756,0.647995,-1.162308
27595,1.282720,-4.759127,9.207412,-0.962536,0.723495,-1.251243
27596,1.433861,-4.439061,9.441537,-0.890603,0.862772,-1.304938
27597,1.094107,-4.412264,9.688043,-0.979802,0.963126,-1.297041
27598,0.500639,-4.752897,9.402134,-1.194269,0.964472,-1.255811
27599,-0.029538,-5.599547,8.766501,-1.350352,0.884463,-1.237930
27600,-0.121533,-6.735765,8.353465,-1.053597,0.694580,-1.249734
27601,0.258190,-7.234165,8.231024,-0.363315,0.543744,-1.290384
27602,0.566790,-6.526716,8.537349,0.343947,0.500435,-1.326689
27603,0.640667,-5.248148,8.633396,0.714202,0.486641,-1.384664
27604,0.652884,-4.066283,8.719426,0.837284,0.463869,-1.430916
27605,0.989956,-3.272559,8.686946,0.719667,0.438457,-1.456140
27606,1.445430,-2.916686,8.525501,0.410312,0.458038,-1.454551
27607,1.592281,-2.991830,8.321296,0.007326,0.553160,-1.440198
27608,1.427333,-3.358920,7.947120,-0.332492,0.641113,-1.467772
27609,1.298694,-3.766505,7.705423,-0.423184,0.650998,-1.495794
27610,1.390135,-3.963858,7.941111,-0.347885,0.662458,-1.524718
27611,1.405677,-3.856828,8.509996,-0.372263,0.709021,-1.557938
27612,1.439038,-3.971106,8.756135,-0.620328,0.794982,-1.583682
27613,1.384432,-4.312125,8.372232,-0.927695,0.879904,-1.593424
27614,1.384549,-4.828819,8.123150,-1.079710,0.944570,-1.598390
27615,1.356465,-5.316232,7.871731,-1.099721,0.988579,-1.579330
27616,1.219752,-5.684991,7.445465,-1.141497,1.046162,-1.566536
27617,1.091150,-5.930314,7.308631,-1.095848,1.033411,-1.569948
27618,0.949991,-6.203045,7.708190,-0.967926,0.967685,-1.558918
27619,0.700394,-6.451425,7.988430,-0.946992,0.906231,-1.533428
27620,0.418330,-6.863303,7.695957,-0.910566,0.871618,-1.515338
27621,0.439797,-7.119854,7.333275,-0.662151,0.824633,-1.486868
27622,0.831721,-6.925989,7.346587,-0.369434,0.802363,-1.448107
27623,1.133744,-6.569957,7.300986,-0.331211,0.830799,-1.420940
27624,1.341380,-6.411387,7.120507,-0.368410,0.849710,-1.410412
27625,1.217276,-6.358056,7.174433,-0.427472,0.856258,-1.408713
27626,0.811553,-6.455222,7.382817,-0.512935,0.812851,-1.418640
27627,0.282372,-6.838709,7.184387,-0.594166,0.757892,-1.408667
27628,0.081394,-7.028539,7.015783,-0.491575,0.672912,-1.370235
27629,0.287482,-7.056060,7.290017,-0.321310,0.592500,-1.311517
27630,0.627969,-7.201673,7.264826,-0.252714,0.564220,-1.250499
27631,0.789556,-7.369245,7.002772,-0.220664,0.587712,-1.209947
27632,0.723489,-7.472552,6.702574,-0.204397,0.597364,-1.184182
27633,0.582951,-7.706395,6.573637,-0.187397,0.523200,-1.164701
27634,0.536643,-7.931099,6.257713,-0.147225,0.426539,-1.146149
27635,0.530534,-7.876315,6.552698,0.121118,0.308919,-1.126612
27636,0.561003,-7.396787,6.859327,0.281103,0.240542,-1.069384
27637,0.602265,-6.924415,7.023128,0.332141,0.197327,-0.998808
27638,0.791448,-6.630281,7.342015,0.294489,0.169039,-0.907379
27639,0.949979,-6.590905,7.316199,0.203082,0.157434,-0.827124
27640,1.023942,-6.460558,7.245020,0.117789,0.149707,-0.774582
27641,1.052808,-6.458832,7.290037,-0.004102,0.135766,-0.740266
27642,1.013840,-6.836424,7.079177,-0.144190,0.104448,-0.690234
27643,0.958771,-7.192287,6.819882,-0.137865,0.078912,-0.641322
27644,0.783671,-7.252047,6.851127,-0.059121,0.053093,-0.563602
27645,0.681923,-7.160753,6.943794,-0.055017,0.020943,-0.477470
27646,0.680523,-7.032293,6.981676,-0.068779,-0.016999,-0.393608
27647,0.813438,-6.900062,7.247409,-0.102647,-0.037142,-0.306988
27648,0.872284,-6.865408,7.287428,-0.204554,-0.045462,-0.205585
27649,0.804207,-7.108298,7.082785,-0.279179,-0.069335,-0.127131
27650,0.744378,-7.409386,7.085392,-0.314052,-0.102223,-0.045323
27651,0.742949,-7.806648,6.922945,-0.285885,-0.154256,0.037017
27652,0.770417,-8.009334,6.870699,-0.164994,-0.196790,0.119814
27653,0.787145,-7.930578,7.009504,-0.033786,-0.236530,0.208150
27654,0.895290,-7.671956,7.137111,0.039904,-0.274575,0.283662
27655,0.940599,-7.409311,7.314459,0.082081,-0.301901,0.354382
27656,1.066037,-7.141203,7.497144,0.093237,-0.324213,0.428356
27657,1.263958,-6.850599,7.671186,0.077112,-0.335318,0.499277
27658,1.465916,-6.599711,7.773209,0.042885,-0.321696,0.561053
27659,1.580672,-6.404405,7.839086,-0.005489,-0.300382,0.621377
27660,1.673182,-6.285458,7.892864,-0.055973,-0.278397,0.678591
27661,1.685034,-6.210541,7.871271,-0.122253,-0.255339,0.728574
27662,1.608772,-6.191143,7.754630,-0.191809,-0.228441,0.770163
27663,1.507560,-6.278854,7.616985,-0.252660,-0.204921,0.801688
27664,1.406838,-6.420750,7.538337,-0.275426,-0.193500,0.830964
27665,1.353276,-6.577749,7.450623,-0.273071,-0.195981,0.857449
27666,1.228285,-6.773244,7.382368,-0.241536,-0.197582,0.872506
27667,1.174626,-6.911190,7.317663,-0.176810,-0.220808,0.894045
27668,1.126894,-6.964070,7.355574,-0.106872,-0.237560,0.903294
27669,1.119348,-7.071939,7.479971,-0.030067,-0.259488,0.911057
27670,0.992809,-7.076012,7.535967,0.045210,-0.273172,0.915198
27671,0.927178,-7.079869,7.548959,0.126398,-0.299164,0.916836
27672,0.840066,-6.989982,7.586021,0.217794,-0.331295,0.921978
27673,0.842918,-6.832207,7.648259,0.305528,-0.361098,0.922814
27674,0.901093,-6.689883,7.587135,0.418370,-0.380074,0.923610
27675,1.029489,-6.446391,7.630050,0.573431,-0.343190,0.902971
27676,1.015135,-6.179892,7.887925,0.685611,-0.316621,0.874049
27677,1.001254,-6.020488,8.251685,0.707200,-0.323857,0.866168
27678,0.928728,-5.889249,8.416008,0.678885,-0.350357,0.876007
27679,0.816960,-5.849200,8.313899,0.655815,-0.399933,0.896125
27680,0.739483,-5.936967,8.118675,0.649740,-0.453360,0.941086
27681,0.717019,-6.143049,8.001361,0.641161,-0.492208,0.979226
27682,0.746881,-6.311455,7.833170,0.683801,-0.523082,1.009490
27683,0.745553,-6.376469,7.712372,0.735316,-0.544251,1.035173
27684,0.658018,-6.453627,7.650308,0.767094,-0.568006,1.050401
27685,0.631554,-6.406648,7.637088,0.786958,-0.586227,1.054575
27686,0.637915,-6.143562,7.691214,0.822652,-0.578658,1.045652
27687,0.573614,-5.883930,7.756718,0.782186,-0.555062,1.027186
27688,0.513997,-5.731814,7.687444,0.701112,-0.535865,1.016163
27689,0.513491,-5.573496,7.666582,0.617635,-0.503062,1.001087
27690,0.496361,-5.490042,7.628192,0.487957,-0.477953,0.994179
27691,0.536457,-5.580563,7.488697,0.382686,-0.465182,0.999535
27692,0.567762,-5.703427,7.400023,0.344777,-0.437541,0.999598
27693,0.586903,-5.664409,7.439711,0.324751,-0.379531,0.988027
27694,0.427665,-5.573456,7.599309,0.257217,-0.318484,0.973814
27695,0.281943,-5.639957,7.643355,0.144280,-0.284745,0.980255
27696,0.169431,-5.680218,7.633858,0.069373,-0.269219,1.008522
27697,0.049917,-5.774693,7.587117,-0.022971,-0.261276,1.043477
27698,-0.112315,-5.932891,7.398050,-0.073163,-0.293140,1.082362
27699,-0.150422,-6.048513,7.258398,-0.031562,-0.341344,1.112296
27700,-0.197585,-6.075440,7.213080,0.030077,-0.400885,1.118941
27701,-0.193425,-6.035637,7.267843,0.076503,-0.466919,1.125595
27702,-0.114975,-5.938025,7.408904,0.114635,-0.514946,1.138182
27703,-0.106394,-5.985899,7.459593,0.123676,-0.576415,1.164633
27704,-0.017770,-5.998219,7.423580,0.174072,-0.676108,1.217627
27705,0.006977,-5.864137,7.533127,0.200249,-0.704762,1.248494
27706,-0.105308,-5.745858,7.667947,0.135159,-0.688883,1.250283
27707,-0.159547,-5.845714,7.409161,0.060788,-0.705367,1.260845
27708,-0.125791,-5.721371,7.326164,0.055717,-0.769512,1.286509
27709,-0.064667,-5.322464,7.639552,-0.049412,-0.803435,1.319377
27710,0.121015,-5.597955,7.446036,-0.303396,-0.835069,1.379123
27711,0.332506,-5.916144,6.688352,-0.354736,-0.884455,1.454597
27712,0.225306,-5.485964,6.563325,-0.262683,-0.909950,1.463777
27713,-0.028842,-5.069044,6.545490,-0.406342,-0.947924,1.417899
27714,0.056778,-4.891993,6.072251,-0.578574,-1.023392,1.387516
27715,0.376952,-4.697419,5.940195,-0.717836,-1.087142,1.367893
27716,0.806457,-5.002047,6.240716,-0.873534,-1.068067,1.340459
27717,1.082126,-5.733565,6.736600,-1.010978,-0.980724,1.331463
27718,0.713810,-6.156419,7.256054,-0.982178,-0.916681,1.328629
27719,0.316753,-6.421703,7.298118,-0.946308,-0.901576,1.319510
27720,0.196304,-6.310679,7.291042,-0.758566,-0.900135,1.310899
27721,0.051700,-5.961237,7.609168,-0.724465,-0.921683,1.261015
27722,0.039848,-5.415734,7.435514,-0.634253,-1.028543,1.182529
27723,0.294860,-5.042071,8.048541,-0.710806,-1.077768,1.073520
27724,0.702730,-5.290025,7.475123,-0.901189,-1.101701,1.017149
27725,1.245079,-5.739521,7.561069,-0.833391,-1.136518,0.920027
27726,1.523023,-6.289222,7.818365,-0.819872,-1.055078,0.838894
27727,1.066836,-6.471525,7.843395,-0.654277,-1.019128,0.723538
27728,0.930247,-6.178919,8.175255,-0.475070,-1.039175,0.612119
27729,0.947146,-5.959783,8.160793,-0.440764,-1.078264,0.503485
27730,1.114013,-5.772173,8.172136,-0.422222,-1.117308,0.418931
27731,1.546995,-5.552244,8.088394,-0.372956,-1.098223,0.352858
27732,1.965067,-5.576984,7.994917,-0.383458,-1.036425,0.298799
27733,2.132979,-5.892905,7.850857,-0.456267,-0.942908,0.225921
27734,1.976355,-6.020341,7.905200,-0.389638,-0.837737,0.137197
27735,2.018884,-6.091191,8.007059,-0.305441,-0.805162,0.024633
27736,2.177992,-6.093880,7.802782,-0.242030,-0.751432,-0.099977
27737,2.030958,-5.955743,7.814796,-0.133901,-0.692499,-0.213429
27738,2.113114,-5.772037,7.672804,-0.067670,-0.710891,-0.328639
27739,2.355893,-5.613042,7.615015,-0.026616,-0.713154,-0.433855
27740,2.636990,-5.643015,7.491013,-0.024669,-0.661189,-0.520763
27741,2.618803,-5.677643,7.408350,0.002937,-0.600911,-0.608425
27742,2.624594,-5.637449,7.370000,0.041298,-0.558280,-0.705234
27743,2.682931,-5.609964,7.187274,0.053526,-0.531765,-0.806311
27744,2.738127,-5.733851,7.017727,0.083807,-0.507712,-0.917019
27745,2.794632,-5.798978,6.730884,0.145516,-0.495927,-1.048931
27746,2.772589,-5.761767,6.414525,0.237806,-0.510583,-1.191260
27747,2.758905,-5.654843,6.411572,0.324835,-0.538537,-1.351588
27748,2.744354,-5.488700,6.350434,0.376267,-0.598969,-1.511684
27749,2.882928,-5.363437,6.184717,0.448958,-0.659898,-1.670190
27750,2.946723,-5.206838,6.355668,0.465142,-0.698993,-1.820749
27751,2.977431,-5.082928,6.395879,0.450639,-0.736871,-1.947728
27752,2.889896,-5.037722,6.517164,0.439202,-0.775107,-2.043585
27753,2.992081,-5.159630,6.544151,0.414825,-0.800427,-2.107158
27754,3.145957,-5.352978,6.413222,0.406970,-0.841639,-2.153437
27755,3.294710,-5.517901,6.172119,0.445069,-0.875023,-2.208166
27756,3.338505,-5.538754,6.138532,0.489366,-0.924734,-2.272379
27757,3.518600,-5.587090,5.832698,0.514393,-1.024466,-2.341520
27758,3.666614,-5.403812,5.862715,0.599066,-1.115679,-2.417062
27759,3.859835,-5.128191,5.970096,0.587836,-1.203775,-2.483484
27760,4.193458,-4.894468,5.841456,0.540333,-1.286101,-2.532898
27761,4.529999,-4.895138,5.730973,0.492246,-1.338709,-2.542459
27762,4.690247,-5.043111,5.622245,0.436051,-1.352316,-2.512956
27763,4.631597,-5.350368,5.409775,0.404148,-1.366599,-2.475915
27764,4.625189,-5.733170,5.217261,0.460551,-1.393623,-2.438812
27765,4.704775,-5.729091,5.326491,0.661804,-1.450616,-2.409737
27766,4.822580,-5.547243,5.973510,0.748519,-1.555918,-2.376953
27767,5.379859,-5.320552,6.138031,0.731861,-1.684930,-2.282323
27768,5.898094,-5.012557,6.103248,0.732145,-1.729542,-2.179823
27769,6.216782,-4.665375,6.036463,0.659504,-1.710535,-2.067898
27770,6.318278,-4.454557,5.872381,0.463417,-1.655467,-1.946530
27771,6.240291,-4.618454,5.612321,0.240841,-1.638899,-1.799935
27772,6.063396,-5.083107,5.083697,0.187174,-1.658103,-1.695891
27773,5.913967,-5.286336,4.861099,0.377412,-1.743018,-1.627662
27774,6.093606,-5.047765,5.077644,0.624284,-1.842862,-1.544672
27775,6.197579,-4.444949,5.871987,0.831750,-1.953589,-1.458733
27776,6.344714,-3.895139,6.385567,0.813247,-2.079364,-1.338261
27777,6.842199,-3.676296,6.017313,0.644500,-2.142357,-1.207784
27778,7.570918,-3.635542,5.669437,0.569555,-2.108480,-1.041221
27779,8.096021,-3.642199,5.701394,0.464029,-1.950520,-0.894778
27780,8.174705,-3.732389,5.569053,0.274206,-1.720884,-0.778304
27781,7.789948,-3.842962,5.168775,0.154202,-1.605505,-0.712990
27782,7.667368,-3.785834,4.810562,0.144674,-1.578637,-0.679711
27783,7.768808,-3.357781,5.067383,0.158995,-1.560658,-0.662320
27784,8.081043,-2.593229,5.389789,0.036660,-1.453708,-0.665304
27785,8.244620,-1.947146,5.604935,-0.221403,-1.300679,-0.674769
27786,8.455928,-1.626965,5.734122,-0.654860,-1.117908,-0.639612
27787,8.696816,-1.837594,5.510440,-1.206215,-0.914167,-0.574006
27788,8.797361,-2.520366,5.050887,-1.670216,-0.765177,-0.481563
27789,8.888391,-3.248391,4.497802,-1.932471,-0.728027,-0.392892
27790,9.053256,-3.936706,3.945670,-1.962379,-0.755263,-0.328759
27791,9.359655,-4.441072,3.289742,-1.709799,-0.819198,-0.307422
27792,9.679678,-4.324768,3.295201,-1.045074,-0.926971,-0.335543
27793,9.748234,-3.306225,4.010535,-0.587059,-0.947180,-0.393453
27794,9.657597,-2.379708,4.490798,-0.571631,-0.877216,-0.429738
27795,9.598258,-1.829201,4.888062,-0.951231,-0.743557,-0.416233
27796,9.624231,-1.933414,4.882729,-1.556077,-0.568367,-0.345212
27797,9.544374,-2.483486,4.432617,-1.986607,-0.458120,-0.249907
27798,9.416108,-3.159412,4.062842,-2.123655,-0.460458,-0.193459
27799,9.446683,-3.773399,3.900528,-2.075500,-0.490495,-0.120495
27800,9.457565,-4.283286,3.734564,-1.956085,-0.530109,-0.054385
27801,9.411988,-4.692003,3.596462,-1.785499,-0.565589,-0.007953
27802,9.313023,-4.875232,3.450098,-1.581552,-0.591427,0.003791
27803,9.260979,-4.815378,3.343450,-1.366168,-0.614194,0.012798
27804,9.197624,-4.557236,3.230730,-1.176684,-0.626202,0.019362
27805,9.147337,-4.235966,3.063385,-1.002137,-0.635239,0.046768
27806,9.168261,-3.810936,2.895020,-0.903328,-0.645579,0.074675
27807,9.288270,-3.494778,2.783549,-0.891324,-0.641079,0.112176
27808,9.454216,-3.323680,2.816555,-0.930207,-0.598140,0.137362
27809,9.571603,-3.305884,2.838891,-1.017944,-0.533465,0.184093
27810,9.448074,-3.376134,2.970043,-1.084488,-0.453627,0.202270
27811,9.231243,-3.535820,3.092302,-1.117497,-0.422695,0.229887
27812,9.076225,-3.784441,3.254314,-1.114341,-0.446031,0.251737
27813,9.036825,-4.024233,3.169591,-1.053122,-0.488876,0.252204
27814,9.230729,-4.017735,2.975274,-0.885807,-0.500539,0.247831
27815,9.440170,-3.853455,2.736673,-0.710941,-0.466880,0.248798
27816,9.568888,-3.635952,2.589128,-0.568216,-0.422131,0.255839
27817,9.639511,-3.452227,2.741837,-0.479500,-0.380149,0.263101
27818,9.638803,-3.518597,2.859071,-0.471012,-0.341753,0.258277
27819,9.681709,-3.626144,2.850089,-0.393370,-0.303863,0.230304
27820,9.644200,-3.612510,2.743809,-0.185735,-0.288849,0.194487
27821,9.625027,-3.455429,2.695197,-0.023092,-0.261628,0.166304
27822,9.590972,-3.307849,2.626248,0.038912,-0.229272,0.153504
27823,9.568293,-3.255525,2.519464,0.039412,-0.199520,0.146352
27824,9.571702,-3.280601,2.376609,0.045040,-0.177771,0.135134
27825,9.502312,-3.282374,2.264753,0.085269,-0.175837,0.128336
27826,9.467357,-3.283093,2.178572,0.111152,-0.179416,0.119258
27827,9.504322,-3.300425,2.040256,0.149606,-0.174477,0.108956
27828,9.599996,-3.228239,2.042321,0.195358,-0.162647,0.100658
27829,9.556150,-3.156222,2.171817,0.198570,-0.135783,0.099339
27830,9.527670,-3.220752,2.081634,0.170253,-0.120101,0.094808
27831,9.598059,-3.236112,1.974808,0.183593,-0.105031,0.077222
27832,9.567495,-3.113898,1.944052,0.208647,-0.070878,0.055617
27833,9.501066,-2.978664,2.042358,0.208682,-0.039385,0.037776
27834,9.461671,-2.936508,1.977816,0.128080,-0.017117,0.029951
27835,9.398083,-3.000479,1.896872,0.046415,0.010892,0.019044
27836,9.376801,-3.140562,1.877464,-0.007605,0.025694,0.007882
27837,9.373523,-3.288198,1.807882,-0.029889,0.052620,0.003442
27838,9.276199,-3.367198,1.801785,-0.044136,0.078756,-0.003234
27839,9.150326,-3.505711,1.713470,-0.060252,0.091919,-0.008656
27840,9.101506,-3.546526,1.615162,-0.044067,0.089998,-0.008338
27841,9.115031,-3.515645,1.552801,-0.033432,0.097068,-0.018229
27842,9.100286,-3.378329,1.582989,-0.028152,0.107675,-0.029198
27843,9.108894,-3.305026,1.702362,-0.048687,0.121145,-0.034792
27844,9.058189,-3.325277,1.708160,-0.106809,0.132137,-0.038290
27845,9.079807,-3.376700,1.732752,-0.126269,0.144632,-0.040407
27846,9.047965,-3.412468,1.735673,-0.147659,0.153143,-0.048956
27847,9.042581,-3.534935,1.748328,-0.175245,0.157254,-0.054546
27848,9.067563,-3.591640,1.597990,-0.163394,0.154416,-0.053270
27849,9.097609,-3.547511,1.589363,-0.125574,0.161831,-0.054893
27850,9.112196,-3.534103,1.651282,-0.136809,0.173237,-0.054493
27851,9.077057,-3.530702,1.637442,-0.138465,0.172882,-0.059518
27852,9.099262,-3.572244,1.615419,-0.150831,0.169655,-0.062847
27853,9.087247,-3.617619,1.592240,-0.169112,0.178624,-0.059415
27854,9.033662,-3.590833,1.531758,-0.172437,0.177081,-0.059851
27855,9.017757,-3.611143,1.561487,-0.183029,0.167329,-0.061339
27856,8.982373,-3.625132,1.641096,-0.167724,0.162668,-0.061168
27857,8.989297,-3.698649,1.684808,-0.165971,0.147908,-0.061306
27858,8.944066,-3.743665,1.632670,-0.163189,0.139072,-0.054853
27859,8.948578,-3.765925,1.584892,-0.140962,0.132042,-0.058064
27860,8.917945,-3.805172,1.607798,-0.115270,0.118432,-0.049609
27861,8.944632,-3.726576,1.604162,-0.077176,0.110254,-0.048396
27862,8.981630,-3.604186,1.659060,-0.061286,0.102178,-0.047112
27863,8.977559,-3.567496,1.671963,-0.081595,0.101878,-0.045870
27864,8.982581,-3.589338,1.623197,-0.094130,0.091152,-0.047564
27865,9.035818,-3.602223,1.650725,-0.095012,0.087051,-0.046823
27866,8.971586,-3.641107,1.646026,-0.099257,0.092209,-0.046643
27867,8.967765,-3.604606,1.656980,-0.092222,0.086441,-0.051633
27868,8.948002,-3.595905,1.711504,-0.088766,0.078536,-0.052196
27869,8.952673,-3.626837,1.708174,-0.110914,0.072118,-0.046877
27870,8.971029,-3.749874,1.636409,-0.108306,0.065761,-0.042530
27871,8.971603,-3.747615,1.638440,-0.083627,0.059716,-0.042870
27872,8.971275,-3.754300,1.688196,-0.071470,0.046834,-0.048183
27873,8.968652,-3.712523,1.672824,-0.051095,0.048526,-0.050443
27874,8.955645,-3.718670,1.623555,-0.048333,0.053524,-0.037768
27875,8.927757,-3.638989,1.665654,-0.045044,0.040303,-0.033984
27876,8.907291,-3.636332,1.741373,-0.052240,0.032080,-0.035200
27877,8.937674,-3.701913,1.654845,-0.058329,0.035903,-0.030404
27878,8.942092,-3.738237,1.672946,-0.042642,0.024715,-0.035320
27879,8.948682,-3.654318,1.715345,-0.023246,0.023566,-0.037856
27880,9.016343,-3.657564,1.791462,-0.030386,0.017980,-0.041243
27881,8.955298,-3.681601,1.710380,-0.025853,0.023856,-0.041625
27882,8.995605,-3.597665,1.778740,0.000382,0.012494,-0.041062
27883,8.996174,-3.493551,1.899381,-0.006786,0.004720,-0.047074
27884,9.053714,-3.548493,1.963633,-0.031400,0.008136,-0.044673
27885,9.016411,-3.730674,1.800046,-0.046189,0.017800,-0.044697
27886,8.969960,-3.740489,1.746550,-0.009260,0.012901,-0.044060
27887,8.929010,-3.668456,1.735264,0.027552,0.000994,-0.046503
27888,8.983944,-3.568949,1.831573,0.051995,-0.013371,-0.048750
27889,9.019994,-3.559629,1.834263,0.058217,-0.009740,-0.041991
27890,9.006860,-3.679974,1.735501,0.023213,0.009942,-0.022999
27891,8.859418,-3.794726,1.510468,0.023209,0.011663,-0.015590
27892,8.933679,-3.702569,1.557548,0.084602,-0.009711,-0.019820
27893,8.981817,-3.470144,1.781751,0.099721,-0.006542,-0.025861
27894,8.959379,-3.303256,1.841448,0.065536,0.005512,-0.024456
27895,8.928459,-3.352625,1.906906,0.018783,0.007569,-0.021108
27896,9.021242,-3.500945,1.830749,-0.015566,0.015164,-0.011646
27897,9.002611,-3.591028,1.738662,-0.004049,0.019193,-0.006940
27898,9.011727,-3.546684,1.799397,0.021657,0.020944,-0.019697
27899,8.998462,-3.443463,1.821674,0.030437,0.016038,-0.024445
27900,9.022314,-3.493891,1.838924,0.009302,0.018904,-0.024282
27901,9.018293,-3.568507,1.776037,0.007586,0.024607,-0.016614
