// Start Time: Unknown
// Update Rate: 100.0Hz
// Filter Profile: human (46.1)
// Firmware Version: 4.3.5
PacketCounter,Acc_X,Acc_Y,Acc_Z,Gyr_X,Gyr_Y,Gyr_Z
30280,9.113547,-2.441750,3.073079,-0.002164,0.011987,-0.011810
30281,9.113186,-2.431979,3.040803,0.003418,0.013287,-0.013941
30282,9.137566,-2.460725,3.087443,0.001970,0.009714,-0.015260
30283,9.122265,-2.405756,3.066673,0.005897,0.010425,-0.013422
30284,9.106256,-2.422453,3.116736,0.002280,0.011351,-0.013609
30285,9.170150,-2.437651,3.059596,0.002280,0.011351,-0.013610
30286,9.146275,-2.423456,3.082058,0.003415,0.011412,-0.010707
30287,9.153774,-2.444732,3.077315,0.004502,0.010098,-0.012891
30288,9.144999,-2.475549,3.088047,0.008427,0.008940,-0.007816
30289,9.177748,-2.463893,3.091699,0.014578,0.012143,-0.011730
30290,9.153548,-2.441008,3.080940,0.013181,0.009946,-0.007961
30291,9.121996,-2.404429,3.109421,0.014884,0.011911,-0.006843
30292,9.112154,-2.409906,3.020434,0.014413,0.016504,-0.001358
30293,9.102968,-2.441306,3.031974,0.016635,0.015252,-0.000637
30294,9.151742,-2.420660,3.020512,0.019637,0.011046,-0.003750
30295,9.217384,-2.407386,3.060362,0.022995,0.011727,-0.003363
30296,9.193247,-2.393308,3.083351,0.017984,0.014194,-0.006259
30297,9.185523,-2.369473,3.090650,0.010655,0.011416,-0.013574
30298,9.143829,-2.410617,3.099336,0.007649,0.013754,-0.007226
30299,9.070265,-2.399328,3.068029,0.008124,0.009157,-0.012709
30300,9.134444,-2.423187,3.044606,0.013488,0.011578,-0.006314
30301,9.126630,-2.399879,3.051741,0.013225,0.011319,-0.002878
30302,9.101989,-2.369357,3.007458,0.010740,0.012310,-0.000165
30303,9.092901,-2.400879,3.018648,0.013532,0.012958,-0.001228
30304,9.142052,-2.397365,3.074176,0.013842,0.016464,-0.002818
30305,9.141203,-2.379657,3.009112,0.015237,0.016788,-0.003351
30306,9.141112,-2.387017,3.044357,0.012101,0.014978,-0.012263
30307,9.124693,-2.394966,3.061381,0.012621,0.011762,-0.012657
30308,9.173566,-2.365031,3.016237,0.012621,0.011761,-0.012657
30309,9.157244,-2.372883,3.033041,0.012316,0.010119,-0.014307
30310,9.140740,-2.372312,3.016310,0.013447,0.010186,-0.011402
30311,9.155749,-2.407384,2.972521,0.008128,0.009144,-0.012714
30312,9.172304,-2.405052,2.991389,0.005597,0.006887,-0.011847
30313,9.181326,-2.388846,3.049654,0.010698,0.012785,-0.008495
30314,9.124172,-2.368225,3.002566,0.009780,0.005996,-0.010201
30315,9.100255,-2.354012,3.024705,0.009258,0.009210,-0.009809
30316,9.107915,-2.375405,3.019702,0.003892,0.003056,-0.009725
30317,9.124360,-2.364798,3.004696,0.005858,0.005277,-0.012045
30318,9.132355,-2.394366,3.032931,0.005815,0.002027,-0.013889
30319,9.157829,-2.359888,3.041401,0.007472,0.000743,-0.014617
30320,9.133014,-2.391277,3.033384,0.003550,0.000023,-0.016460
30321,9.133508,-2.389331,3.033430,0.004342,-0.001077,-0.023531
30322,9.142777,-2.355017,3.023680,0.013540,-0.002562,-0.022221
30323,9.134709,-2.384802,3.033377,0.005165,-0.004512,-0.019033
30324,9.119970,-2.338020,3.044567,0.001285,-0.001984,-0.019032
30325,9.135598,-2.372787,2.999455,-0.002072,-0.002671,-0.019422
30326,9.136534,-2.388081,3.065997,-0.004036,-0.004894,-0.017102
30327,9.160961,-2.399703,3.044418,-0.006219,-0.000398,-0.015984
30328,9.137407,-2.385365,3.065511,-0.003428,0.000253,-0.017047
30329,9.129131,-2.407360,3.041380,-0.004075,-0.008146,-0.018948
30330,9.146050,-2.396018,3.025431,0.003509,-0.001371,-0.021551
30331,9.146955,-2.402303,3.058507,0.000639,-0.008525,-0.024177
30332,9.163796,-2.382117,3.008965,0.003469,-0.004624,-0.023397
30333,9.124317,-2.376431,3.045165,-0.005770,-0.006403,-0.026551
30334,9.124045,-2.420264,3.014929,-0.004112,-0.009545,-0.024037
30335,9.141370,-2.417048,3.032098,0.000375,-0.006922,-0.023985
30336,9.109220,-2.416945,2.995438,0.002298,-0.009811,-0.024909
30337,9.102511,-2.391969,3.000158,0.005315,-0.014018,-0.028015
30338,9.127760,-2.410740,3.011312,0.008407,-0.013581,-0.024189
30339,9.128762,-2.408278,3.010245,0.010632,-0.014825,-0.023465
30340,9.097179,-2.416238,3.006414,0.009992,-0.021370,-0.028609
30341,9.007139,-2.513650,2.961790,0.014336,-0.035474,-0.029454
30342,8.898325,-2.758263,2.843224,0.036715,-0.062520,-0.029791
30343,8.667160,-3.209140,2.850073,0.120540,-0.116755,-0.029204
30344,8.217547,-3.851008,3.006466,0.258361,-0.199010,-0.013152
30345,7.898092,-4.559792,3.520989,0.486344,-0.323842,0.021414
30346,7.947125,-4.635037,4.594981,0.690791,-0.454429,0.086381
30347,8.242062,-3.869246,5.747718,0.778230,-0.521742,0.189511
30348,9.006763,-3.495268,6.888270,0.748603,-0.535091,0.267170
30349,9.965760,-4.130946,7.759641,0.631593,-0.408019,0.348664
30350,10.438689,-4.979416,8.408354,0.597421,-0.168744,0.419417
30351,9.982241,-5.226692,8.237822,0.669274,0.052493,0.463511
30352,9.751141,-5.292487,7.734265,0.769802,0.221907,0.498029
30353,9.694999,-5.571473,7.295260,0.859533,0.377664,0.547550
30354,9.842125,-6.143629,7.245948,0.955295,0.519652,0.608431
30355,10.048820,-6.629798,7.753415,1.083422,0.690179,0.702756
30356,10.283986,-6.879645,8.249075,1.203220,0.869792,0.832857
30357,10.698166,-6.846727,8.649647,1.288150,1.064414,0.980803
30358,11.076344,-6.573595,8.891825,1.321759,1.273555,1.137615
30359,11.238787,-6.221583,8.923700,1.281997,1.483013,1.307806
30360,11.063634,-5.982373,9.000055,1.199908,1.673923,1.465429
30361,10.933475,-5.909329,9.143016,1.094865,1.833332,1.617849
30362,10.938486,-6.204351,9.333544,1.014952,1.972528,1.749223
30363,11.170401,-6.650362,9.638154,0.999524,2.119763,1.888515
30364,11.402167,-6.802548,9.552863,1.026580,2.258021,2.010589
30365,11.591241,-6.864119,9.242712,1.039692,2.391554,2.136728
30366,11.658101,-7.128483,8.797644,1.046679,2.511785,2.264494
30367,11.573665,-7.642733,8.384009,1.103260,2.603283,2.396675
30368,11.559403,-8.025926,8.144309,1.229434,2.670432,2.519442
30369,11.587243,-8.152422,8.091781,1.417593,2.731793,2.633482
30370,11.528636,-7.980656,8.071611,1.591688,2.801489,2.727035
30371,11.572320,-7.802648,8.026595,1.716531,2.861481,2.806231
30372,11.502112,-7.694050,8.014831,1.779347,2.922190,2.880584
30373,11.223577,-7.578475,7.924954,1.812666,2.977228,2.954382
30374,10.832045,-7.552867,7.920280,1.828386,3.012961,3.020634
30375,10.621143,-7.416906,7.650613,1.840020,3.037379,3.084061
30376,10.370601,-7.432465,7.467021,1.821258,3.049233,3.157142
30377,10.177203,-7.522830,7.171143,1.804677,3.046735,3.245174
30378,10.086770,-7.602850,6.927674,1.818035,3.032245,3.318026
30379,9.907378,-7.657748,6.690176,1.842907,3.021197,3.396752
30380,9.343575,-7.458937,6.387147,1.854876,2.996624,3.496881
30381,8.740688,-7.416183,6.063696,1.851871,2.931451,3.580116
30382,8.344241,-7.619098,5.788944,1.867013,2.842448,3.660907
30383,7.917347,-7.750178,5.397713,1.917256,2.737581,3.741413
30384,7.430789,-7.413991,5.224653,2.032877,2.629336,3.801244
30385,7.081579,-7.449252,5.336072,2.199980,2.525249,3.845332
30386,7.017778,-8.437199,5.127428,2.569712,2.449043,3.872619
30387,6.905721,-9.734158,4.528599,3.191533,2.375611,3.873843
30388,6.477371,-9.925178,3.992970,3.951966,2.322166,3.878367
30389,5.845635,-8.254908,3.689523,4.521395,2.255026,3.898623
30390,5.385963,-6.125933,3.542156,4.691590,2.192447,3.933177
30391,5.071006,-4.278338,3.608595,4.497124,2.128256,3.970841
30392,4.711622,-2.918268,3.930660,4.108234,2.089884,4.001968
30393,4.471851,-2.147141,4.665825,3.597618,2.051673,4.051739
30394,4.186156,-1.508573,5.083336,3.061358,2.019105,4.116753
30395,3.838404,-1.034200,5.152736,2.545009,1.989595,4.166714
30396,3.425464,-0.921172,5.032389,2.113697,1.959676,4.213085
30397,2.764330,-1.027352,4.639840,1.788983,1.897647,4.242759
30398,2.283105,-1.170312,4.336766,1.614862,1.809927,4.258074
30399,2.169175,-1.547703,4.423560,1.537444,1.733263,4.276264
30400,2.159605,-1.395669,4.468262,1.496295,1.661367,4.299182
30401,2.091238,-0.659343,4.609302,1.455116,1.611298,4.321272
30402,1.832716,0.190954,4.707632,1.356408,1.556669,4.330308
30403,1.550991,0.832765,4.891889,1.233817,1.512938,4.318918
30404,1.273472,1.139317,5.170685,1.098532,1.472162,4.299123
30405,1.040006,1.300553,5.280026,1.041611,1.420997,4.271750
30406,1.097103,1.729012,5.507800,1.012915,1.375540,4.236914
30407,1.017488,2.202910,5.605008,0.978255,1.350131,4.205366
30408,0.953673,2.871717,5.740248,0.914244,1.318831,4.155704
30409,0.928094,3.574587,5.906450,0.757700,1.286266,4.114338
30410,0.905916,4.342362,6.154050,0.502718,1.254191,4.072616
30411,0.792950,5.498214,6.494873,0.089195,1.215960,4.047333
30412,0.532907,6.393333,6.732533,-0.427983,1.168146,4.008424
30413,0.251028,6.422047,6.770594,-0.932109,1.101787,3.960923
30414,0.070075,5.602348,6.665006,-1.266444,1.004522,3.895103
30415,0.031871,4.720598,6.705906,-1.392063,0.897858,3.822870
30416,0.123939,4.403285,6.675565,-1.389625,0.811772,3.732322
30417,-0.019639,4.556381,6.805414,-1.364113,0.733834,3.631687
30418,-0.238522,4.593432,7.011541,-1.330358,0.649340,3.528588
30419,-0.414984,4.656692,7.253703,-1.277377,0.549837,3.407583
30420,-0.348989,4.785180,7.518687,-1.210325,0.459785,3.282283
30421,-0.110448,4.993315,7.709987,-1.158527,0.387619,3.137202
30422,-0.117906,5.189965,8.013016,-1.143669,0.341460,2.989001
30423,-0.240360,5.431986,8.269684,-1.157321,0.280896,2.831391
30424,-0.341337,5.416987,8.513118,-1.190967,0.233132,2.673192
30425,-0.335834,5.231002,8.518945,-1.210274,0.173666,2.497431
30426,-0.411798,4.982327,8.656141,-1.181645,0.139163,2.325765
30427,-0.561135,4.911656,8.704955,-1.093724,0.092249,2.129876
30428,-0.783422,5.025174,8.813243,-0.978449,0.044255,1.921662
30429,-0.753535,5.014783,8.980188,-0.854490,-0.006714,1.699176
30430,-0.554644,5.115093,9.146976,-0.713384,-0.058756,1.464971
30431,-0.528068,5.394503,9.343876,-0.567161,-0.088494,1.211107
30432,-0.738560,5.776017,9.512775,-0.383156,-0.130274,0.927871
30433,-0.487281,5.875847,9.823821,-0.142004,-0.134531,0.573431
30434,-0.541063,6.227551,9.706119,0.271090,-0.176654,0.169211
30435,-0.334931,7.557864,9.991288,0.616688,-0.174609,-0.252529
30436,-0.067264,8.595232,10.577600,0.654063,-0.174180,-0.606767
30437,0.027166,8.501327,10.941112,0.448970,-0.164619,-0.928610
30438,0.141622,7.286308,10.887644,0.210941,-0.170710,-1.228844
30439,0.133217,6.003077,10.650607,0.126478,-0.172228,-1.519622
30440,0.212085,5.148055,10.383748,0.255676,-0.207360,-1.827735
30441,0.493305,4.731487,10.103387,0.572049,-0.265261,-2.165243
30442,0.789159,4.816534,9.975501,0.985369,-0.318734,-2.509102
30443,1.109051,5.504665,9.964618,1.364398,-0.375434,-2.866704
30444,1.279285,5.986724,10.026777,1.645514,-0.435860,-3.216132
30445,1.516883,6.123638,10.079078,1.862532,-0.492930,-3.553932
30446,1.628571,6.169122,10.051776,2.060887,-0.555303,-3.879526
30447,1.732681,6.304507,9.989088,2.232378,-0.622405,-4.185630
30448,1.790993,6.363539,9.957762,2.369014,-0.693953,-4.469648
30449,1.822894,6.415225,9.893146,2.476039,-0.783221,-4.734863
30450,1.849226,6.554428,9.728049,2.565310,-0.890128,-4.971194
30451,1.805170,6.645432,9.441841,2.636508,-1.008167,-5.191893
30452,1.754481,6.781533,9.190595,2.700509,-1.144809,-5.378990
30453,1.684179,6.928855,8.970580,2.716474,-1.289363,-5.531613
30454,1.530400,6.952988,8.956631,2.712207,-1.433233,-5.658001
30455,1.482987,6.895620,8.938960,2.687183,-1.587399,-5.758830
30456,1.478911,6.870042,8.980965,2.632473,-1.736085,-5.835792
30457,1.599318,6.736668,9.040823,2.566885,-1.867941,-5.889155
30458,1.580980,6.593045,9.193567,2.481140,-1.978729,-5.933310
30459,1.650043,6.263653,9.378699,2.401435,-2.077292,-5.959594
30460,1.647896,5.782778,9.388004,2.349671,-2.154348,-5.969295
30461,1.607339,5.235339,9.373518,2.360876,-2.224338,-5.972397
30462,1.514295,4.773068,9.274438,2.432776,-2.280873,-5.969378
30463,1.233125,4.568937,9.137434,2.536333,-2.339534,-5.944009
30464,0.872874,4.604813,8.805742,2.630552,-2.430346,-5.926541
30465,0.786135,4.772665,8.554538,2.697035,-2.543996,-5.904610
30466,0.850518,4.939108,8.336580,2.690688,-2.650448,-5.866151
30467,0.990106,5.164796,8.144636,2.638489,-2.755027,-5.820274
30468,1.030547,5.250837,7.900108,2.565010,-2.859544,-5.770866
30469,1.032980,5.218700,7.568499,2.523833,-2.983419,-5.737281
30470,1.243149,5.063573,7.446984,2.504488,-3.094969,-5.700924
30471,1.489658,4.991479,7.561169,2.484792,-3.199850,-5.640100
30472,1.686630,5.134779,7.999795,2.412186,-3.304128,-5.554095
30473,1.968774,5.312915,8.665421,2.230543,-3.384106,-5.455581
30474,2.421181,5.439937,9.277744,1.996654,-3.430917,-5.366569
30475,2.756836,5.434231,9.657155,1.729494,-3.428381,-5.290510
30476,3.021606,5.304725,9.793706,1.448841,-3.397375,-5.236526
30477,3.154400,5.144115,9.891002,1.155341,-3.340768,-5.194099
30478,3.339698,5.102916,9.789051,0.822499,-3.282649,-5.152846
30479,3.530033,4.954553,9.718481,0.473210,-3.205239,-5.120540
30480,3.928580,4.663857,9.657439,0.123244,-3.132844,-5.081459
30481,4.441021,4.348347,9.741861,-0.187190,-3.024226,-5.059225
30482,4.815076,4.044118,9.692735,-0.459598,-2.881837,-5.046673
30483,5.073914,3.754674,9.543533,-0.724094,-2.738096,-5.037543
30484,5.246789,3.497152,9.365610,-0.994696,-2.581211,-5.009727
30485,5.377170,3.313986,9.178827,-1.286861,-2.422788,-4.965092
30486,5.371442,3.036430,9.057762,-1.603015,-2.256489,-4.910270
30487,5.236313,2.747968,8.799511,-1.942494,-2.094682,-4.829246
30488,4.613257,2.207608,7.945071,-2.344322,-1.949382,-4.711128
30489,3.317500,1.041355,7.180951,-2.707221,-1.888538,-4.523168
30490,2.569865,-0.645363,7.394963,-2.744030,-1.914769,-4.406274
30491,3.173500,-2.415624,7.955668,-2.450974,-1.934391,-4.342496
30492,3.910451,-3.159008,8.653861,-1.921972,-1.892043,-4.282750
30493,4.307166,-2.547915,9.074068,-1.502763,-1.821378,-4.196781
30494,4.036322,-1.271807,8.728431,-1.431758,-1.727640,-4.076629
30495,3.167146,-0.854941,8.213563,-1.681790,-1.662336,-3.940467
30496,2.517338,-1.841739,8.111222,-1.935375,-1.628312,-3.816982
30497,2.556456,-3.780484,8.377483,-1.987165,-1.595095,-3.690435
30498,2.968003,-5.971125,9.152727,-1.749151,-1.543805,-3.533206
30499,3.518178,-7.796012,10.153995,-1.272541,-1.429111,-3.270054
30500,3.538947,-8.920103,10.676624,-0.688910,-1.260716,-2.906942
30501,2.809589,-9.012678,10.955413,-0.115700,-1.085307,-2.484686
30502,1.901453,-8.224277,11.023801,0.366977,-0.945772,-2.085491
30503,1.285501,-7.083205,11.387495,0.685242,-0.847602,-1.743474
30504,1.239781,-5.962550,11.837553,0.769731,-0.760612,-1.480271
30505,1.573015,-5.145265,11.989255,0.638390,-0.673872,-1.266436
30506,1.661109,-4.723383,12.287060,0.343435,-0.568685,-1.101656
30507,1.449951,-4.775555,12.439353,-0.025384,-0.484579,-0.974885
30508,1.178466,-5.097076,12.586485,-0.398081,-0.392107,-0.844178
30509,0.818867,-5.640313,12.656813,-0.702178,-0.298351,-0.710739
30510,0.404805,-6.515888,12.813527,-0.886108,-0.223295,-0.578067
30511,0.424596,-7.552606,13.014395,-0.912628,-0.173290,-0.443481
30512,0.778872,-8.459245,13.158219,-0.759009,-0.103757,-0.300184
30513,0.990359,-8.879569,13.122292,-0.508624,-0.028970,-0.142633
30514,1.006963,-8.553656,13.026464,-0.269036,0.041786,0.014617
30515,0.860631,-7.905327,12.918654,-0.156687,0.119294,0.172719
30516,0.594856,-7.473793,12.868303,-0.167570,0.208370,0.328271
30517,0.427404,-7.624884,12.781400,-0.208146,0.284705,0.478508
30518,0.720923,-8.045608,12.686707,-0.178300,0.356594,0.639094
30519,0.998646,-8.195970,12.474101,-0.097571,0.444185,0.818692
30520,1.153114,-8.010313,12.273114,-0.012607,0.532857,1.030217
30521,1.194693,-7.728539,12.137197,0.039181,0.624335,1.260659
30522,1.296993,-7.283881,12.075901,0.044460,0.716386,1.494920
30523,1.449128,-6.976096,12.030285,0.006964,0.817487,1.755292
30524,1.625903,-6.721618,11.855930,-0.049567,0.917193,2.020610
30525,1.845166,-6.595254,11.611011,-0.092121,1.019832,2.285871
30526,2.109765,-6.583830,11.371039,-0.095141,1.125345,2.556852
30527,2.297499,-6.357553,11.053774,-0.084226,1.225494,2.835114
30528,2.267427,-5.959521,10.674127,-0.085654,1.318967,3.110320
30529,2.248748,-5.595735,10.329007,-0.109433,1.392800,3.383425
30530,2.409609,-5.343116,10.122320,-0.110354,1.464699,3.641911
30531,2.591731,-5.137019,9.938633,-0.097932,1.512730,3.894375
30532,2.808831,-4.881217,9.866812,-0.081511,1.564022,4.146925
30533,3.020747,-4.630412,9.828793,-0.080707,1.602928,4.381826
30534,3.262551,-4.296355,9.680574,-0.098716,1.640132,4.614685
30535,3.349822,-3.831807,9.486437,-0.140096,1.668960,4.829517
30536,3.319843,-3.360649,9.297973,-0.200041,1.670782,5.017116
30537,3.158572,-2.934976,9.204470,-0.272153,1.669908,5.184371
30538,3.017740,-2.600976,9.093360,-0.333710,1.647107,5.326774
30539,2.848093,-2.238908,9.035094,-0.385992,1.618596,5.455905
30540,2.922683,-1.870583,9.042131,-0.440003,1.584274,5.556223
30541,2.934268,-1.439270,9.000509,-0.503710,1.561364,5.638560
30542,2.901213,-0.974005,8.931679,-0.589172,1.546941,5.705714
30543,2.710270,-0.525146,8.923213,-0.727394,1.531919,5.765880
30544,2.481800,-0.074780,8.915643,-0.886400,1.524836,5.810352
30545,2.129869,0.297412,8.704232,-1.043330,1.498973,5.840990
30546,1.733693,0.441475,8.391278,-1.174831,1.459804,5.854941
30547,1.410249,0.418990,8.190609,-1.233196,1.406115,5.849221
30548,1.154874,0.285937,7.953296,-1.209822,1.346885,5.841961
30549,1.061384,0.195618,7.865044,-1.106468,1.280071,5.823879
30550,1.107066,0.107580,7.883595,-0.933017,1.226223,5.799254
30551,1.161987,0.363347,7.856518,-0.727177,1.194307,5.765578
30552,1.234963,0.848777,7.953170,-0.552872,1.187255,5.727171
30553,1.280421,1.469428,7.865366,-0.437441,1.205668,5.685964
30554,1.215104,2.021737,7.665966,-0.352965,1.231120,5.607913
30555,1.098665,2.644157,7.648753,-0.342430,1.280487,5.541657
30556,0.915765,3.392835,7.649948,-0.395895,1.359071,5.446002
30557,0.576531,4.105019,7.872056,-0.523735,1.439261,5.338854
30558,0.209494,4.640735,8.049174,-0.736108,1.483929,5.226726
30559,-0.004100,4.791746,8.196378,-0.958049,1.489468,5.113439
30560,0.126135,4.579441,8.335244,-1.170787,1.473280,5.021297
30561,0.384199,4.304292,8.343017,-1.334668,1.488261,4.963840
30562,0.458484,4.294252,8.611930,-1.463906,1.514076,4.897250
30563,0.246640,4.564544,8.682264,-1.601522,1.559449,4.820714
30564,-0.076003,4.996898,8.892682,-1.773695,1.619419,4.733522
30565,-0.689507,5.260267,8.994510,-1.966552,1.597921,4.650386
30566,-0.841010,5.089611,9.260802,-2.132291,1.490847,4.594537
30567,-0.605445,4.618437,9.553670,-2.207506,1.396208,4.557406
30568,-0.219491,4.264269,9.719531,-2.211505,1.312181,4.523461
30569,-0.088236,4.348887,9.889562,-2.213201,1.255472,4.495070
30570,-0.078613,4.576251,10.041071,-2.266925,1.214364,4.461215
30571,-0.278605,4.764055,9.896445,-2.346788,1.188611,4.404562
30572,-0.486039,4.386158,9.997388,-2.350460,1.155876,4.326944
30573,-0.511179,3.625210,10.106410,-2.242031,1.073968,4.270235
30574,-0.477978,3.191195,10.387319,-2.045907,0.942946,4.234587
30575,-0.327201,3.440632,10.738396,-1.849973,0.812091,4.209690
30576,-0.125521,4.076454,11.001234,-1.751413,0.707153,4.165904
30577,-0.023597,4.756539,11.053470,-1.773154,0.628735,4.105892
30578,0.122250,5.147053,10.976033,-1.850301,0.581680,4.019507
30579,0.134154,5.020041,11.220012,-1.876934,0.558034,3.917151
30580,0.164887,4.749433,11.281020,-1.835275,0.556769,3.805699
30581,-0.057364,4.624297,11.484230,-1.711794,0.566357,3.670282
30582,-0.022191,4.662367,11.441844,-1.586959,0.537278,3.528037
30583,0.096007,5.175658,11.293334,-1.517688,0.536796,3.363352
30584,0.060436,5.482724,11.184896,-1.527342,0.530265,3.184815
30585,-0.015031,5.644817,10.956333,-1.569770,0.516099,3.000615
30586,-0.522309,5.781243,10.942201,-1.610470,0.510662,2.801838
30587,-0.830795,6.136629,10.649884,-1.647405,0.484993,2.593732
30588,-0.994090,6.353266,10.452944,-1.684683,0.472576,2.356628
30589,-1.173588,6.344900,10.172980,-1.702253,0.444383,2.098161
30590,-1.304641,6.178025,9.939463,-1.682164,0.417863,1.807045
30591,-1.237183,5.830765,9.618377,-1.632866,0.394444,1.510278
30592,-1.365214,5.838231,9.684986,-1.523205,0.378365,1.200487
30593,-1.626514,5.772093,9.859674,-1.383625,0.367609,0.877932
30594,-1.617278,5.582379,9.920383,-1.215166,0.363298,0.547697
30595,-1.420009,5.207373,9.878026,-0.992954,0.385453,0.201241
30596,-1.502488,4.970417,9.732384,-0.723772,0.429252,-0.147889
30597,-1.621044,5.139646,9.530425,-0.438458,0.482682,-0.493673
30598,-1.752282,5.504768,9.295089,-0.215240,0.533619,-0.842232
30599,-1.643866,5.599642,8.916439,-0.057906,0.574198,-1.189075
30600,-1.483313,5.563299,8.470110,0.041541,0.625117,-1.528029
30601,-1.337648,5.403702,8.080758,0.105217,0.660297,-1.857932
30602,-1.232423,5.206855,7.684206,0.153723,0.693156,-2.180954
30603,-1.129086,4.977429,7.272046,0.192728,0.716371,-2.487990
30604,-0.987600,4.858668,6.954203,0.205341,0.740526,-2.791662
30605,-0.880538,4.799167,6.580096,0.166547,0.756845,-3.078970
30606,-0.693667,4.751256,6.194978,0.069179,0.769148,-3.364415
30607,-0.500088,4.569925,5.834394,-0.067340,0.788312,-3.639367
30608,-0.341282,4.249994,5.484210,-0.215047,0.803727,-3.903378
30609,-0.283570,3.907147,5.142871,-0.356409,0.805837,-4.144234
30610,-0.141855,3.599974,4.870458,-0.517194,0.794526,-4.373074
30611,-0.095581,3.255601,4.578769,-0.668536,0.783246,-4.598804
30612,-0.047090,2.925431,4.367091,-0.832474,0.772476,-4.811560
30613,0.020479,2.566988,4.194177,-0.982657,0.755768,-5.025195
30614,0.132706,2.321706,4.019028,-1.153608,0.751384,-5.237090
30615,0.190243,2.083305,3.873374,-1.337672,0.753520,-5.447796
30616,0.314747,1.696630,3.693619,-1.524648,0.761742,-5.654360
30617,0.384837,0.881983,3.731486,-1.646979,0.746505,-5.857676
30618,0.541244,0.097033,3.818130,-1.700621,0.698290,-6.020825
30619,0.858600,-0.595416,3.800953,-1.715821,0.655796,-6.186485
30620,1.094593,-1.599060,3.654765,-1.727182,0.656306,-6.345198
30621,1.155632,-2.810162,3.398936,-1.690599,0.648775,-6.510204
30622,1.160257,-4.212481,3.222414,-1.527488,0.601630,-6.657810
30623,0.968513,-5.527491,3.367991,-1.201602,0.455927,-6.735327
30624,0.696120,-6.377308,3.648037,-0.726269,0.209680,-6.764680
30625,0.611800,-7.068512,4.118429,-0.150070,-0.079368,-6.808351
30626,0.927558,-7.544934,4.861977,0.423424,-0.359859,-6.835585
30627,1.489979,-7.561731,5.510344,0.955911,-0.636778,-6.836612
30628,2.140707,-7.346018,6.192123,1.396841,-0.904578,-6.808917
30629,2.956456,-7.334342,7.263021,1.601771,-1.160633,-6.734521
30630,4.268941,-6.872523,8.490761,1.526870,-1.411918,-6.541706
30631,5.411635,-6.126031,9.061260,1.206607,-1.640165,-6.286333
30632,5.993741,-5.496121,9.041231,0.722388,-1.813919,-6.068530
30633,5.925293,-5.055697,8.792791,0.129714,-1.969882,-5.898186
30634,5.761077,-4.983482,8.472632,-0.527813,-2.142490,-5.734141
30635,6.016278,-5.189492,8.080380,-1.206693,-2.319562,-5.564823
30636,6.896438,-5.734538,7.660866,-1.832795,-2.440131,-5.380550
30637,7.811078,-6.397438,7.122237,-2.291298,-2.525136,-5.216938
30638,8.528869,-7.359112,6.820459,-2.582656,-2.576642,-5.089872
30639,9.150410,-8.218546,6.776042,-2.689373,-2.594099,-4.979095
30640,9.751900,-8.847653,6.681549,-2.643609,-2.599309,-4.878265
30641,10.172401,-9.124133,6.451829,-2.448807,-2.593986,-4.806607
30642,10.199316,-8.995515,6.246071,-2.177416,-2.581697,-4.731422
30643,10.452411,-8.716016,6.111323,-1.899910,-2.585732,-4.676393
30644,10.561600,-8.061703,5.960145,-1.649808,-2.579138,-4.607364
30645,10.951862,-7.574722,5.749906,-1.484865,-2.587678,-4.557329
30646,11.689156,-7.387970,5.732689,-1.402807,-2.574960,-4.487089
30647,12.553536,-7.130506,5.611899,-1.377342,-2.546575,-4.383582
30648,13.413624,-7.165383,5.359168,-1.374741,-2.494279,-4.254752
30649,13.956419,-7.367320,4.954494,-1.363662,-2.419610,-4.080594
30650,13.989552,-7.518973,4.515710,-1.316445,-2.322397,-3.859908
30651,13.667911,-7.505999,4.199384,-1.239018,-2.248799,-3.611807
30652,13.013150,-7.466732,3.866965,-1.115010,-2.196549,-3.334542
30653,12.328210,-7.311747,3.787760,-0.927935,-2.170425,-3.069623
30654,11.705294,-7.230756,4.059368,-0.687625,-2.154315,-2.807903
30655,11.431544,-7.104442,4.400151,-0.386128,-2.144922,-2.563558
30656,11.418414,-6.891075,4.757998,-0.066923,-2.111811,-2.331379
30657,11.578572,-6.551792,4.994717,0.216323,-2.061204,-2.106556
30658,11.693991,-5.940438,5.096073,0.400115,-1.980932,-1.893585
30659,11.768418,-5.279203,5.106858,0.435056,-1.889857,-1.691319
30660,11.534919,-4.811370,4.982414,0.330337,-1.794966,-1.491817
30661,11.217229,-4.621481,4.810913,0.186422,-1.708830,-1.317854
30662,10.997221,-4.684192,4.804330,0.078811,-1.635633,-1.161219
30663,10.823852,-4.771167,4.927921,0.029661,-1.566079,-1.027772
30664,10.773852,-4.705172,5.224063,0.064030,-1.481762,-0.916912
30665,10.718735,-4.264031,5.355197,0.068851,-1.385411,-0.818456
30666,10.555086,-3.761654,5.424107,0.014077,-1.280236,-0.717829
30667,10.290022,-3.407425,5.487178,-0.092018,-1.189937,-0.639470
30668,10.151577,-3.266918,5.669878,-0.214794,-1.117853,-0.579775
30669,10.063457,-3.336765,5.878110,-0.318658,-1.031052,-0.529445
30670,10.049073,-3.579764,6.124291,-0.376498,-0.947961,-0.488297
30671,10.028235,-3.778011,6.385270,-0.377020,-0.852059,-0.445165
30672,9.907345,-3.841522,6.582863,-0.348106,-0.758417,-0.396327
30673,9.841042,-3.758292,6.803471,-0.308895,-0.652539,-0.342385
30674,9.729959,-3.542943,6.761107,-0.286827,-0.563262,-0.272620
30675,9.878235,-2.983051,7.084874,-0.339630,-0.448370,-0.196598
30676,10.066089,-3.091590,7.296568,-0.437077,-0.272281,-0.128485
30677,10.167029,-3.918693,6.991012,-0.455600,-0.130347,-0.044148
30678,10.197583,-4.363236,6.688674,-0.323192,0.012553,0.043303
30679,10.167093,-4.282702,6.391283,-0.164027,0.159860,0.131091
30680,9.917372,-4.055977,5.945918,-0.008754,0.274359,0.215508
30681,9.830819,-3.815110,5.339467,0.129980,0.360880,0.291879
30682,9.730897,-3.642805,4.790582,0.232670,0.444245,0.381042
30683,9.695947,-3.389836,4.325507,0.315875,0.498072,0.454034
30684,9.791042,-3.121614,3.841590,0.354533,0.547629,0.518287
30685,9.933630,-3.017488,3.453754,0.359144,0.591226,0.576072
30686,10.041032,-2.984413,3.142176,0.347603,0.644477,0.624093
30687,10.070592,-2.893682,2.916342,0.334977,0.684035,0.666593
30688,10.025493,-2.643227,2.705479,0.302554,0.704304,0.699926
30689,10.006087,-2.341301,2.577899,0.230394,0.724460,0.715798
30690,9.820026,-2.112422,2.406177,0.136220,0.726231,0.738988
30691,9.610245,-1.826578,2.259450,0.005354,0.716133,0.741501
30692,9.390869,-1.619696,2.183582,-0.131285,0.701156,0.732989
30693,9.221633,-1.632022,2.047829,-0.266134,0.677101,0.711667
30694,9.090371,-1.690546,2.034594,-0.379418,0.644562,0.680571
30695,9.000040,-1.825557,1.974234,-0.471588,0.614733,0.643401
30696,8.933004,-1.972331,2.015997,-0.539929,0.574789,0.611069
30697,8.926922,-2.148012,1.996189,-0.583607,0.535288,0.571438
30698,8.924094,-2.390689,1.992410,-0.594922,0.497404,0.542610
30699,8.956606,-2.640184,1.919852,-0.564623,0.455650,0.522466
30700,8.925621,-2.784734,1.876659,-0.492911,0.412803,0.503367
30701,8.983226,-2.837856,1.802794,-0.381009,0.367485,0.480724
30702,9.039071,-2.849893,1.768330,-0.247615,0.314807,0.460228
30703,9.128634,-2.846985,1.741297,-0.101769,0.265802,0.439999
30704,9.193498,-2.764182,1.716054,0.034076,0.218492,0.422042
30705,9.175089,-2.692994,1.756398,0.156353,0.172742,0.400637
30706,9.143729,-2.544459,1.755877,0.246768,0.131207,0.378783
30707,9.137291,-2.432148,1.791356,0.301697,0.089528,0.356854
30708,9.117154,-2.384545,1.825200,0.330473,0.049000,0.343744
30709,9.059459,-2.340299,1.948273,0.343008,0.013766,0.321761
30710,9.010287,-2.297995,1.967736,0.349183,-0.020268,0.302122
30711,8.995191,-2.328041,2.103286,0.347666,-0.051330,0.282191
30712,8.983840,-2.393358,2.197116,0.347958,-0.079080,0.265618
30713,8.929867,-2.407857,2.330771,0.359612,-0.103272,0.245938
30714,8.920437,-2.467700,2.421442,0.371234,-0.122359,0.225432
30715,8.956917,-2.533272,2.568677,0.396416,-0.133941,0.211702
30716,8.996194,-2.551697,2.563892,0.417678,-0.146304,0.195774
30717,8.990972,-2.588456,2.623251,0.446397,-0.150690,0.183605
30718,9.016380,-2.546274,2.606930,0.470132,-0.160842,0.167149
30719,9.060205,-2.517027,2.699413,0.487489,-0.166718,0.155106
30720,9.061441,-2.463136,2.703129,0.493817,-0.175480,0.142960
30721,9.044221,-2.435045,2.749039,0.487845,-0.180197,0.127195
30722,8.973889,-2.377272,2.746060,0.471394,-0.195968,0.111734
30723,8.947743,-2.393795,2.823316,0.456503,-0.204027,0.091908
30724,8.941060,-2.435956,2.849682,0.446048,-0.222721,0.072476
30725,8.938966,-2.485743,2.965680,0.436764,-0.234317,0.052016
30726,8.927172,-2.542954,2.962347,0.436417,-0.245670,0.033571
30727,8.913723,-2.571699,3.026927,0.438720,-0.255641,0.009403
30728,8.918525,-2.585737,3.078364,0.448247,-0.264261,-0.012079
30729,8.917042,-2.616464,3.101915,0.457205,-0.272901,-0.035056
30730,8.899476,-2.656577,3.138707,0.469978,-0.274808,-0.051837
30731,8.909076,-2.690218,3.122754,0.491572,-0.276950,-0.076824
30732,8.942605,-2.703269,3.153308,0.515389,-0.282070,-0.088003
30733,8.984892,-2.735231,3.176052,0.537382,-0.278339,-0.107551
30734,8.987695,-2.699136,3.206457,0.556110,-0.274962,-0.117692
30735,9.023609,-2.692693,3.207483,0.572025,-0.267291,-0.128059
30736,9.042821,-2.696570,3.223206,0.578312,-0.257777,-0.131430
30737,9.111239,-2.677488,3.230983,0.587451,-0.248589,-0.140953
30738,9.187326,-2.636632,3.266065,0.588114,-0.232387,-0.141613
30739,9.303858,-2.551926,3.300213,0.572237,-0.212077,-0.139092
30740,9.387333,-2.466743,3.297824,0.538991,-0.187991,-0.131374
30741,9.371983,-2.361413,3.284538,0.492310,-0.159316,-0.116438
30742,9.371213,-2.368683,3.288211,0.434483,-0.137842,-0.104658
30743,9.548231,-2.324988,3.331094,0.378368,-0.111088,-0.089564
30744,9.634669,-2.218383,3.323810,0.314163,-0.079732,-0.070907
30745,9.670653,-2.181814,3.295036,0.238490,-0.045298,-0.040850
30746,9.525920,-2.161359,3.263261,0.164826,-0.012759,-0.020066
30747,9.355389,-2.233025,3.221683,0.100397,0.014634,0.008511
30748,9.297865,-2.363028,3.144988,0.066498,0.025026,0.027330
30749,9.303890,-2.462789,3.207687,0.048825,0.041155,0.043857
30750,9.292999,-2.444058,3.220392,0.039562,0.053186,0.053465
30751,9.281349,-2.437219,3.266704,0.028634,0.065218,0.058669
30752,9.228991,-2.398325,3.251481,0.011567,0.074539,0.059242
30753,9.151810,-2.457816,3.258202,-0.004074,0.079849,0.052209
30754,9.107576,-2.440593,3.235956,-0.014948,0.083106,0.043190
30755,9.063743,-2.466352,3.180992,-0.017701,0.085056,0.032666
30756,8.962721,-2.501872,3.176414,-0.018769,0.085793,0.021400
30757,8.960393,-2.481880,3.118194,-0.018131,0.087281,0.006214
30758,8.884798,-2.525771,3.091751,-0.013585,0.081207,-0.007761
30759,8.915508,-2.557613,3.069920,-0.002603,0.078211,-0.020522
30760,8.930352,-2.544106,3.062551,0.010639,0.075962,-0.035730
30761,8.993727,-2.529260,3.110304,0.014900,0.069516,-0.046272
30762,9.026336,-2.545981,3.055471,0.015824,0.067456,-0.058522
30763,9.082712,-2.550680,3.077146,0.016461,0.061847,-0.069304
30764,9.074885,-2.510835,3.057695,0.014554,0.065372,-0.076660
30765,9.075517,-2.547128,3.030850,0.008978,0.057517,-0.078627
30766,9.116616,-2.550480,3.033203,0.004811,0.055163,-0.082312
30767,9.150251,-2.575490,3.009639,0.005661,0.050391,-0.083055
30768,9.133815,-2.589605,3.061365,0.006488,0.048792,-0.081839
30769,9.109845,-2.625659,3.087269,0.013473,0.043573,-0.079880
