// Start Time: Unknown
// Update Rate: 100.0Hz
// Filter Profile: human (46.1)
// Firmware Version: 4.3.5
PacketCounter,Acc_X,Acc_Y,Acc_Z,Gyr_X,Gyr_Y,Gyr_Z
29586,9.776120,-0.336487,1.235251,-0.000101,0.004779,-0.001114
29587,9.775329,-0.379907,1.268761,-0.003892,0.007834,-0.002228
29588,9.786284,-0.369809,1.300580,0.004507,0.003955,-0.005193
29589,9.775229,-0.379104,1.269769,0.012553,0.004190,-0.001522
29590,9.782744,-0.357846,1.280220,0.014759,0.006893,-0.000003
29591,9.756276,-0.341209,1.265979,0.016938,0.006149,0.001834
29592,9.786722,-0.325335,1.270092,0.020347,0.007088,0.000554
29593,9.733869,-0.291918,1.241020,0.017759,0.008378,-0.003359
29594,9.783110,-0.313351,1.250325,0.012995,0.007088,0.000238
29595,9.771080,-0.297990,1.288691,0.010251,0.006262,-0.004156
29596,9.767574,-0.286124,1.268068,0.009996,0.008925,-0.005753
29597,9.759916,-0.306456,1.259032,0.008074,0.007005,-0.005993
29598,9.793786,-0.301238,1.284615,0.006179,0.008532,-0.006551
29599,9.779278,-0.298957,1.232939,0.002105,0.010802,-0.008947
29600,9.770626,-0.293973,1.293049,-0.001047,0.010521,-0.015418
29601,9.801337,-0.345014,1.261514,-0.004865,0.010128,-0.016216
29602,9.778295,-0.338202,1.268979,-0.004991,0.011458,-0.017015
29603,9.797758,-0.330749,1.242197,-0.000634,0.009974,-0.013340
29604,9.815497,-0.341879,1.317123,-0.001888,0.008166,-0.019253
29605,9.793517,-0.359693,1.255525,0.004263,0.009934,-0.016136
29606,9.778033,-0.331921,1.272658,0.000982,0.007662,-0.014060
29607,9.774558,-0.319153,1.252101,0.000447,0.009539,-0.016935
29608,9.785440,-0.307702,1.284282,0.000448,0.009538,-0.016935
29609,9.781950,-0.294744,1.263856,-0.003496,0.010473,-0.018534
29610,9.765734,-0.310011,1.314098,-0.006360,0.010974,-0.023728
29611,9.770193,-0.343814,1.267641,-0.006358,0.010973,-0.023728
29612,9.770128,-0.341637,1.268730,-0.006075,0.011757,-0.022449
29613,9.793050,-0.344695,1.263355,-0.006226,0.009641,-0.022929
29614,9.785510,-0.363469,1.254445,-0.006631,0.010186,-0.025007
29615,9.759074,-0.344758,1.240363,-0.010038,0.009242,-0.023731
29616,9.762452,-0.353844,1.262680,-0.002403,0.010038,-0.022127
29617,9.792861,-0.336028,1.267143,-0.003484,0.010470,-0.018533
29618,9.796231,-0.345222,1.289464,-0.004726,0.008659,-0.024446
29619,9.762297,-0.347842,1.265542,-0.001434,0.011061,-0.017492
29620,9.777149,-0.303915,1.286367,0.001698,0.011221,-0.020045
29621,9.785757,-0.305738,1.228446,-0.005374,0.011990,-0.019093
29622,9.766087,-0.309977,1.257421,-0.009316,0.012919,-0.020694
29623,9.781528,-0.334176,1.242505,-0.013383,0.015178,-0.023093
29624,9.776725,-0.296210,1.291377,-0.011079,0.013110,-0.020456
29625,9.773302,-0.394755,1.268101,-0.009991,0.012677,-0.024050
29626,9.768534,-0.356502,1.316650,-0.004705,0.008657,-0.024446
29627,9.765660,-0.299609,1.263238,-0.005513,0.009872,-0.019572
29628,9.773748,-0.344709,1.238244,-0.000992,0.013835,-0.024756
29629,9.715471,-0.317280,1.289870,0.001310,0.011768,-0.022118
29630,9.711982,-0.303690,1.269583,-0.003181,0.011123,-0.026279
29631,9.750526,-0.332670,1.248155,-0.011470,0.013644,-0.022535
29632,9.777706,-0.415241,1.228395,-0.003990,0.012338,-0.021405
29633,9.841854,-0.392322,1.258245,0.000936,0.015758,-0.024510
29634,9.822194,-0.396030,1.287216,-0.006856,0.009384,-0.026287
29635,9.825589,-0.404970,1.309497,0.005115,0.008729,-0.020993
29636,9.791775,-0.407837,1.285141,0.006028,0.002865,-0.015725
29637,9.772181,-0.412510,1.313289,0.012160,0.004654,-0.012596
29638,9.744624,-0.482115,1.364889,0.020631,0.011271,-0.007462
29639,9.824751,-0.598329,1.375461,0.035758,0.014230,-0.005034
29640,9.877305,-0.785547,1.437373,0.051841,0.018218,0.002031
29641,9.977204,-1.008271,1.418807,0.076132,0.028036,0.012950
29642,9.980038,-1.287901,1.471978,0.124000,0.040674,0.041099
29643,9.970793,-1.468483,1.499535,0.183259,0.059568,0.088609
29644,10.057463,-1.670324,1.617488,0.242034,0.085071,0.132120
29645,10.062114,-1.982251,1.726846,0.321539,0.135170,0.192651
29646,10.086103,-2.415222,1.836707,0.411933,0.178419,0.251647
29647,10.068366,-2.845903,1.910571,0.543428,0.221238,0.321013
29648,10.289995,-3.459688,2.012988,0.688720,0.298822,0.420669
29649,9.761940,-3.932390,2.150667,0.889038,0.438267,0.517774
29650,9.569898,-4.246399,1.987990,1.148038,0.532269,0.580796
29651,9.669140,-4.387255,2.031162,1.423655,0.589921,0.688315
29652,10.112453,-3.744863,2.567151,1.676822,0.593837,0.841946
29653,10.683164,-2.571230,3.095899,1.748081,0.635742,0.976157
29654,11.073595,-1.664815,3.300485,1.642795,0.749823,1.073061
29655,11.086103,-1.203385,3.251259,1.430205,0.882548,1.161490
29656,10.881482,-1.078245,3.250244,1.169229,0.968041,1.241085
29657,10.833291,-0.969950,3.238511,0.951527,1.019659,1.303383
29658,10.942389,-0.765256,3.287530,0.758977,1.081732,1.345552
29659,11.185197,-0.726470,3.546642,0.577921,1.169197,1.371080
29660,11.129364,-0.893516,3.780047,0.418731,1.285689,1.384887
29661,10.940811,-1.118050,3.849226,0.303979,1.386205,1.393865
29662,10.741015,-1.223897,3.910921,0.242014,1.453589,1.406978
29663,10.604348,-1.104795,3.896238,0.224921,1.495038,1.420786
29664,10.579089,-0.999499,3.937758,0.193284,1.542274,1.427904
29665,10.500094,-0.964090,4.008768,0.120270,1.608613,1.433454
29666,10.458569,-1.017987,4.036216,0.046212,1.689439,1.438993
29667,10.370725,-1.166748,4.139535,-0.038746,1.776037,1.450757
29668,10.262821,-1.397845,4.169423,-0.137269,1.851124,1.475720
29669,10.111852,-1.697494,4.331330,-0.245190,1.921255,1.496948
29670,10.068216,-1.984115,4.575431,-0.358480,1.957422,1.506909
29671,9.964744,-2.222584,4.693739,-0.451474,1.979778,1.494670
29672,9.756142,-2.360590,4.655502,-0.509748,1.984205,1.466358
29673,9.540700,-2.456447,4.672168,-0.558952,1.981251,1.449500
29674,9.211434,-2.788011,4.563286,-0.560310,1.981284,1.415866
29675,8.858811,-3.375451,4.612092,-0.542535,1.953823,1.384316
29676,8.683587,-4.026351,4.851419,-0.455622,1.894304,1.363528
29677,8.565420,-4.386036,5.126162,-0.289533,1.852689,1.344755
29678,8.391819,-4.358740,5.316567,-0.056965,1.812705,1.316244
29679,8.374358,-4.163291,5.632764,0.163904,1.786210,1.296785
29680,8.336488,-4.171149,5.847956,0.310312,1.787168,1.268543
29681,8.349765,-4.432931,6.013825,0.456157,1.811990,1.243783
29682,8.067574,-4.858895,5.987336,0.656354,1.849994,1.227373
29683,7.841989,-5.077762,5.976771,0.862850,1.878311,1.197557
29684,7.557425,-4.921794,5.897880,1.017812,1.887391,1.162322
29685,7.343431,-4.751768,5.850839,1.098019,1.877749,1.134097
29686,7.405203,-4.526566,5.862031,1.148586,1.864991,1.134982
29687,7.513324,-4.370859,5.885947,1.172837,1.895507,1.146619
29688,7.433263,-4.092498,6.204286,1.123475,1.939172,1.159730
29689,7.181917,-3.691862,6.296059,0.976458,1.964953,1.168331
29690,6.970150,-3.584075,6.120273,0.820369,1.969297,1.176032
29691,6.822531,-3.790267,6.077951,0.696738,1.979952,1.186878
29692,6.490493,-4.044221,6.064505,0.570505,1.983607,1.209723
29693,6.152042,-4.193835,5.987281,0.470022,1.977715,1.229256
29694,5.733953,-4.068267,6.058353,0.368420,1.954950,1.251149
29695,5.540103,-4.202041,6.081098,0.296252,1.902002,1.293821
29696,5.400553,-4.449441,5.965689,0.268610,1.866251,1.338883
29697,5.136363,-4.545763,6.118431,0.285057,1.832742,1.374182
29698,4.849606,-4.617573,6.210194,0.319065,1.767534,1.411716
29699,4.585730,-4.572712,6.182611,0.393075,1.710145,1.446743
29700,4.328346,-4.547756,5.963333,0.434731,1.670474,1.453273
29701,3.996214,-4.743228,5.780176,0.487105,1.602676,1.472124
29702,3.587677,-4.617648,6.101479,0.520533,1.496315,1.481253
29703,3.163058,-4.337548,6.343107,0.520769,1.387882,1.457304
29704,2.912614,-4.233385,6.232822,0.596795,1.275848,1.425791
29705,2.872598,-3.832835,6.593783,0.581749,1.222512,1.392643
29706,2.822218,-3.807407,6.632542,0.510909,1.163600,1.386347
29707,2.828471,-3.981555,6.721896,0.487530,1.108114,1.390064
29708,2.794036,-3.864947,7.220698,0.360346,1.085106,1.381986
29709,2.505857,-3.741435,7.570581,0.221753,1.089150,1.354054
29710,2.327495,-3.733870,7.533807,0.207305,1.092298,1.311904
29711,2.280579,-3.896754,7.373290,0.284574,1.087491,1.307438
29712,1.883614,-4.156242,7.244705,0.347355,1.065979,1.297563
29713,1.564539,-4.294711,7.340962,0.387485,1.006782,1.274526
29714,1.358285,-4.371973,7.412909,0.473912,0.946845,1.240100
29715,1.457101,-4.462523,7.466392,0.600536,0.889159,1.201597
29716,1.645009,-4.069938,7.691081,0.701135,0.861491,1.178650
29717,1.428585,-3.601555,7.779665,0.737953,0.882334,1.118510
29718,1.233697,-3.302861,7.954204,0.765269,0.858201,1.036252
29719,1.182744,-3.015953,8.066043,0.732824,0.837002,0.968539
29720,1.112102,-2.695701,8.522434,0.646755,0.845710,0.929579
29721,1.036668,-2.542820,8.897465,0.490407,0.884754,0.910970
29722,0.588736,-2.702978,8.916070,0.399825,0.933958,0.884522
29723,0.391000,-2.788952,9.041166,0.309456,0.921117,0.854867
29724,0.530003,-2.822822,9.063429,0.214043,0.898395,0.855305
29725,0.620724,-2.893462,8.953477,0.160375,0.927426,0.832509
29726,0.320551,-2.860866,8.901021,0.163498,0.938856,0.788529
29727,0.034447,-2.929192,9.056049,0.146187,0.876561,0.745674
29728,0.180267,-2.907956,9.087922,0.086885,0.798864,0.743126
29729,-0.144811,-2.953169,9.051402,0.017957,0.748189,0.726464
29730,-0.272814,-2.999885,8.743802,0.004187,0.641613,0.715397
29731,-0.822898,-3.093117,8.324914,0.049182,0.560653,0.637989
29732,-0.891583,-3.440674,8.360652,0.211540,0.430389,0.557375
29733,-0.330079,-3.137518,8.623355,0.311182,0.402154,0.502552
29734,-0.524956,-2.752157,8.765415,0.383296,0.466235,0.404528
29735,-0.701442,-2.413050,8.595381,0.446260,0.469333,0.299307
29736,-0.743470,-2.005961,8.529673,0.464428,0.451974,0.182365
29737,-0.716421,-1.900497,8.498745,0.460037,0.435184,0.079262
29738,-0.762335,-1.805594,8.493907,0.394336,0.437370,-0.032489
29739,-0.809646,-1.824172,8.515669,0.357671,0.413533,-0.155844
29740,-0.805524,-1.806581,8.615602,0.302334,0.391724,-0.279033
29741,-0.824164,-1.618462,8.683959,0.267427,0.378073,-0.426275
29742,-0.947180,-1.322724,8.723087,0.223349,0.377673,-0.589859
29743,-0.921024,-1.087634,8.776618,0.194800,0.395182,-0.750994
29744,-0.705644,-1.049051,8.950722,0.132364,0.420797,-0.955597
29745,-0.508247,-1.274080,9.276969,0.089030,0.492128,-1.187524
29746,-0.617634,-1.238137,9.484958,0.063987,0.554544,-1.413031
29747,-0.802948,-0.754980,9.594891,0.040976,0.559139,-1.621267
29748,-0.794613,-0.564488,9.622032,-0.018672,0.525205,-1.840755
29749,-0.760285,-0.811854,9.385758,-0.082540,0.481085,-2.047350
29750,-0.481331,-0.996216,9.063746,-0.058487,0.446599,-2.229598
29751,-0.290087,-1.173953,9.263445,0.002447,0.425886,-2.366359
29752,-0.172743,-1.476786,9.541808,0.034208,0.377395,-2.456363
29753,0.038742,-1.846336,9.599796,0.027300,0.297137,-2.509536
29754,0.309378,-2.165917,9.487308,-0.008271,0.222917,-2.541348
29755,0.583154,-2.691290,9.578875,-0.034282,0.148852,-2.546546
29756,0.800295,-3.227996,9.282402,-0.066749,0.067083,-2.525069
29757,1.150450,-3.550844,9.096983,-0.036994,0.036125,-2.478117
29758,1.312063,-3.663709,9.219541,-0.045293,0.033150,-2.401668
29759,1.426196,-3.688841,9.334628,-0.132304,0.059094,-2.313019
29760,1.524821,-3.745147,9.323263,-0.303245,0.118174,-2.241427
29761,1.561291,-3.872704,9.197812,-0.500389,0.195888,-2.160545
29762,1.579856,-4.022284,8.924860,-0.707047,0.260907,-2.075396
29763,1.650405,-4.373946,8.794181,-0.921124,0.303588,-1.988838
29764,1.755179,-4.980308,8.683916,-1.095996,0.355667,-1.908128
29765,1.888117,-5.420419,8.764394,-1.165286,0.416733,-1.829398
29766,1.910078,-6.036048,8.993554,-1.161418,0.489874,-1.758600
29767,1.834782,-6.704561,9.277190,-1.056367,0.577732,-1.689115
29768,1.441736,-7.016753,9.514365,-0.893147,0.669019,-1.610599
29769,1.055559,-6.920756,9.591431,-0.743452,0.745752,-1.534552
29770,0.589177,-6.714189,9.600257,-0.671235,0.776014,-1.471242
29771,0.521165,-6.668238,9.370877,-0.613344,0.792884,-1.405188
29772,0.538073,-6.839456,9.088556,-0.502612,0.810974,-1.354100
29773,0.658646,-7.057874,8.737917,-0.368018,0.833376,-1.288223
29774,0.730482,-7.288301,8.354013,-0.255335,0.838585,-1.202351
29775,0.772883,-7.449003,8.018636,-0.205469,0.829550,-1.080104
29776,0.614334,-7.411520,7.726059,-0.196730,0.800525,-0.920054
29777,0.359115,-7.274281,7.659045,-0.221319,0.748818,-0.773690
29778,-0.078968,-6.929699,7.673330,-0.256920,0.690979,-0.680121
29779,-0.348446,-6.497541,7.812436,-0.264181,0.636501,-0.677801
29780,-0.331077,-6.164996,7.972033,-0.253818,0.629804,-0.726663
29781,-0.168435,-5.870233,8.022085,-0.273965,0.646368,-0.753049
29782,-0.033161,-5.633350,7.986590,-0.383878,0.682477,-0.729069
29783,-0.160428,-5.581533,7.733686,-0.555667,0.704766,-0.664954
29784,-0.532810,-5.914204,7.192566,-0.794810,0.654040,-0.601150
29785,-0.884222,-6.346150,6.644731,-0.917371,0.528015,-0.572867
29786,-0.600665,-6.037640,6.777111,-0.851569,0.422668,-0.565788
29787,-0.327850,-5.145532,7.374670,-0.751922,0.439766,-0.577809
29788,-0.304061,-4.179977,8.040278,-0.760441,0.449410,-0.610924
29789,0.109908,-3.520722,8.844316,-0.905524,0.462218,-0.655247
29790,0.808809,-3.275478,9.646416,-1.189755,0.548715,-0.667693
29791,1.095808,-3.587307,9.852145,-1.521697,0.714814,-0.650797
29792,0.781213,-4.516373,9.409021,-1.728722,0.859512,-0.608350
29793,0.285560,-5.788916,8.603763,-1.746447,0.918921,-0.558642
29794,-0.087850,-6.954636,7.758398,-1.559794,0.901554,-0.507631
29795,-0.133050,-7.727487,7.224054,-1.216602,0.852143,-0.470579
29796,-0.123216,-7.755731,7.185054,-0.798164,0.816366,-0.460202
29797,-0.054432,-7.225330,7.422169,-0.471644,0.794868,-0.466438
29798,-0.031928,-6.460649,7.566841,-0.287110,0.793516,-0.485926
29799,-0.241351,-5.785949,7.716661,-0.210072,0.800881,-0.510887
29800,-0.283266,-5.297785,7.653478,-0.221515,0.772940,-0.535116
29801,-0.197849,-4.953359,7.420122,-0.317798,0.727133,-0.574848
29802,-0.200482,-4.893012,7.293659,-0.414988,0.664978,-0.602898
29803,-0.080748,-4.818613,6.954720,-0.493477,0.588293,-0.656992
29804,-0.192896,-4.699696,6.680347,-0.492997,0.518227,-0.744900
29805,-0.153627,-4.627323,6.607154,-0.478983,0.456432,-0.850441
29806,0.011062,-4.561740,6.498522,-0.440465,0.420934,-0.960863
29807,0.239072,-4.635634,6.292558,-0.384375,0.415212,-1.044532
29808,0.271959,-4.805266,6.156534,-0.337054,0.418800,-1.107353
29809,0.340153,-5.101517,6.133792,-0.342181,0.424862,-1.133340
29810,0.194906,-5.808276,6.086642,-0.439187,0.438474,-1.118359
29811,0.025655,-6.857397,6.039141,-0.536948,0.414630,-1.057992
29812,0.039730,-7.738538,6.105802,-0.547630,0.371256,-0.964438
29813,0.211245,-8.360334,6.066502,-0.529998,0.307857,-0.858272
29814,0.182680,-8.564145,5.928243,-0.480791,0.221845,-0.764313
29815,0.076924,-8.353374,5.785888,-0.463041,0.121112,-0.701125
29816,-0.048729,-8.315311,5.689352,-0.515864,0.041007,-0.638957
29817,-0.265749,-9.016351,5.395991,-0.607749,-0.018113,-0.533487
29818,-0.640088,-10.162922,5.079009,-0.610409,-0.102097,-0.329994
29819,-0.748204,-10.957068,4.586490,-0.413590,-0.201655,-0.072534
29820,-0.777645,-10.557793,4.622443,-0.033574,-0.287875,0.144045
29821,-0.281098,-9.166819,5.280702,0.238893,-0.396593,0.275191
29822,0.504804,-8.237154,5.849802,0.238515,-0.464925,0.324384
29823,0.503264,-8.064339,5.960226,0.129626,-0.488211,0.358171
29824,0.149451,-8.558306,5.927013,0.064774,-0.547516,0.452480
29825,0.031614,-8.947900,5.955718,0.110791,-0.612878,0.574799
29826,-0.000852,-8.992119,5.903136,0.228298,-0.697772,0.674971
29827,0.167302,-8.323802,5.897962,0.348557,-0.767513,0.755080
29828,0.442705,-7.502072,6.230004,0.344247,-0.798502,0.783215
29829,0.108006,-7.230825,5.831189,0.333599,-0.837589,0.786771
29830,0.054284,-6.746366,6.012721,0.428463,-0.924618,0.762698
29831,0.526370,-6.344251,6.396157,0.550237,-0.962407,0.717072
29832,0.795304,-6.036573,6.693049,0.679954,-0.933957,0.679782
29833,0.822016,-5.552452,6.903451,0.766968,-0.889918,0.625098
29834,0.752115,-5.073899,7.168786,0.790090,-0.852930,0.564772
29835,0.725928,-4.551605,7.505573,0.792644,-0.815158,0.480781
29836,0.537254,-3.953994,7.830369,0.751410,-0.778451,0.390737
29837,0.417970,-3.791323,7.945675,0.636472,-0.753433,0.278475
29838,0.507919,-4.039467,8.025357,0.517821,-0.728050,0.171822
29839,0.609654,-4.647506,7.873803,0.432237,-0.687273,0.091868
29840,0.558171,-5.402192,7.680530,0.428695,-0.635441,0.073790
29841,0.428552,-6.060058,7.682684,0.478996,-0.590823,0.112911
29842,0.354872,-6.909866,7.512608,0.594542,-0.551552,0.193588
29843,0.190114,-7.593422,7.366932,0.764956,-0.551147,0.280897
29844,0.198455,-7.893594,7.440780,0.893476,-0.626003,0.335657
29845,0.319279,-8.106396,7.330824,0.991520,-0.720443,0.365211
29846,0.567077,-8.072644,7.549178,1.118213,-0.806111,0.400731
29847,0.877700,-7.829883,7.682968,1.181170,-0.852675,0.458072
29848,1.273058,-7.390609,7.695575,1.171549,-0.847683,0.534513
29849,1.523601,-6.868121,7.777662,1.067047,-0.794906,0.612140
29850,1.553461,-6.497482,7.774729,0.906350,-0.712066,0.706979
29851,1.336889,-6.323354,7.783016,0.725226,-0.655345,0.802235
29852,1.227335,-6.524008,7.847314,0.523618,-0.634291,0.890065
29853,1.163306,-6.951686,7.854662,0.356599,-0.629721,0.979110
29854,1.071093,-7.266291,7.764878,0.262267,-0.623978,1.069276
29855,1.032763,-7.530172,7.737107,0.305561,-0.618780,1.180081
29856,1.149691,-7.605011,7.875415,0.458427,-0.613205,1.301609
29857,1.184037,-7.794541,7.959888,0.643210,-0.619045,1.426835
29858,1.232349,-7.903472,7.918287,0.838942,-0.638456,1.536138
29859,1.325003,-8.035086,7.858924,1.016121,-0.635698,1.626193
29860,1.130549,-7.918565,7.737915,1.186199,-0.638508,1.701051
29861,0.948610,-7.572995,7.514167,1.327987,-0.685814,1.776979
29862,0.922202,-7.028155,7.157824,1.407045,-0.789189,1.892578
29863,1.019068,-6.396941,6.604229,1.414120,-0.881935,1.998540
29864,1.146307,-5.866740,6.129399,1.359052,-0.972542,2.049341
29865,1.394956,-5.464620,6.047155,1.229901,-1.068014,2.038844
29866,1.758467,-5.311694,6.411715,1.091230,-1.127768,1.976639
29867,2.402486,-5.181936,7.201882,0.999688,-1.122867,1.896733
29868,2.741254,-4.806880,8.025374,0.992712,-1.015555,1.849038
29869,2.321607,-4.042508,8.620946,0.948077,-0.903245,1.869472
29870,1.787403,-2.911348,9.093341,0.645611,-0.836075,1.919719
29871,1.518792,-1.935405,9.035966,0.194038,-0.786026,1.931640
29872,1.416292,-1.683303,8.673809,-0.220200,-0.744036,1.884890
29873,1.579164,-2.329994,8.319315,-0.443917,-0.779002,1.817909
29874,2.163495,-3.476753,8.451962,-0.503745,-0.762544,1.739704
29875,2.052048,-4.612900,9.036046,-0.407025,-0.700789,1.647241
29876,1.346199,-4.887685,9.739863,-0.182425,-0.657972,1.578894
29877,0.982881,-4.246870,10.184178,-0.035809,-0.598977,1.505898
29878,0.812362,-3.080973,10.013553,0.053863,-0.512033,1.429058
29879,0.826080,-2.229687,9.758279,-0.014255,-0.486786,1.339144
29880,1.144189,-1.808028,9.687937,-0.202974,-0.510358,1.274009
29881,1.394448,-2.121178,9.634639,-0.482571,-0.483117,1.196017
29882,0.934507,-3.088351,9.627643,-0.564471,-0.502985,1.151498
29883,0.904446,-3.801431,10.038212,-0.572550,-0.512971,1.098447
29884,0.907182,-3.924147,10.140178,-0.487387,-0.472838,1.060433
29885,0.627329,-3.347048,9.719435,-0.401611,-0.438302,0.970733
29886,0.622324,-2.978467,9.182964,-0.293693,-0.470054,0.864527
29887,0.819905,-2.898196,8.939589,-0.218350,-0.443407,0.741506
29888,0.630028,-3.023485,8.929184,-0.142453,-0.353714,0.616672
29889,0.483999,-3.164825,8.916608,-0.067562,-0.310220,0.503160
29890,0.601270,-3.299581,8.713418,-0.028369,-0.300859,0.379243
29891,0.500274,-2.934121,8.573839,0.021813,-0.269593,0.240167
29892,0.357394,-2.642156,8.424748,0.059139,-0.255770,0.074401
29893,0.443142,-2.582238,8.194534,0.007342,-0.278369,-0.080760
29894,0.449775,-2.721533,7.968986,-0.041416,-0.286221,-0.237123
29895,0.504011,-2.759341,7.911847,-0.048821,-0.288278,-0.397066
29896,0.410424,-2.756290,7.700526,-0.031645,-0.276255,-0.543545
29897,0.543102,-2.766041,7.614454,-0.003395,-0.288055,-0.680541
29898,0.719641,-2.767588,7.606375,-0.012546,-0.302315,-0.808900
29899,0.720088,-2.878134,7.589821,-0.073063,-0.348536,-0.953672
29900,0.764882,-3.035496,7.374710,-0.109333,-0.427393,-1.106634
29901,0.792421,-3.213286,7.266518,-0.114369,-0.507562,-1.266713
29902,0.775921,-3.380867,7.149248,-0.089848,-0.600651,-1.410863
29903,0.942590,-3.538113,7.142931,-0.033840,-0.696696,-1.535724
29904,1.116446,-3.635296,7.166267,0.032080,-0.793578,-1.633615
29905,1.295532,-3.683079,7.119034,0.089140,-0.890043,-1.685504
29906,1.494237,-3.641028,7.132755,0.126391,-1.009344,-1.717306
29907,1.824451,-3.606657,7.012612,0.151788,-1.134495,-1.744806
29908,2.153280,-3.542880,6.871153,0.174806,-1.268008,-1.769849
29909,2.521927,-3.550380,6.633688,0.197949,-1.411274,-1.780436
29910,2.886491,-3.528869,6.371205,0.208089,-1.570044,-1.793560
29911,3.241733,-3.624564,6.200754,0.209369,-1.731614,-1.807255
29912,3.644193,-3.751967,6.155879,0.189186,-1.873740,-1.820832
29913,4.031553,-3.930870,6.261080,0.179068,-1.961964,-1.817157
29914,4.130459,-3.893687,6.297621,0.135774,-2.007019,-1.795152
29915,4.033965,-3.664833,6.219752,0.026059,-2.072077,-1.792546
29916,4.121173,-3.626047,5.909646,-0.092251,-2.181697,-1.813380
29917,4.560003,-3.579802,5.518866,-0.174162,-2.312084,-1.840996
29918,5.266117,-3.443106,5.247476,-0.278698,-2.419856,-1.850280
29919,6.028800,-3.592689,5.156903,-0.420181,-2.453187,-1.828159
29920,6.817900,-4.306271,5.295268,-0.518159,-2.353854,-1.765354
29921,7.050992,-5.163506,5.899511,-0.605060,-2.210079,-1.650853
29922,6.716756,-5.495723,6.520457,-0.732926,-2.139890,-1.466563
29923,6.268817,-5.685004,6.642895,-0.914834,-2.147226,-1.318322
29924,5.768246,-5.797021,6.101596,-0.985982,-2.145929,-1.293137
29925,4.790548,-5.394820,5.480160,-0.766331,-2.213939,-1.463041
29926,5.230795,-5.114036,5.342223,-0.452893,-2.338167,-1.656293
29927,6.429560,-4.924943,5.516479,-0.245966,-2.385785,-1.711796
29928,7.473112,-4.863984,5.719279,-0.312142,-2.338481,-1.654581
29929,7.831948,-4.831035,5.842836,-0.400881,-2.257121,-1.595756
29930,7.916150,-4.356065,6.259721,-0.489735,-2.164179,-1.618747
29931,8.351232,-4.250055,6.023029,-0.575155,-2.138363,-1.613280
29932,9.141292,-4.520367,5.929011,-0.603782,-2.183150,-1.518261
29933,9.806415,-4.741640,5.833955,-0.615623,-2.210515,-1.392729
29934,10.001510,-4.816214,5.602572,-0.557056,-2.239125,-1.246728
29935,9.806071,-4.609216,5.409906,-0.488497,-2.194252,-1.147424
29936,9.137941,-4.382020,5.547538,-0.428716,-2.100803,-1.143137
29937,8.692794,-3.841860,5.928736,-0.365447,-2.085919,-1.176623
29938,8.668366,-3.017099,6.393084,-0.327543,-2.086877,-1.209873
29939,9.304145,-2.049452,6.619229,-0.265420,-2.068485,-1.202859
29940,10.668719,-1.730832,6.200091,-0.309667,-1.943955,-1.129325
29941,11.690741,-2.236068,5.551008,-0.394744,-1.722367,-0.996928
29942,11.582248,-3.149379,4.934481,-0.429279,-1.524055,-0.878405
29943,11.057757,-3.676808,4.674085,-0.352599,-1.418161,-0.793345
29944,10.679116,-3.852626,4.479690,-0.263533,-1.366320,-0.727950
29945,10.358205,-3.555971,4.218186,-0.188763,-1.312146,-0.695670
29946,10.178334,-3.195754,4.310255,-0.162636,-1.284566,-0.677333
29947,10.129780,-2.826801,4.276590,-0.161754,-1.254428,-0.669780
29948,10.020213,-2.432309,4.035606,-0.134613,-1.201898,-0.670982
29949,9.897820,-2.287732,3.819386,-0.128496,-1.140930,-0.683375
29950,9.752414,-2.419298,3.585171,-0.021837,-1.069652,-0.711587
29951,9.523666,-2.358320,3.366015,0.101655,-0.997523,-0.743761
29952,9.306802,-2.302263,3.105099,0.231219,-0.924873,-0.768771
29953,9.022232,-2.110030,2.999423,0.412533,-0.874076,-0.799015
29954,8.920886,-1.756182,2.830331,0.560308,-0.884416,-0.831815
29955,9.040884,-1.503162,2.488384,0.701167,-0.923068,-0.886148
29956,9.324399,-0.987528,2.294395,0.774406,-0.961318,-0.926789
29957,9.509336,-0.380977,2.175083,0.763041,-0.980907,-0.976877
29958,9.721994,0.234558,2.124088,0.642629,-1.010277,-1.032265
29959,10.068831,0.779852,2.159727,0.437132,-1.033979,-1.090439
29960,10.345542,1.057218,2.225109,0.180732,-1.030341,-1.138387
29961,10.536495,1.209414,2.206455,-0.102509,-1.024433,-1.180774
29962,10.600969,1.037728,2.210603,-0.369293,-1.015156,-1.228167
29963,10.667661,0.735051,2.130622,-0.563390,-1.001454,-1.260378
29964,10.679403,0.484095,2.049731,-0.711501,-0.975665,-1.273871
29965,10.646417,0.151268,2.071116,-0.827302,-0.930110,-1.282287
29966,10.597401,-0.029384,2.140844,-0.898261,-0.882378,-1.278474
29967,10.580598,-0.179178,2.172541,-0.938888,-0.830597,-1.259147
29968,10.497498,-0.281318,2.078246,-0.991431,-0.767657,-1.233696
29969,10.473444,-0.629219,2.108224,-1.042363,-0.689741,-1.197903
29970,10.455748,-0.868232,1.949224,-1.021462,-0.602087,-1.143490
29971,10.491268,-1.137421,1.994802,-0.993436,-0.513932,-1.070637
29972,10.634091,-1.243578,2.032780,-0.942861,-0.401317,-0.993427
29973,10.630387,-1.555328,1.942659,-0.926789,-0.295931,-0.916025
29974,10.351692,-1.756831,1.725502,-0.823236,-0.198933,-0.815158
29975,10.240674,-1.804085,1.486883,-0.707483,-0.141321,-0.708806
29976,10.347063,-1.583342,1.537257,-0.603575,-0.068539,-0.607435
29977,10.369497,-1.188833,1.780490,-0.595762,0.031000,-0.520762
29978,10.445317,-1.030176,1.894794,-0.634908,0.153673,-0.428578
29979,10.290661,-1.197163,1.712951,-0.614076,0.246559,-0.343614
29980,10.100840,-1.291240,1.562306,-0.559652,0.284030,-0.256992
29981,10.061275,-1.522812,1.270474,-0.425792,0.297903,-0.175399
29982,10.091311,-1.645960,1.005386,-0.259795,0.337519,-0.094206
29983,9.901481,-1.570092,0.889880,-0.086217,0.354249,-0.022143
29984,9.944592,-1.169436,0.955787,0.051026,0.356338,0.011203
29985,9.923237,-0.901720,0.928298,0.109388,0.371763,0.032040
29986,9.944424,-0.620802,0.959668,0.163498,0.377983,0.046493
29987,9.825347,-0.334809,0.936426,0.138015,0.368627,0.071857
29988,9.807006,-0.265095,0.789379,0.094931,0.344812,0.085157
29989,9.816388,-0.205330,0.745209,0.055690,0.318960,0.100767
29990,9.709562,-0.248347,0.776061,0.031366,0.294937,0.121885
29991,9.711176,-0.459118,0.799239,0.036897,0.274448,0.141737
29992,9.535648,-0.618182,0.798647,0.060600,0.236701,0.174141
29993,9.545013,-0.713445,0.799532,0.081366,0.190326,0.210211
29994,9.562236,-0.650494,0.862629,0.118567,0.144778,0.238034
29995,9.519496,-0.500938,0.841348,0.165059,0.109296,0.246234
29996,9.542501,-0.339731,0.869785,0.211024,0.079108,0.251468
29997,9.508716,-0.136045,0.843852,0.250816,0.050875,0.251173
29998,9.550597,0.084102,1.011541,0.270551,0.024074,0.247745
29999,9.650471,0.267469,1.115361,0.263765,0.005570,0.234617
30000,9.731689,0.322254,1.202232,0.239059,0.001234,0.233785
30001,9.795689,0.358911,1.223941,0.207853,-0.005867,0.237377
30002,9.861433,0.349688,1.275167,0.175852,-0.019418,0.235985
30003,9.918467,0.331049,1.293410,0.149551,-0.024084,0.237448
30004,9.954150,0.348713,1.306968,0.142699,-0.030708,0.226336
30005,9.904943,0.347297,1.293245,0.135198,-0.039629,0.211322
30006,9.899521,0.395467,1.327386,0.133814,-0.048664,0.190050
30007,9.871747,0.361894,1.316103,0.126698,-0.058873,0.166801
30008,9.861937,0.348747,1.368160,0.126645,-0.067475,0.143264
30009,9.887734,0.288654,1.386228,0.115422,-0.072685,0.128454
30010,9.837173,0.219218,1.410178,0.122772,-0.071871,0.117830
30011,9.803345,0.171346,1.386528,0.119259,-0.073170,0.106626
30012,9.764207,0.146534,1.432641,0.117151,-0.074040,0.093144
30013,9.736019,0.122184,1.420351,0.122771,-0.067575,0.082993
30014,9.728594,0.062266,1.413198,0.125327,-0.062745,0.076103
30015,9.771209,-0.016046,1.416551,0.133564,-0.053332,0.070919
30016,9.740662,-0.115974,1.448350,0.150214,-0.046690,0.073175
30017,9.779583,-0.182223,1.432045,0.174332,-0.048032,0.077172
30018,9.841768,-0.252464,1.410592,0.193466,-0.039222,0.083085
30019,9.841402,-0.213606,1.375831,0.214430,-0.034000,0.089040
30020,9.859046,-0.244351,1.356894,0.242378,-0.028018,0.093358
30021,9.888599,-0.232983,1.359967,0.259450,-0.020671,0.096861
30022,9.896805,-0.141028,1.326977,0.274880,-0.007651,0.100793
30023,9.852154,-0.062585,1.295435,0.280061,-0.000735,0.097520
30024,9.833789,0.045021,1.247561,0.281020,0.007544,0.090503
30025,9.825773,0.074767,1.296389,0.259068,0.016393,0.087009
30026,9.822333,0.081188,1.276634,0.247143,0.020687,0.079167
30027,9.752194,0.044753,1.328593,0.229341,0.031639,0.079083
30028,9.733335,-0.023765,1.300923,0.229297,0.030798,0.077802
30029,9.706293,-0.012879,1.288177,0.230560,0.031656,0.073433
30030,9.679273,-0.001540,1.275405,0.229816,0.031870,0.067990
30031,9.672665,-0.026076,1.268470,0.224581,0.032645,0.057514
30032,9.748632,-0.019688,1.264990,0.222041,0.033007,0.052277
30033,9.777796,-0.004597,1.272787,0.210472,0.035465,0.047273
30034,9.750832,0.008971,1.259925,0.192495,0.029660,0.037615
30035,9.820710,-0.048049,1.279592,0.177189,0.030329,0.032540
30036,9.834418,-0.063775,1.245120,0.165780,0.019874,0.030139
30037,9.827914,-0.086163,1.237421,0.154812,0.021319,0.029289
30038,9.874430,-0.138873,1.262103,0.151553,0.018988,0.031319
30039,9.810163,-0.105777,1.290595,0.135319,0.023040,0.031546
30040,9.816090,-0.085674,1.302619,0.118713,0.020751,0.030371
30041,9.812622,-0.119178,1.316884,0.105200,0.023398,0.025539
30042,9.773411,-0.105493,1.249681,0.088675,0.019808,0.025174
30043,9.740266,-0.156420,1.259834,0.085831,0.025970,0.029059
30044,9.719587,-0.164440,1.289484,0.083832,0.021890,0.028340
30045,9.689570,-0.183319,1.287734,0.084098,0.026118,0.029262
30046,9.679869,-0.195928,1.258999,0.089495,0.025619,0.028654
30047,9.670374,-0.165808,1.196248,0.089639,0.024300,0.029470
30048,9.685409,-0.177738,1.273683,0.087644,0.023649,0.028400
30049,9.708709,-0.140859,1.236542,0.081122,0.020100,0.022639
30050,9.731834,-0.146398,1.233182,0.082702,0.019120,0.021164
30051,9.740893,-0.136235,1.266302,0.072701,0.014593,0.016625
30052,9.743991,-0.104679,1.255302,0.062691,0.010067,0.012086
30053,9.754707,-0.152347,1.231794,0.055799,0.007018,0.004237
