// Start Time: Unknown
// Update Rate: 100.0Hz
// Filter Profile: human (46.1)
// Firmware Version: 4.3.5
PacketCounter,SampleTimeFine,Acc_X,Acc_Y,Acc_Z,Gyr_X,Gyr_Y,Gyr_Z,Roll,Pitch,Yaw
57333,,9.854059,0.024803,0.576219,-0.063515,0.004431,-0.014474,2.413059,-86.651778,-31.218187
57334,,9.834255,0.020683,0.563386,-0.074220,0.002945,-0.021631,6.865992,-86.527463,-35.934117
57335,,9.838022,0.042171,0.549680,-0.083277,-0.000100,-0.022974,7.033673,-86.525928,-36.149909
57336,,9.834540,-0.047070,0.547615,-0.098203,-0.002214,-0.028238,7.238639,-86.525212,-36.411603
57337,,9.848386,-0.057926,0.532071,-0.103038,-0.004589,-0.031422,7.479220,-86.525514,-36.711772
57338,,9.818946,-0.099097,0.503624,-0.110808,-0.006492,-0.036560,7.760298,-86.526626,-37.056994
57339,,9.846664,-0.122336,0.472390,-0.111094,-0.008516,-0.039033,8.072763,-86.528379,-37.433803
57340,,9.832922,-0.105978,0.486666,-0.114365,-0.007686,-0.036456,8.339219,-86.530585,-37.766467
57341,,9.865061,-0.131642,0.539887,-0.124499,-0.004960,-0.038444,8.634123,-86.530145,-38.133376
57342,,9.812223,-0.197656,0.511472,-0.125404,-0.008723,-0.038975,8.898757,-86.533246,-38.470628
57343,,9.851889,-0.183582,0.536699,-0.126309,-0.012484,-0.039507,9.214160,-86.536746,-38.859111
57344,,9.879707,-0.206649,0.504665,-0.125980,-0.012752,-0.036862,9.428499,-86.543049,-39.146440
57345,,9.873926,-0.222085,0.474513,-0.126929,-0.014125,-0.037414,9.728221,-86.547462,-39.519565
57346,,9.860244,-0.205586,0.488038,-0.124273,-0.016569,-0.044952,9.979297,-86.556491,-39.842888
57347,,9.852468,-0.170734,0.530286,-0.123376,-0.012735,-0.037226,10.279052,-86.559923,-40.214001
57348,,9.848936,-0.187150,0.542450,-0.122091,-0.011494,-0.047993,10.502843,-86.567021,-40.508913
57349,,9.862939,-0.195933,0.525843,-0.129625,-0.008881,-0.050520,10.918423,-86.566641,-40.999644
57350,,9.876942,-0.204434,0.509464,-0.130005,-0.006093,-0.052993,11.118304,-86.571218,-41.275353
57351,,9.858026,-0.276399,0.478244,-0.123846,-0.004903,-0.053513,11.558065,-86.567945,-41.786989
57352,,9.864059,-0.253671,0.506429,-0.109968,0.000531,-0.048927,11.647117,-86.571174,-41.940411
57353,,9.888326,-0.295284,0.488764,-0.109637,0.000234,-0.046306,12.016884,-86.565603,-42.373772
57354,,9.881252,-0.331411,0.515261,-0.093336,-0.001317,-0.044911,11.997878,-86.572491,-42.409693
57355,,9.902497,-0.300277,0.472327,-0.090961,-0.005939,-0.041022,12.341243,-86.570862,-42.805883
57356,,9.889612,-0.355129,0.469503,-0.074378,-0.005470,-0.037117,12.172743,-86.583259,-42.681322
57357,,9.918942,-0.308347,0.497453,-0.066892,-0.005636,-0.034522,12.469536,-86.582195,-43.017035
57358,,9.881841,-0.318222,0.512277,-0.058129,-0.004736,-0.028752,12.112579,-86.599462,-42.695214
57359,,9.891360,-0.277457,0.527167,-0.054578,-0.003449,-0.028728,12.358852,-86.597906,-42.973254
57360,,9.882044,-0.313190,0.511466,-0.048193,0.002105,-0.026795,11.896877,-86.612180,-42.540739
57361,,9.869160,-0.369548,0.509342,-0.038101,0.001672,-0.017861,12.040583,-86.609121,-42.706573
57362,,9.865958,-0.294696,0.485033,-0.023178,0.003778,-0.019751,11.448151,-86.625939,-42.130385
57363,,9.885733,-0.287753,0.498657,-0.015359,0.003232,-0.014650,11.572476,-86.622446,-42.263761
57364,,9.896113,-0.319443,0.497002,-0.008645,0.008419,-0.010186,10.900578,-86.637283,-41.598831
57365,,9.876354,-0.323948,0.484612,0.003337,0.010923,-0.006994,10.949132,-86.630376,-41.645573
57366,,9.899605,-0.297684,0.485806,0.016649,0.012213,-0.007617,9.938362,-86.648429,-40.627752
57367,,9.841589,-0.243868,0.507056,0.026357,0.014616,-0.008240,10.007812,-86.639358,-40.682230
57368,,9.834675,-0.190384,0.497682,0.030128,0.020209,0.001317,9.063001,-86.646486,-39.722203
57369,,9.840356,-0.172298,0.528737,0.026469,0.023710,0.001319,9.029315,-86.633185,-39.673285
57370,,9.850606,-0.204955,0.529143,0.027694,0.027272,-0.002490,8.103061,-86.632453,-38.730324
57371,,9.843638,-0.151648,0.520691,0.022479,0.027571,-0.001220,8.090396,-86.616721,-38.704714
57372,,9.867819,-0.197102,0.506035,0.018153,0.031681,0.000687,7.219310,-86.619609,-37.823784
57373,,9.872291,-0.248200,0.477996,0.015984,0.026703,0.003867,7.158857,-86.604715,-37.754031
57374,,9.875719,-0.228467,0.467418,0.018867,0.028594,0.005790,6.006975,-86.612304,-36.592614
57375,,9.838347,-0.241478,0.485425,0.022918,0.022456,0.001349,5.983787,-86.599595,-36.556226
57376,,9.806712,-0.236651,0.532018,0.028727,0.023751,0.012192,4.621354,-86.609336,-35.180256
57377,,9.845969,-0.226589,0.561164,0.044044,0.023228,0.005888,4.571338,-86.596342,-35.104884
57378,,9.839035,-0.173777,0.552316,0.049874,0.024721,0.002741,3.170804,-86.605368,-33.678724
57379,,9.839302,-0.080637,0.516587,0.035618,0.021999,0.002695,3.152620,-86.592861,-33.640109
57380,,9.790483,-0.129959,0.476591,0.030730,0.021947,0.006501,1.754299,-86.609024,-32.235545
57381,,9.777458,-0.188944,0.476620,0.023956,0.019040,0.009022,1.674684,-86.598247,-32.142172
57382,,9.787736,-0.222509,0.476277,0.029279,0.013973,0.007779,0.438620,-86.609830,-30.889663
57383,,9.842060,-0.296249,0.471728,0.036434,0.014150,0.007821,0.381220,-86.601717,-30.811416
57384,,9.898459,-0.371904,0.509576,0.049078,0.016077,0.009170,-0.930823,-86.607077,-29.468365
57385,,9.966217,-0.551696,0.528632,0.063607,0.020867,0.011812,-1.007620,-86.594960,-29.355102
57386,,10.041114,-0.691697,0.521767,0.082956,0.028032,0.017682,-2.423592,-86.581098,-27.884182
57387,,10.031376,-0.989314,0.570120,0.110709,0.036402,0.033824,-2.670644,-86.559358,-27.573271
57388,,10.073987,-1.267484,0.534207,0.157171,0.050140,0.064816,-4.015014,-86.542714,-26.146359
57389,,10.217386,-1.478775,0.457097,0.229219,0.067473,0.108290,-4.854610,-86.499321,-25.173788
57390,,10.338603,-1.604760,0.601189,0.292260,0.107513,0.169802,-7.222250,-86.439710,-22.648136
57391,,10.240104,-1.653705,0.636897,0.346527,0.146919,0.232931,-8.931898,-86.337542,-20.736333
57392,,10.123465,-1.644999,0.764558,0.402512,0.180376,0.302405,-12.117459,-86.199455,-17.322097
57393,,10.238621,-1.504311,1.030956,0.434246,0.218767,0.386835,-14.616748,-86.026177,-14.567819
57394,,10.244088,-1.364312,1.235568,0.427648,0.278252,0.460130,-18.675818,-85.760258,-10.243181
57395,,10.485681,-1.360143,1.505214,0.411222,0.350317,0.527221,-21.250141,-85.468346,-7.425043
57396,,10.517743,-1.354711,1.947681,0.372644,0.466169,0.591434,-24.617273,-85.051136,-3.846947
57397,,10.764466,-1.284415,2.059278,0.369251,0.594135,0.635581,-26.413737,-84.586960,-1.830743
57398,,10.902345,-1.163117,2.358083,0.391538,0.710283,0.684646,-28.463636,-83.981616,0.443137
57399,,11.054095,-1.043403,2.641772,0.335644,0.823721,0.751634,-29.600707,-83.359976,1.780663
57400,,11.053471,-0.883566,2.867603,0.237249,0.913648,0.833959,-31.153050,-82.588621,3.459369
57401,,11.012089,-0.870772,2.945755,0.097517,0.988757,0.930767,-32.236453,-81.826540,4.609250
57402,,11.134924,-1.047807,2.864814,-0.084440,1.077629,1.041613,-33.665747,-80.882042,5.982817
57403,,11.254686,-1.508394,3.077777,-0.250148,1.182928,1.151242,-34.778600,-79.951085,6.966101
57404,,11.193814,-1.883741,3.238720,-0.392998,1.285795,1.258485,-35.837403,-78.854056,7.812447
57405,,11.137724,-2.095691,3.137411,-0.492412,1.348492,1.360444,-36.932970,-77.770477,8.643233
57406,,11.182808,-2.475571,2.832822,-0.543315,1.407494,1.459649,-37.875887,-76.548193,9.318255
57407,,10.940153,-2.757100,2.693953,-0.580225,1.448359,1.557485,-38.936617,-75.344941,10.069322
57408,,10.907257,-2.922735,2.770652,-0.626299,1.470435,1.652189,-39.974875,-74.004622,10.810323
57409,,11.066546,-3.023494,3.056623,-0.711824,1.506802,1.742123,-41.039059,-72.701841,11.495836
57410,,11.168327,-3.256306,3.341667,-0.787397,1.556796,1.828385,-42.113762,-71.234421,12.182357
57411,,11.217745,-3.662925,3.366279,-0.804146,1.609882,1.911128,-43.082214,-69.816690,12.721441
57412,,10.917440,-3.930952,3.275347,-0.750509,1.646803,1.981171,-44.021454,-68.233950,13.266200
57413,,10.610927,-3.986095,3.245842,-0.644491,1.650494,2.036288,-44.799657,-66.744472,13.709468
57414,,10.313054,-3.927358,3.174361,-0.565484,1.621992,2.084851,-45.600123,-65.123978,14.219433
57415,,10.304294,-3.918759,3.370841,-0.542124,1.598312,2.123735,-46.297830,-63.615249,14.649389
57416,,10.590115,-3.954567,3.926150,-0.618772,1.608459,2.168551,-47.066637,-61.968240,15.101348
57417,,10.850573,-4.302407,4.287435,-0.713992,1.656092,2.219073,-47.765758,-60.392619,15.433013
57418,,10.639020,-4.934533,4.114029,-0.736240,1.698911,2.274826,-48.478167,-58.670145,15.757309
57419,,10.124706,-5.593253,3.686573,-0.595198,1.674866,2.321909,-49.062658,-57.039775,16.045511
57420,,9.734110,-5.895681,3.346137,-0.372244,1.600378,2.353384,-49.593298,-55.324371,16.411425
57421,,9.567741,-6.040604,3.167216,-0.167958,1.516665,2.379630,-49.990418,-53.724771,16.781590
57422,,9.636649,-5.994516,3.346092,-0.021771,1.477904,2.403965,-50.364257,-52.037617,17.210032
57423,,9.683903,-5.658882,3.611447,0.062548,1.505739,2.414665,-50.593356,-50.424048,17.550568
57424,,9.537008,-5.299182,3.795057,0.148077,1.553580,2.411938,-50.786886,-48.716534,17.884107
57425,,9.254485,-5.196791,3.907341,0.275546,1.604588,2.444806,-50.817738,-47.052604,18.139318
57426,,8.813985,-5.319196,3.892543,0.389329,1.615535,2.489768,-50.839798,-45.304363,18.443598
57427,,8.435297,-5.610808,3.762467,0.456094,1.578145,2.549528,-50.794104,-43.603447,18.752334
57428,,8.168929,-5.733099,3.484846,0.491680,1.503605,2.610164,-50.819859,-41.857360,19.164985
57429,,8.172599,-5.720185,3.236580,0.499334,1.439492,2.657289,-50.812293,-40.158772,19.590358
57430,,8.137135,-5.682794,3.162233,0.491472,1.402889,2.718618,-50.879529,-38.416807,20.090250
57431,,8.038806,-5.574355,3.280256,0.474283,1.398443,2.782824,-50.901137,-36.676825,20.572577
57432,,7.771177,-5.568396,3.585174,0.422040,1.411814,2.820086,-50.997251,-34.904807,21.086497
57433,,7.347458,-5.786198,3.636692,0.371669,1.407006,2.845786,-51.051836,-33.132801,21.565738
57434,,6.887079,-5.940604,3.540094,0.379013,1.375244,2.844907,-51.150516,-31.378729,22.081262
57435,,6.544279,-6.003110,3.680464,0.398520,1.326003,2.831059,-51.171368,-29.641463,22.573250
57436,,6.188490,-6.079877,3.808940,0.412384,1.278608,2.790384,-51.230297,-27.958988,23.092817
57437,,5.931183,-5.992822,3.755448,0.454863,1.246878,2.732791,-51.185535,-26.293666,23.567549
57438,,5.556723,-5.824730,3.785215,0.470330,1.232338,2.656303,-51.167715,-24.698950,24.040199
57439,,5.187301,-5.943749,3.691897,0.487570,1.218407,2.586449,-51.058540,-23.109844,24.461692
57440,,4.761357,-6.087802,3.754898,0.537639,1.194404,2.528905,-50.965845,-21.596281,24.894172
57441,,4.518330,-6.107560,3.982313,0.579970,1.163556,2.494387,-50.778710,-20.069568,25.304090
57442,,4.201177,-6.161432,4.157930,0.621745,1.141222,2.467765,-50.619098,-18.611059,25.736029
57443,,3.770796,-6.133292,4.320961,0.669551,1.109471,2.425815,-50.361327,-17.136971,26.148132
57444,,3.283959,-6.087491,4.383309,0.691346,1.044114,2.367818,-50.144732,-15.765243,26.588767
57445,,2.884416,-5.934996,4.344231,0.717267,0.953259,2.306738,-49.848926,-14.404393,27.033703
57446,,2.650496,-5.952061,4.348645,0.725462,0.856729,2.249293,-49.603715,-13.158577,27.518481
57447,,2.539849,-6.056580,4.434592,0.743996,0.782726,2.190793,-49.282155,-11.915956,28.003845
57448,,2.351282,-6.100872,4.494914,0.765603,0.716369,2.140463,-48.999446,-10.774656,28.515394
57449,,2.097219,-6.169921,4.578563,0.790196,0.650949,2.074438,-48.636114,-9.637180,29.023695
57450,,1.817723,-6.286745,4.598506,0.840927,0.558006,2.009668,-48.295518,-8.617450,29.562046
57451,,1.683799,-6.192701,4.809194,0.880354,0.484436,1.934541,-47.866348,-7.609893,30.099724
57452,,1.461362,-6.057801,5.009165,0.910489,0.448426,1.852006,-47.467581,-6.704924,30.633869
57453,,1.166513,-5.874997,5.069504,0.915520,0.410268,1.770649,-46.998766,-5.803158,31.151541
57454,,0.966391,-5.821358,5.037389,0.897756,0.368183,1.699776,-46.588210,-4.998878,31.670124
57455,,0.826687,-5.750161,5.027273,0.871963,0.321103,1.627771,-46.128885,-4.199584,32.180548
57456,,0.669466,-5.738120,5.076912,0.835454,0.271131,1.547282,-45.737919,-3.501444,32.688201
57457,,0.559797,-5.810330,5.154449,0.808006,0.216590,1.485797,-45.302213,-2.809689,33.195133
57458,,0.519890,-5.985251,5.332998,0.780797,0.174416,1.420254,-44.929352,-2.206255,33.699172
57459,,0.386382,-6.166502,5.639367,0.786748,0.141391,1.382098,-44.494640,-1.594140,34.203416
57460,,0.151462,-6.157362,5.860117,0.780467,0.112082,1.347977,-44.110707,-1.049390,34.710329
57461,,0.060789,-6.034864,6.045351,0.772739,0.075363,1.312287,-43.674195,-0.499553,35.220460
57462,,0.093286,-5.908132,6.077593,0.762762,0.048582,1.276518,-43.289174,-0.013074,35.729846
57463,,0.153495,-5.708495,6.242557,0.744596,0.037813,1.254226,-42.859770,0.490978,36.238134
57464,,0.231019,-5.471471,6.458230,0.694799,0.026235,1.244409,-42.502215,0.950938,36.749072
57465,,0.141045,-5.450263,6.664293,0.616760,0.015521,1.225287,-42.137561,1.427634,37.260407
57466,,-0.060360,-5.460563,6.740622,0.560199,-0.020399,1.209485,-41.844354,1.849562,37.779725
57467,,-0.109185,-5.399056,6.945127,0.505469,-0.046271,1.191100,-41.535132,2.281130,38.305431
57468,,-0.239286,-5.191350,7.165591,0.428258,-0.060356,1.141054,-41.305946,2.656562,38.814771
57469,,-0.133829,-5.053789,7.197516,0.345159,-0.080371,1.064409,-41.083356,3.021052,39.302696
57470,,-0.018288,-4.801174,7.042733,0.276095,-0.096922,0.993104,-40.932048,3.322845,39.764774
57471,,-0.092433,-4.563995,7.031751,0.213720,-0.134299,0.910519,-40.782124,3.603396,40.208580
57472,,-0.160743,-4.436520,7.053621,0.132208,-0.218446,0.858210,-40.703786,3.800279,40.659355
57473,,-0.078698,-4.304089,7.268282,0.065080,-0.295779,0.843350,-40.633516,3.984104,41.135476
57474,,-0.365907,-4.475312,7.573213,0.007698,-0.318117,0.819530,-40.615756,4.122638,41.607607
57475,,-0.612802,-4.515601,7.770085,0.002440,-0.338166,0.762131,-40.580309,4.257146,42.064550
57476,,-0.635818,-4.642606,7.830656,-0.017062,-0.328499,0.686847,-40.571910,4.342641,42.483404
57477,,-0.769814,-4.839824,7.713568,0.001592,-0.352176,0.601150,-40.540410,4.410738,42.875509
57478,,-0.559837,-4.730772,7.969403,0.011372,-0.319493,0.495591,-40.515673,4.430312,43.208094
57479,,-0.674302,-5.088357,7.860292,0.091087,-0.197974,0.344858,-40.445541,4.469757,43.430765
57480,,-0.723508,-5.140866,7.937357,0.258422,-0.083607,0.193553,-40.290765,4.480371,43.543887
57481,,-0.651960,-4.840002,8.326355,0.377601,0.031562,0.039948,-40.073445,4.506410,43.547772
57482,,-0.536850,-4.335108,8.687188,0.417840,0.105277,-0.082216,-39.837076,4.498835,43.470385
57483,,-0.357020,-3.851425,9.015036,0.362286,0.184220,-0.186649,-39.640782,4.509096,43.318235
57484,,-0.163060,-3.574029,9.168994,0.254003,0.275177,-0.325749,-39.503090,4.488510,43.071593
57485,,0.058438,-3.706871,9.278209,0.114317,0.405405,-0.511856,-39.466408,4.478767,42.694408
57486,,0.033577,-3.763896,9.152605,0.052096,0.530071,-0.693020,-39.454389,4.436909,42.192531
57487,,-0.265715,-3.498431,9.034819,-0.018601,0.619014,-0.859032,-39.511282,4.395157,41.583337
57488,,-0.424998,-3.645437,8.797552,-0.087130,0.695000,-1.042919,-39.585527,4.297647,40.866878
57489,,-0.319118,-4.121008,8.598047,-0.128588,0.729023,-1.224359,-39.718386,4.169058,40.056015
57490,,-0.137192,-4.510536,8.652583,-0.120708,0.753991,-1.356994,-39.812922,3.980939,39.180161
57491,,-0.046598,-4.815933,8.740562,-0.111600,0.787617,-1.465875,-39.939719,3.786227,38.242134
57492,,0.101108,-4.940852,8.726560,-0.079701,0.830145,-1.572841,-40.007647,3.549583,37.244295
57493,,0.390023,-5.211657,8.850883,-0.079570,0.896107,-1.665222,-40.116392,3.325898,36.179707
57494,,0.462820,-5.356907,8.861262,-0.111713,0.944192,-1.733551,-40.197038,3.076728,35.070183
57495,,0.527455,-5.362203,8.566532,-0.120421,0.964430,-1.802024,-40.324510,2.828573,33.921642
57496,,0.681645,-5.315594,8.356195,-0.112810,0.987301,-1.849432,-40.396122,2.551155,32.746427
57497,,0.731000,-5.412689,8.297764,-0.150578,1.000299,-1.872333,-40.531997,2.288421,31.555236
57498,,0.768934,-5.528973,7.987650,-0.229760,1.009825,-1.871852,-40.658101,2.007406,30.362896
57499,,0.836525,-5.716284,7.988212,-0.278755,1.033961,-1.821338,-40.856028,1.772273,29.183010
57500,,0.733645,-5.969019,7.865204,-0.346855,1.039980,-1.763305,-41.037039,1.537612,28.027764
57501,,0.753791,-6.173707,7.604113,-0.390227,1.044683,-1.734195,-41.288568,1.331621,26.883385
57502,,1.063613,-6.472095,7.131450,-0.437541,1.078336,-1.735109,-41.513286,1.115202,25.727164
57503,,1.178870,-6.701278,6.869513,-0.451113,1.100328,-1.732263,-41.791732,0.923993,24.564385
57504,,1.257839,-6.989831,6.568485,-0.417177,1.105691,-1.744559,-41.999182,0.705033,23.394992
57505,,1.209594,-7.106210,6.500687,-0.377473,1.117340,-1.735471,-42.227135,0.510475,22.225991
57506,,0.843391,-7.173677,6.447748,-0.354688,1.139795,-1.703800,-42.394255,0.312433,21.061742
57507,,0.586330,-6.662759,6.698378,-0.417741,1.153667,-1.639604,-42.637598,0.162117,19.920601
57508,,0.265245,-6.582356,6.861182,-0.628490,1.166929,-1.570390,-42.958027,0.018179,18.803122
57509,,0.231609,-7.064938,6.600258,-0.853809,1.163501,-1.507115,-43.445812,-0.089723,17.715340
57510,,0.474443,-7.728415,6.406443,-0.937587,1.194963,-1.422482,-43.941328,-0.179146,16.649944
57511,,0.514264,-8.265439,6.265232,-0.946000,1.228896,-1.329059,-44.479095,-0.208187,15.611210
57512,,0.405968,-8.530362,6.069235,-0.935493,1.244590,-1.236673,-44.976614,-0.220717,14.602834
57513,,0.357392,-8.645385,6.014717,-0.952893,1.243972,-1.148683,-45.518358,-0.189091,13.631414
57514,,0.354758,-8.894259,5.778987,-0.981208,1.233360,-1.068508,-46.048326,-0.154628,12.694979
57515,,0.326710,-9.117241,5.641300,-0.964204,1.212646,-0.952817,-46.598271,-0.072487,11.813614
57516,,0.202693,-9.316199,5.563052,-0.928728,1.162623,-0.844954,-47.106330,0.011000,10.993670
57517,,0.222544,-9.489456,5.681542,-0.889314,1.125126,-0.760088,-47.616016,0.124420,10.222645
57518,,0.012998,-9.640451,5.854823,-0.891090,1.128893,-0.702383,-48.111159,0.241758,9.470338
57519,,-0.569397,-9.811111,5.633167,-0.790981,1.099805,-0.700296,-48.567457,0.357939,8.731087
57520,,-1.001082,-9.851987,5.333623,-0.550212,0.981126,-0.723716,-48.874860,0.400518,8.032576
57521,,-0.690722,-9.636052,5.258245,-0.305296,0.918786,-0.740792,-49.053874,0.423024,7.355091
57522,,-0.503293,-9.332651,4.852464,-0.109125,0.896517,-0.728462,-49.114416,0.429893,6.691246
57523,,-0.536989,-8.973140,4.493368,-0.015030,0.839877,-0.710710,-49.127014,0.433984,6.059164
57524,,-0.256388,-8.784382,4.282480,-0.004169,0.747945,-0.668855,-49.132058,0.411982,5.482145
57525,,-0.026493,-8.354842,4.413090,0.051044,0.672719,-0.600576,-49.105712,0.401115,4.963781
57526,,-0.525428,-7.158255,4.908281,0.051428,0.637816,-0.614994,-49.082762,0.362023,4.454738
57527,,-1.219080,-6.097308,4.804598,-0.089872,0.508049,-0.716195,-49.136053,0.239395,3.964341
57528,,-0.985082,-5.434872,4.986326,-0.303714,0.354600,-0.854927,-49.315241,-0.008891,3.488628
57529,,0.000983,-4.881961,5.721457,-0.609143,0.365565,-0.929537,-49.662203,-0.280731,2.981725
57530,,0.528857,-4.723042,6.332253,-0.953234,0.486264,-0.946601,-50.206895,-0.525276,2.417549
57531,,0.729336,-5.045973,6.463822,-1.222378,0.609731,-0.949573,-50.899761,-0.726469,1.800430
57532,,0.830263,-5.450815,6.519553,-1.440382,0.675677,-0.933439,-51.714584,-0.911651,1.161957
57533,,0.962339,-5.966292,6.718599,-1.651185,0.739458,-0.926060,-52.648418,-1.074083,0.500290
57534,,0.906816,-6.582142,6.620953,-1.818858,0.784138,-0.936327,-53.672004,-1.245068,-0.183064
57535,,0.856057,-7.046088,6.199293,-1.863040,0.782833,-0.976624,-54.722463,-1.439633,-0.875800
57536,,0.985902,-7.159059,5.619782,-1.780688,0.766645,-1.054417,-55.716442,-1.697231,-1.583513
57537,,1.185236,-7.057646,5.197946,-1.639256,0.768554,-1.130044,-56.631470,-1.993154,-2.311450
57538,,1.618910,-6.831213,5.466471,-1.523283,0.801896,-1.200034,-57.467718,-2.333293,-3.073619
57539,,2.083624,-6.910397,6.184756,-1.565376,0.936180,-1.233583,-58.327686,-2.650191,-3.905617
57540,,1.988135,-7.816704,6.406684,-1.699044,1.092242,-1.223948,-59.247125,-2.940969,-4.807651
57541,,1.050227,-9.432863,5.437351,-1.596122,1.166399,-1.214550,-60.110972,-3.207558,-5.738303
57542,,0.300213,-10.492873,4.127853,-1.103711,1.089400,-1.220164,-60.679664,-3.523437,-6.630375
57543,,0.453257,-10.289636,3.638549,-0.504682,0.948294,-1.238432,-60.914898,-3.881041,-7.453626
57544,,1.140169,-9.360655,3.729445,-0.121270,0.857545,-1.289774,-60.919627,-4.303098,-8.246444
57545,,1.630509,-8.544719,3.684471,0.027645,0.817988,-1.354837,-60.840563,-4.756497,-9.037161
57546,,1.805888,-7.617953,3.663414,0.078404,0.814875,-1.420976,-60.718693,-5.254737,-9.847293
57547,,1.774873,-6.767778,3.825863,-0.060327,0.818579,-1.432476,-60.674327,-5.744245,-10.662805
57548,,1.740633,-6.127916,4.219150,-0.410626,0.820098,-1.399032,-60.819314,-6.230809,-11.471081
57549,,1.840429,-5.839540,4.696652,-0.961159,0.826434,-1.354825,-61.279713,-6.684207,-12.267255
57550,,1.602272,-6.688809,4.463849,-1.593324,0.845941,-1.309485,-62.089714,-7.132698,-13.058076
57551,,1.152654,-8.388040,3.545125,-1.980819,0.799110,-1.238097,-63.129314,-7.555290,-13.797950
57552,,1.284171,-9.623950,3.056174,-2.038863,0.748205,-1.150283,-64.197016,-7.973457,-14.483298
57553,,1.577008,-10.347068,2.616319,-1.982074,0.714606,-1.048176,-65.241938,-8.345072,-15.117210
57554,,1.790427,-10.825841,2.303459,-1.829165,0.679335,-0.975379,-66.197035,-8.711454,-15.710262
57555,,1.993358,-11.050729,2.155587,-1.625779,0.648472,-0.936091,-67.041082,-9.059767,-16.271563
57556,,1.598252,-11.746781,1.846508,-1.380270,0.642087,-0.904556,-67.742827,-9.413562,-16.818614
57557,,0.939890,-12.831506,1.489222,-1.022622,0.592717,-0.857138,-68.243694,-9.745113,-17.325159
57558,,0.678247,-13.408069,1.586828,-0.539917,0.476639,-0.766454,-68.483855,-10.067684,-17.747243
57559,,0.877228,-12.817050,1.987779,-0.090448,0.344296,-0.658014,-68.476868,-10.349547,-18.074807
57560,,1.214523,-11.840657,2.053887,0.221094,0.208457,-0.556122,-68.316187,-10.614045,-18.305923
57561,,1.481734,-10.881750,1.940868,0.366042,0.091607,-0.471456,-68.077352,-10.848838,-18.458228
57562,,1.578710,-10.555238,1.704780,0.359327,0.014154,-0.376707,-67.865949,-11.056537,-18.546399
57563,,1.558467,-10.711248,1.683861,0.311697,-0.044126,-0.266923,-67.679723,-11.211151,-18.582121
57564,,1.393099,-10.879955,1.815774,0.255949,-0.106888,-0.122529,-67.553979,-11.308944,-18.548885
57565,,1.444734,-10.843042,1.967090,0.190560,-0.197690,0.035832,-67.466472,-11.336773,-18.434770
57566,,1.428006,-10.707030,2.046709,0.112603,-0.284817,0.178176,-67.458081,-11.313073,-18.237657
57567,,1.357080,-10.561794,1.926227,0.062396,-0.366668,0.303353,-67.473454,-11.236509,-17.972498
57568,,1.364828,-10.601840,1.977799,0.044787,-0.456917,0.408748,-67.534177,-11.126795,-17.630536
57569,,1.588807,-10.847370,2.090123,0.048865,-0.530413,0.494301,-67.581362,-10.984498,-17.234792
57570,,1.655598,-11.144038,2.127694,0.150329,-0.590643,0.572052,-67.602961,-10.815512,-16.784421
57571,,1.575269,-11.179618,1.991093,0.358247,-0.665268,0.628908,-67.489668,-10.631511,-16.286430
57572,,1.670465,-10.922513,2.290614,0.570183,-0.745708,0.691117,-67.290642,-10.433874,-15.725506
57573,,1.802422,-10.461803,2.675098,0.710730,-0.789166,0.741998,-66.988648,-10.221207,-15.134762
57574,,1.673926,-9.689196,2.900614,0.850732,-0.837938,0.756891,-66.638158,-10.014176,-14.508027
57575,,1.734940,-8.718240,3.274051,0.994529,-0.880435,0.719496,-66.177342,-9.841677,-13.871895
57576,,1.947301,-7.711148,3.537139,1.120528,-0.885560,0.651081,-65.669231,-9.709976,-13.242611
57577,,2.192263,-6.708178,4.257624,1.170709,-0.845778,0.564721,-65.095676,-9.621049,-12.659736
57578,,2.432031,-6.247508,4.647556,1.061755,-0.765262,0.486704,-64.600485,-9.557290,-12.132766
57579,,2.318819,-6.229191,4.969635,0.940123,-0.673416,0.423384,-64.137112,-9.508818,-11.674416
57580,,1.934815,-6.312865,5.066895,0.843278,-0.608830,0.372342,-63.744909,-9.473879,-11.258148
57581,,1.388319,-6.397885,5.139416,0.776015,-0.586212,0.332188,-63.363799,-9.456356,-10.868177
57582,,1.122445,-6.545878,5.096623,0.711656,-0.600735,0.298059,-63.039819,-9.462779,-10.475786
57583,,1.298037,-6.914179,4.997767,0.642552,-0.600414,0.265558,-62.733595,-9.487419,-10.095917
57584,,1.531431,-7.410151,4.723871,0.591422,-0.572142,0.221356,-62.470424,-9.528904,-9.739273
57585,,1.788911,-8.010166,4.609671,0.616916,-0.515433,0.209275,-62.169564,-9.563178,-9.418503
57586,,1.460679,-9.059575,4.738689,0.708364,-0.429529,0.327821,-61.830886,-9.516122,-9.106653
57587,,0.791056,-9.657693,4.682744,0.788556,-0.479582,0.408314,-61.437278,-9.444065,-8.749775
57588,,0.828685,-9.821244,4.531235,0.820714,-0.621165,0.387640,-61.052297,-9.422751,-8.323188
57589,,1.286804,-10.071969,4.262753,0.793590,-0.753914,0.371350,-60.676802,-9.450446,-7.836680
57590,,1.804846,-10.365518,3.895071,0.857823,-0.820200,0.438963,-60.290421,-9.464015,-7.294399
57591,,1.922678,-10.119110,4.013680,0.966783,-0.812333,0.525427,-59.827922,-9.438650,-6.734241
57592,,1.995721,-9.585452,4.132495,0.987511,-0.809162,0.617863,-59.375875,-9.368490,-6.145075
57593,,2.012227,-9.047594,4.346602,0.933398,-0.798487,0.683618,-58.937770,-9.269932,-5.544604
57594,,2.138432,-8.902796,4.530024,0.799711,-0.765948,0.739231,-58.594567,-9.135941,-4.939711
57595,,2.142228,-9.027179,4.411975,0.628920,-0.694300,0.816025,-58.326396,-8.948698,-4.349870
57596,,1.541128,-8.957336,4.515000,0.500148,-0.614077,0.868378,-58.146038,-8.711784,-3.779925
57597,,1.090696,-9.002575,4.788608,0.415104,-0.624004,0.890822,-57.994148,-8.470830,-3.201170
57598,,1.211504,-9.118842,4.700262,0.370154,-0.658617,0.934912,-57.890032,-8.217364,-2.588559
57599,,1.310145,-9.402274,4.305445,0.360012,-0.671292,0.992740,-57.772324,-7.943782,-1.954981
57600,,1.405841,-9.911995,3.961246,0.399006,-0.692999,1.055339,-57.653884,-7.644233,-1.288290
57601,,1.460122,-10.318378,4.199870,0.479997,-0.704956,1.108722,-57.467808,-7.327863,-0.601940
57602,,1.219180,-10.598774,4.419323,0.652339,-0.678909,1.091248,-57.199338,-7.010492,0.070079
57603,,1.294117,-10.943538,4.251564,0.972867,-0.762564,1.118555,-56.727453,-6.714496,0.789741
57604,,1.336485,-10.951424,4.316971,1.219754,-0.820591,1.171892,-56.139847,-6.413229,1.559552
57605,,1.165989,-10.497986,4.473012,1.447348,-0.837401,1.228026,-55.396908,-6.104450,2.355556
57606,,0.988732,-9.834235,4.481598,1.637024,-0.858814,1.272827,-54.569841,-5.787069,3.183078
57607,,0.894783,-9.103733,4.392924,1.745540,-0.880264,1.304982,-53.652701,-5.479963,4.032786
57608,,1.137247,-8.375905,4.495837,1.712954,-0.907755,1.357423,-52.780004,-5.165157,4.920218
57609,,1.629350,-7.905073,4.541707,1.540202,-0.904665,1.441918,-51.977009,-4.830136,5.837184
57610,,2.140052,-7.668878,4.633185,1.351398,-0.852869,1.519386,-51.304757,-4.447282,6.764605
57611,,2.322270,-7.678491,4.623339,1.157174,-0.761285,1.563570,-50.708153,-4.028350,7.668337
57612,,2.195238,-7.635559,4.823086,1.005434,-0.698683,1.575326,-50.218409,-3.584619,8.554069
57613,,2.026043,-7.115725,5.297988,0.836149,-0.653464,1.601402,-49.790286,-3.125191,9.430637
57614,,1.677453,-6.456456,5.756428,0.579270,-0.592170,1.632315,-49.529466,-2.630530,10.295689
57615,,1.045086,-6.032588,6.002205,0.272364,-0.557856,1.654029,-49.408674,-2.120770,11.153717
57616,,0.789767,-5.874782,6.303974,-0.026738,-0.585378,1.683572,-49.479057,-1.604943,12.035550
57617,,0.664538,-6.188990,6.655604,-0.285533,-0.603345,1.720644,-49.663512,-1.081497,12.936778
57618,,0.666967,-6.643863,6.877994,-0.417854,-0.640426,1.761465,-49.940676,-0.546331,13.867381
57619,,0.688278,-7.033742,6.938007,-0.440477,-0.654907,1.755064,-50.197407,-0.018912,14.799111
57620,,0.557296,-7.242403,6.945384,-0.358426,-0.672904,1.714338,-50.421812,0.491777,15.721494
57621,,0.554979,-6.985690,6.920708,-0.226693,-0.684865,1.664276,-50.539857,0.974833,16.629621
57622,,0.098747,-6.258419,6.902421,-0.116265,-0.679252,1.595960,-50.609282,1.434927,17.509198
57623,,-0.385902,-5.479381,6.946821,-0.093853,-0.721231,1.490979,-50.638349,1.830276,18.369514
57624,,-0.450235,-4.878724,6.886535,-0.155891,-0.837990,1.409597,-50.715977,2.152081,19.251096
57625,,-0.358115,-4.346283,6.778473,-0.285898,-0.941024,1.317705,-50.844146,2.393234,20.145482
57626,,-0.132889,-4.819843,6.330897,-0.352427,-1.012525,1.211498,-51.023559,2.568321,21.032033
57627,,-0.066853,-4.875939,6.417426,-0.388629,-1.013565,1.013606,-51.208903,2.652993,21.848116
57628,,-0.086040,-5.521637,6.435017,-0.295766,-0.891526,0.788010,-51.360086,2.687513,22.527736
57629,,-0.229417,-5.176635,6.766087,-0.205769,-0.795866,0.567704,-51.451816,2.654433,23.086286
57630,,-0.503034,-4.885651,6.830097,-0.184220,-0.688633,0.351550,-51.548779,2.568009,23.518979
57631,,-0.535212,-4.589657,6.600087,-0.197699,-0.606614,0.137778,-51.648012,2.411120,23.839348
57632,,-0.520841,-4.462887,6.478994,-0.250080,-0.536464,-0.058440,-51.790955,2.196110,24.058345
57633,,-0.495571,-4.263732,6.355224,-0.320653,-0.471028,-0.253051,-51.970206,1.912588,24.179913
57634,,-0.425471,-4.244306,6.127054,-0.392286,-0.416899,-0.450316,-52.199985,1.564071,24.208331
57635,,-0.448299,-4.396413,5.957461,-0.432224,-0.373155,-0.650368,-52.448938,1.135599,24.148480
57636,,-0.255881,-4.654751,5.828426,-0.472769,-0.345148,-0.838556,-52.725542,0.635757,24.012326
57637,,-0.210896,-5.091967,5.640444,-0.488993,-0.304799,-1.004592,-53.006906,0.068585,23.802801
57638,,-0.136520,-5.392752,5.652405,-0.479388,-0.283679,-1.155956,-53.282406,-0.556930,23.534414
57639,,-0.167430,-5.724529,5.611150,-0.508023,-0.300797,-1.312412,-53.568444,-1.266386,23.223467
57640,,-0.101190,-6.128754,5.184456,-0.484723,-0.370491,-1.478899,-53.837306,-2.072956,22.891691
57641,,0.127623,-6.177905,4.663031,-0.361934,-0.454782,-1.658290,-54.029097,-2.997266,22.541388
57642,,0.402255,-6.156955,4.352961,-0.237061,-0.551167,-1.817497,-54.143579,-4.023726,22.184599
57643,,0.676495,-6.012718,3.826617,-0.108874,-0.672480,-1.983046,-54.177387,-5.173284,21.829333
57644,,1.076270,-5.697077,3.605314,0.063415,-0.793439,-2.115331,-54.107067,-6.419853,21.485043
57645,,1.534482,-5.540336,3.738302,0.191829,-0.897364,-2.205233,-53.956402,-7.747315,21.155335
57646,,1.795599,-5.657309,3.910615,0.227490,-0.994093,-2.261484,-53.781949,-9.128330,20.847056
57647,,2.114138,-5.690712,4.105659,0.217236,-1.083425,-2.308691,-53.608062,-10.564729,20.558634
57648,,2.338144,-5.631095,4.246641,0.154899,-1.165901,-2.345249,-53.468154,-12.041978,20.291195
57649,,2.588431,-5.517454,4.108743,0.041909,-1.250579,-2.363210,-53.391223,-13.559190,20.052753
57650,,2.928230,-5.359300,3.888899,-0.074638,-1.344647,-2.394478,-53.383913,-15.120477,19.845578
57651,,3.504969,-5.422523,3.678129,-0.204530,-1.428342,-2.419924,-53.452409,-16.724431,19.668378
57652,,4.144922,-5.819298,3.699816,-0.327551,-1.475137,-2.430712,-53.594365,-18.348708,19.511981
57653,,4.596589,-6.435476,3.845375,-0.433983,-1.455296,-2.407292,-53.792255,-19.956771,19.357462
57654,,4.832445,-7.159668,3.913603,-0.509697,-1.426204,-2.374121,-54.032723,-21.541065,19.205773
57655,,5.112181,-7.823945,3.960023,-0.567834,-1.428188,-2.322961,-54.310031,-23.102024,19.079453
57656,,5.511344,-8.255819,4.083022,-0.618002,-1.473901,-2.229253,-54.642984,-24.637092,19.019235
57657,,5.820839,-8.019144,4.355257,-0.728043,-1.512952,-2.125861,-55.063134,-26.134948,19.026368
57658,,5.947676,-7.560453,4.477244,-0.932742,-1.507102,-2.081485,-55.618756,-27.612027,19.062761
57659,,5.859269,-7.369269,4.277975,-1.100497,-1.520885,-2.097236,-56.275170,-29.098440,19.117292
57660,,6.253611,-7.351648,3.828545,-1.299124,-1.552496,-2.140150,-57.064805,-30.618491,19.198106
57661,,6.231938,-7.350252,3.786958,-1.530153,-1.391809,-2.222358,-57.933804,-32.123780,19.183288
57662,,5.929087,-7.601625,4.329097,-1.708343,-1.299584,-2.248991,-58.892270,-33.620072,19.136618
57663,,5.938240,-8.621112,3.815298,-1.653018,-1.226272,-2.211144,-59.810473,-35.071114,19.085371
57664,,6.041095,-9.644610,3.453879,-1.442310,-1.098013,-2.164286,-60.592867,-36.468437,19.001474
57665,,6.303750,-10.118637,3.830981,-1.234156,-1.031037,-2.058245,-61.256336,-37.789186,18.929170
57666,,6.734572,-9.610994,4.375900,-0.965950,-1.070736,-1.899682,-61.834860,-39.045890,18.959936
57667,,7.329128,-8.864877,4.377542,-0.720162,-1.139939,-1.741076,-62.338076,-40.236180,19.101946
57668,,8.210946,-8.764932,3.648217,-0.502357,-1.152781,-1.630672,-62.769482,-41.376207,19.312444
57669,,8.633357,-8.837060,3.331012,-0.298039,-1.036585,-1.598755,-63.039699,-42.465257,19.461311
57670,,8.340017,-8.856277,3.956987,-0.234577,-0.888460,-1.568990,-63.229284,-43.503678,19.532897
57671,,7.320386,-8.355213,4.608084,-0.190493,-0.854836,-1.544223,-63.376439,-44.517239,19.587603
57672,,6.513358,-7.320063,5.114289,-0.120581,-0.901433,-1.592979,-63.510300,-45.570073,19.670527
57673,,6.672209,-6.769735,4.673002,0.004530,-0.881509,-1.676824,-63.531639,-46.658300,19.703723
57674,,7.448224,-6.668625,4.001909,0.165946,-0.769757,-1.708712,-63.399664,-47.735364,19.646673
57675,,8.090414,-6.793354,3.553526,0.295511,-0.637388,-1.676049,-63.110776,-48.760350,19.486382
57676,,8.570556,-6.823475,3.159059,0.430831,-0.575216,-1.608928,-62.726346,-49.734881,19.298858
57677,,8.794894,-6.583186,2.737156,0.587894,-0.589751,-1.551281,-62.255551,-50.682342,19.124500
57678,,8.727519,-6.304962,2.307589,0.723820,-0.670188,-1.518952,-61.764286,-51.634813,19.020423
57679,,8.503718,-6.073607,2.058926,0.806571,-0.770292,-1.508958,-61.269802,-52.608257,18.979400
57680,,8.350097,-5.806665,2.240060,0.803361,-0.811046,-1.523310,-60.799211,-53.600906,18.960449
57681,,8.382603,-5.676574,2.643311,0.729755,-0.783807,-1.511545,-60.332347,-54.578898,18.900218
57682,,8.523704,-5.963048,2.766432,0.640211,-0.756853,-1.461642,-59.919047,-55.525028,18.837453
57683,,8.862770,-6.430595,2.531717,0.620179,-0.758235,-1.384799,-59.525612,-56.432296,18.791421
57684,,9.102646,-7.048576,2.213192,0.667078,-0.740573,-1.279665,-59.143482,-57.282789,18.785414
57685,,8.756356,-7.506155,1.979233,0.779768,-0.714268,-1.151981,-58.710892,-58.062358,18.802117
57686,,8.040358,-7.673925,1.602383,0.919484,-0.778034,-1.047169,-58.309782,-58.809058,18.942875
57687,,7.544570,-7.405296,1.201671,1.084087,-0.924934,-0.980543,-57.944306,-59.568995,19.240444
57688,,7.431763,-6.537411,1.034184,1.267145,-1.022973,-0.983932,-57.577497,-60.358806,19.647576
57689,,7.545927,-5.294753,1.142962,1.412553,-1.078635,-1.014412,-57.136219,-61.184564,20.069206
57690,,7.752518,-4.066245,1.215638,1.519065,-1.109550,-1.069306,-56.658426,-62.044155,20.507056
57691,,8.117870,-3.138556,1.173221,1.654661,-1.146666,-1.127937,-56.071557,-62.949093,20.914117
57692,,8.368400,-2.154694,1.223531,1.812288,-1.173698,-1.193813,-55.403253,-63.892445,21.319709
57693,,8.461999,-0.960373,1.451638,1.889815,-1.207151,-1.295930,-54.612122,-64.900299,21.642961
57694,,8.750460,0.466200,2.116852,1.795649,-1.259706,-1.414375,-53.858212,-65.980641,21.937781
57695,,9.349085,2.001103,3.088321,1.419892,-1.289657,-1.500485,-53.234628,-67.114092,22.144661
57696,,10.141421,3.044155,3.931657,0.806093,-1.269497,-1.566090,-52.901567,-68.272008,22.278200
57697,,10.812890,3.267846,4.393132,0.132525,-1.208245,-1.651752,-52.770896,-69.447295,22.219302
57698,,11.202780,2.994127,4.398369,-0.489604,-1.106570,-1.751400,-52.785830,-70.636772,21.933493
57699,,11.349119,2.002865,4.142798,-0.970555,-0.995532,-1.843988,-52.795216,-71.826080,21.355877
57700,,11.316064,0.902327,3.684372,-1.276102,-0.865368,-1.927373,-52.664820,-73.014697,20.450833
57701,,11.186817,-0.269905,3.179283,-1.418084,-0.745591,-1.992479,-52.261083,-74.183198,19.182821
57702,,10.919963,-1.144593,2.946516,-1.388158,-0.645389,-2.015630,-51.501726,-75.330829,17.571210
57703,,10.878902,-1.721752,2.792115,-1.313206,-0.579295,-2.017229,-50.377544,-76.440471,15.636057
57704,,11.049257,-2.243935,2.594474,-1.204065,-0.515519,-1.993089,-48.825279,-77.512113,13.335011
57705,,11.190438,-2.647533,2.286420,-1.058929,-0.466598,-1.951543,-46.821136,-78.523348,10.665888
57706,,11.239218,-2.984597,1.907734,-0.871553,-0.395408,-1.892474,-44.222391,-79.465168,7.510190
57707,,11.178390,-2.891139,1.734356,-0.674937,-0.353301,-1.827519,-41.045550,-80.326425,3.890423
57708,,11.249520,-2.651335,1.616239,-0.542050,-0.329911,-1.765852,-37.253905,-81.119700,-0.265787
57709,,11.175068,-2.330160,1.541046,-0.424750,-0.309469,-1.691715,-32.870556,-81.824698,-4.944286
57710,,11.064374,-2.119218,1.367951,-0.371584,-0.301460,-1.606520,-27.932477,-82.445880,-10.143924
57711,,10.885028,-1.958126,1.317753,-0.367162,-0.295932,-1.529777,-22.486434,-82.975343,-15.846488
57712,,10.768520,-1.902038,1.170003,-0.362167,-0.288617,-1.443201,-16.585071,-83.412574,-21.998604
57713,,10.632777,-1.863059,1.122854,-0.336801,-0.282951,-1.349097,-10.403330,-83.752660,-28.413599
57714,,10.513938,-1.742330,0.995698,-0.314892,-0.266853,-1.262476,-4.031134,-83.998548,-35.003902
57715,,10.396887,-1.711016,1.000315,-0.314944,-0.248846,-1.175468,2.290194,-84.152478,-41.540710
57716,,10.390266,-1.747195,0.925962,-0.289190,-0.235593,-1.095094,8.427082,-84.230426,-47.876087
57717,,10.337842,-1.753927,0.859979,-0.261341,-0.222494,-1.018081,14.225790,-84.241087,-53.854907
57718,,10.294753,-1.590997,0.774146,-0.204307,-0.209385,-0.950234,19.625473,-84.199045,-59.400318
57719,,10.218964,-1.282890,0.721838,-0.166054,-0.197059,-0.883510,24.560570,-84.112793,-64.457003
57720,,10.097862,-1.021876,0.693187,-0.131886,-0.187054,-0.825222,29.017531,-83.997267,-69.014699
57721,,10.051930,-0.714598,0.749305,-0.144904,-0.177072,-0.761399,32.970929,-83.858620,-73.074080
57722,,10.017624,-0.540913,0.709170,-0.183964,-0.167260,-0.688472,36.355778,-83.715443,-76.585748
57723,,9.923426,-0.576394,0.686885,-0.238069,-0.154659,-0.619987,39.252055,-83.566423,-79.637405
57724,,9.824153,-0.647353,0.601874,-0.282151,-0.149967,-0.549461,41.686555,-83.430354,-82.251271
57725,,9.756500,-0.782982,0.576022,-0.279927,-0.149566,-0.482635,43.797277,-83.304094,-84.537898
57726,,9.678729,-0.840423,0.494963,-0.253575,-0.171866,-0.430750,45.720967,-83.203912,-86.622325
57727,,9.723493,-0.917420,0.464344,-0.206089,-0.181597,-0.367588,47.462954,-83.120720,-88.495946
57728,,9.729552,-0.831379,0.384018,-0.139233,-0.197427,-0.308413,49.048920,-83.068859,-90.175025
57729,,9.842993,-0.573284,0.426734,-0.100187,-0.192752,-0.246552,50.453118,-83.030573,-91.647686
57730,,9.900078,-0.248471,0.633553,-0.070380,-0.166219,-0.184655,51.556136,-83.013924,-92.800854
57731,,9.830994,-0.090351,0.695345,-0.095507,-0.152706,-0.122190,52.436197,-83.010713,-93.742887
57732,,9.854960,-0.072248,0.768386,-0.128888,-0.149263,-0.077224,53.129770,-83.033427,-94.517403
57733,,9.823768,-0.266086,0.782530,-0.135944,-0.143141,-0.030597,53.698036,-83.066260,-95.168610
57734,,9.860860,-0.406430,0.691839,-0.109602,-0.135840,0.014589,54.102801,-83.125613,-95.641033
57735,,9.901784,-0.514564,0.623902,-0.052517,-0.132211,0.047050,54.474362,-83.189713,-96.045847
57736,,9.953831,-0.541839,0.634244,0.024806,-0.106308,0.091849,54.633684,-83.275371,-96.193524
57737,,10.002721,-0.426142,0.680930,0.093278,-0.082390,0.129161,54.670804,-83.361031,-96.177384
57738,,10.090499,-0.280998,0.750115,0.147941,-0.060979,0.162974,54.511753,-83.465526,-95.933611
57739,,10.088116,-0.151031,0.778535,0.178945,-0.042218,0.194561,54.236962,-83.568235,-95.554176
57740,,10.087349,0.031248,0.747932,0.186799,-0.028063,0.203631,53.818428,-83.680662,-95.027097
57741,,10.124893,0.053699,0.724309,0.194225,-0.019096,0.204958,53.397607,-83.779734,-94.492120
57742,,10.128150,0.079070,0.704149,0.218074,0.001560,0.208201,52.818320,-83.883362,-93.785609
57743,,10.136280,0.139621,0.707690,0.238573,0.017643,0.217973,52.187645,-83.974401,-93.014258
57744,,10.098125,0.256585,0.711692,0.247103,0.026550,0.213256,51.452061,-84.069903,-92.134195
57745,,10.081319,0.254077,0.690049,0.252072,0.042454,0.214290,50.689170,-84.148309,-91.222422
57746,,10.089876,0.284023,0.747437,0.251505,0.050826,0.208861,49.813260,-84.230497,-90.199094
57747,,10.091791,0.287480,0.742966,0.266210,0.070127,0.202319,48.936209,-84.290578,-89.164708
57748,,10.066420,0.353410,0.753391,0.265991,0.077872,0.199259,47.936165,-84.355037,-88.008591
57749,,10.053407,0.397242,0.716093,0.259856,0.087000,0.192961,46.978248,-84.401144,-86.896834
57750,,10.004344,0.423215,0.691661,0.252349,0.101937,0.186600,45.873938,-84.446716,-85.644059
57751,,9.942720,0.355471,0.635411,0.244669,0.105887,0.178624,44.853933,-84.475373,-84.478840
57752,,9.896440,0.279299,0.563068,0.248189,0.108280,0.172370,43.748273,-84.508038,-83.227298
57753,,9.879631,0.281214,0.547984,0.267141,0.105806,0.163128,42.786520,-84.526515,-82.107791
57754,,9.860734,0.261614,0.542901,0.263243,0.105434,0.161297,41.726978,-84.551836,-80.894078
57755,,9.876002,0.238691,0.536647,0.276926,0.115458,0.146062,40.795831,-84.555958,-79.799771
57756,,9.859184,0.243606,0.522512,0.295177,0.121524,0.128494,39.829398,-84.558188,-78.661313
57757,,9.834639,0.318459,0.535686,0.301338,0.130869,0.101908,39.058455,-84.536127,-77.713890
57758,,9.830090,0.304361,0.475458,0.287836,0.143103,0.070775,38.283653,-84.504963,-76.772168
57759,,9.824872,0.256301,0.510091,0.291571,0.150019,0.044651,37.722287,-84.451807,-76.040832
57760,,9.781400,0.206958,0.473302,0.299446,0.137365,0.034625,37.165802,-84.408787,-75.311708
57761,,9.845208,0.145831,0.545876,0.305297,0.123632,0.030134,36.794118,-84.361463,-74.762967
57762,,9.828384,0.160768,0.531282,0.310595,0.109083,0.036679,36.349123,-84.331172,-74.139431
57763,,9.886373,0.323201,0.609191,0.304759,0.091738,0.038427,36.060030,-84.300684,-73.673951
57764,,9.885979,0.321010,0.616700,0.295244,0.079733,0.043118,35.684307,-84.285471,-73.128874
57765,,9.825145,0.385948,0.634211,0.281052,0.065547,0.044652,35.446156,-84.268757,-72.728230
57766,,9.827405,0.405120,0.628088,0.266116,0.054846,0.041496,35.147812,-84.264079,-72.277709
57767,,9.809593,0.384847,0.701042,0.262425,0.051889,0.039233,34.971591,-84.251641,-71.950037
57768,,9.759965,0.391590,0.763946,0.262232,0.053290,0.030442,34.730085,-84.243671,-71.558891
57769,,9.728005,0.416911,0.757518,0.256084,0.043679,0.025888,34.640850,-84.230542,-71.322306
57770,,9.715484,0.436088,0.849157,0.253991,0.045914,0.025152,34.445077,-84.224016,-70.981876
57771,,9.738884,0.484304,0.844505,0.237450,0.038446,0.025809,34.363465,-84.213224,-70.763694
57772,,9.698648,0.456505,0.786774,0.229229,0.036375,0.032193,34.152404,-84.213149,-70.422152
57773,,9.702964,0.508830,0.682428,0.218242,0.029477,0.043185,34.007479,-84.212073,-70.151409
57774,,9.689602,0.542727,0.646508,0.204314,0.027487,0.055130,33.703125,-84.223202,-69.730455
57775,,9.716752,0.597202,0.712254,0.192884,0.023523,0.063812,33.464167,-84.231275,-69.379829
57776,,9.719880,0.608180,0.744084,0.173987,0.027113,0.066271,33.089958,-84.245563,-68.906142
57777,,9.733095,0.571183,0.741644,0.157881,0.028188,0.067881,32.794691,-84.252270,-68.519110
57778,,9.757702,0.603781,0.818835,0.136251,0.021262,0.062847,32.431709,-84.267649,-68.078448
57779,,9.773781,0.583209,0.846786,0.115769,0.026828,0.059772,32.153270,-84.272098,-67.732610
57780,,9.766274,0.652790,0.829648,0.088431,0.027267,0.056392,31.774623,-84.281937,-67.303737
57781,,9.784701,0.658882,0.804915,0.053635,0.032270,0.053311,31.474341,-84.281392,-66.971749
57782,,9.863150,0.596440,0.772235,0.018394,0.037245,0.054509,31.035731,-84.285101,-66.522927
57783,,9.815399,0.489170,0.834871,-0.012903,0.040635,0.058034,30.649401,-84.281382,-66.142791
57784,,9.819819,0.393202,0.827876,-0.031881,0.040837,0.048339,30.203443,-84.280789,-65.715526
57785,,9.831459,0.224020,0.840527,-0.045863,0.048683,0.031072,29.909575,-84.264827,-65.447306
57786,,9.800305,0.002025,0.846986,-0.038533,0.049479,0.024317,29.556262,-84.252564,-65.116983
57787,,9.751531,-0.086827,0.783856,-0.021433,0.035860,0.024595,29.347047,-84.240898,-64.919780
57788,,9.756833,-0.047035,0.763603,-0.009181,0.023797,0.031159,29.048046,-84.243163,-64.627180
57789,,9.796652,-0.023677,0.825304,-0.005317,0.009008,0.050551,28.793576,-84.251977,-64.375230
57790,,9.792170,0.065872,0.795138,-0.001477,0.002903,0.075441,28.331051,-84.276644,-63.913903
57791,,9.745346,0.089256,0.841656,-0.002135,-0.004905,0.090402,27.911332,-84.302902,-63.494082
57792,,9.785421,0.113067,0.859096,-0.006663,-0.009545,0.087085,27.410406,-84.336286,-62.997218
57793,,9.822689,0.115312,0.888142,-0.008147,-0.004183,0.093646,26.959721,-84.362344,-62.549801
57794,,9.814095,0.047306,0.880612,-0.003762,-0.001408,0.094453,26.389185,-84.392592,-61.981387
57795,,9.832651,0.048965,0.853143,0.001501,-0.005902,0.090464,25.955860,-84.417951,-61.545918
57796,,9.863118,0.120784,0.905275,0.007681,-0.001701,0.083309,25.439821,-84.444628,-61.025744
57797,,9.875741,0.086605,0.859635,0.011131,0.007946,0.070325,25.076683,-84.457211,-60.655299
