// Start Time: Unknown
// Update Rate: 100.0Hz
// Filter Profile: human (46.1)
// Firmware Version: 4.3.5
PacketCounter,SampleTimeFine,Acc_X,Acc_Y,Acc_Z,Gyr_X,Gyr_Y,Gyr_Z,Roll,Pitch,Yaw
56641,,9.327774,-2.306473,2.479524,0.016585,0.001087,-0.014509,-42.863278,-70.288630,-8.691728
56642,,9.286155,-2.268114,2.533516,0.020160,-0.001342,-0.017197,-42.817718,-70.294731,-8.739804
56643,,9.343731,-2.283658,2.534896,0.012543,-0.001186,-0.018104,-42.790569,-70.302278,-8.761009
56644,,9.320725,-2.256220,2.532942,0.010471,0.000350,-0.023327,-42.748492,-70.310269,-8.805172
56645,,9.315616,-2.304697,2.552375,0.008988,0.002826,-0.022259,-42.714087,-70.317733,-8.836244
56646,,9.292583,-2.276981,2.550753,0.008448,0.004942,-0.026990,-42.663254,-70.324725,-8.890410
56647,,9.307454,-2.263319,2.521849,0.001213,0.005267,-0.031585,-42.619600,-70.334764,-8.936032
56648,,9.297714,-2.293554,2.525967,0.001722,0.013027,-0.023745,-42.568066,-70.336569,-8.993513
56649,,9.287796,-2.324375,2.530266,-0.009342,0.011841,-0.021953,-42.534645,-70.340077,-9.034688
56650,,9.273282,-2.337367,2.518621,-0.001729,0.011693,-0.021048,-42.484238,-70.340058,-9.097326
56651,,9.315913,-2.367864,2.508268,-0.004746,0.013586,-0.020474,-42.448022,-70.342236,-9.138672
56652,,9.406931,-2.375654,2.509574,-0.002092,0.013105,-0.024205,-42.397975,-70.341823,-9.198170
56653,,9.417589,-2.336515,2.549841,-0.004681,0.018228,-0.025759,-42.350429,-70.344054,-9.251507
56654,,9.394170,-2.309044,2.549286,-0.009414,0.020243,-0.027259,-42.301247,-70.341203,-9.309504
56655,,9.364929,-2.336541,2.525556,-0.016110,0.018446,-0.027130,-42.258377,-70.343841,-9.364829
56656,,9.335766,-2.364155,2.501513,-0.022986,0.017353,-0.028580,-42.213510,-70.341300,-9.431046
56657,,9.355215,-2.365252,2.531288,-0.017603,0.020922,-0.026068,-42.170081,-70.342449,-9.487875
56658,,9.306962,-2.386115,2.521080,-0.019341,0.019459,-0.021300,-42.130518,-70.334301,-9.548402
56659,,9.258627,-2.407352,2.510864,-0.016842,0.021156,-0.018199,-42.095780,-70.332300,-9.595541
56660,,9.302200,-2.365606,2.508183,-0.011749,0.017731,-0.013543,-42.071037,-70.321212,-9.632893
56661,,9.291979,-2.397496,2.512934,-0.008079,0.021423,-0.013100,-42.037096,-70.317128,-9.673856
56662,,9.330729,-2.338041,2.494923,-0.006143,0.023650,-0.007884,-42.015466,-70.299513,-9.703454
56663,,9.301283,-2.363134,2.513907,-0.005719,0.026883,-0.010012,-41.978061,-70.291912,-9.746663
56664,,9.305443,-2.380526,2.531947,-0.010701,0.024956,-0.007815,-41.965480,-70.271632,-9.765297
56665,,9.333775,-2.358290,2.475141,-0.001979,0.022168,-0.004272,-41.937877,-70.263830,-9.795815
56666,,9.314362,-2.350712,2.490773,-0.012416,0.025081,-0.009896,-41.928164,-70.244249,-9.810858
56667,,9.347512,-2.342567,2.491996,-0.014294,0.027376,-0.005141,-41.901111,-70.234555,-9.848280
56668,,9.351368,-2.364429,2.467767,-0.016434,0.024267,-0.005094,-41.898958,-70.213876,-9.863681
56669,,9.350883,-2.364497,2.469541,-0.017608,0.022270,-0.002437,-41.882494,-70.205338,-9.891875
56670,,9.354977,-2.382565,2.487172,-0.012629,0.024199,-0.004635,-41.884883,-70.181990,-9.904619
56671,,9.311861,-2.350344,2.500454,-0.006184,0.022062,-0.001049,-41.863790,-70.172983,-9.930795
56672,,9.311382,-2.350358,2.502224,-0.008502,0.019660,-0.002581,-41.872434,-70.151569,-9.938946
56673,,9.296292,-2.365319,2.491208,-0.001272,0.019343,0.002039,-41.855077,-70.142527,-9.958188
56674,,9.281201,-2.380295,2.480193,-0.002237,0.018231,-0.000572,-41.868042,-70.119810,-9.956764
56675,,9.276419,-2.358289,2.507895,0.000928,0.012580,-0.001124,-41.852867,-70.114833,-9.972374
56676,,9.309640,-2.354121,2.466199,0.002847,0.013342,-0.004315,-41.865930,-70.096506,-9.970325
56677,,9.309549,-2.349623,2.509722,0.001741,0.015994,-0.006942,-41.839810,-70.092299,-9.997110
56678,,9.271166,-2.338654,2.496124,-0.000575,0.013591,-0.008474,-41.852777,-70.074396,-9.998742
56679,,9.313673,-2.370122,2.485959,-0.003459,0.011716,-0.007894,-41.833014,-70.072377,-10.021969
56680,,9.294546,-2.362437,2.500442,-0.002533,0.009773,-0.006848,-41.855366,-70.055002,-10.013692
56681,,9.289939,-2.343661,2.485484,-0.002144,0.009952,-0.010539,-41.833603,-70.054712,-10.038282
56682,,9.294371,-2.364859,2.459977,0.000671,0.007177,-0.005833,-41.860390,-70.037273,-10.025948
56683,,9.337095,-2.392519,2.491484,0.002949,0.006525,-0.005865,-41.844793,-70.036642,-10.040915
56684,,9.303477,-2.399572,2.493000,0.007326,0.005929,-0.007509,-41.867388,-70.022173,-10.021268
56685,,9.318053,-2.383895,2.506523,0.010567,0.006389,-0.004930,-41.848694,-70.021233,-10.034883
56686,,9.313485,-2.365014,2.491523,0.013413,0.005209,-0.007074,-41.870785,-70.008007,-10.009786
56687,,9.337175,-2.388932,2.494626,0.013801,0.005388,-0.010765,-41.844514,-70.009634,-10.029502
56688,,9.313791,-2.358598,2.535190,0.014727,0.003445,-0.009718,-41.867582,-69.997868,-10.006011
56689,,9.352016,-2.371543,2.508747,0.006362,0.004816,-0.010123,-41.846985,-69.999382,-10.024256
56690,,9.347528,-2.352628,2.493459,0.002164,0.004704,-0.006900,-41.877703,-69.987160,-10.000088
56691,,9.332951,-2.366959,2.481285,0.000847,0.006469,-0.004258,-41.865438,-69.985679,-10.012840
56692,,9.352019,-2.369733,2.510445,0.001027,0.005762,-0.002678,-41.901952,-69.973017,-9.989756
56693,,9.341933,-2.402497,2.514004,-0.000145,0.003763,-0.000018,-41.898025,-69.971054,-9.994280
56694,,9.322661,-2.399324,2.485996,0.005797,0.006808,0.000402,-41.935962,-69.951352,-9.957907
56695,,9.313426,-2.359291,2.497162,0.008254,0.005450,0.001950,-41.927832,-69.947796,-9.961794
56696,,9.361454,-2.336584,2.509675,0.007651,0.002923,0.002499,-41.970986,-69.930570,-9.916807
56697,,9.346690,-2.351663,2.497508,0.007864,0.005272,0.005641,-41.967669,-69.925536,-9.915812
56698,,9.337259,-2.316006,2.466633,0.003911,0.009103,0.005154,-42.004300,-69.908163,-9.871480
56699,,9.341528,-2.334258,2.483350,0.005227,0.007338,0.002511,-41.996834,-69.903351,-9.876451
56700,,9.355766,-2.323533,2.454763,0.003128,0.007282,0.004122,-42.033263,-69.889734,-9.834135
56701,,9.321970,-2.327657,2.498311,0.002346,0.005462,0.003092,-42.030214,-69.885438,-9.836094
56702,,9.292704,-2.353677,2.515503,0.004624,0.004810,0.003061,-42.077884,-69.861885,-9.785239
56703,,9.321595,-2.331614,2.457394,0.009212,0.005098,-0.003853,-42.063380,-69.860230,-9.795195
56704,,9.307000,-2.342174,2.487448,0.012808,0.004147,0.001887,-42.093348,-69.853174,-9.763432
56705,,9.268838,-2.327483,2.515141,0.014336,0.003265,-0.006026,-42.075375,-69.853055,-9.773951
56706,,9.287985,-2.337535,2.459937,0.019784,-0.003037,-0.006599,-42.104099,-69.843723,-9.732379
56707,,9.292820,-2.354223,2.475986,0.022451,-0.003511,-0.010323,-42.083753,-69.847984,-9.740442
56708,,9.297758,-2.370532,2.492026,0.027573,-0.005343,-0.012498,-42.099050,-69.846634,-9.702906
56709,,9.355564,-2.385744,2.493409,0.028252,-0.012694,-0.016151,-42.078417,-69.856933,-9.707653
56710,,9.354576,-2.525312,2.520286,0.032525,-0.020990,-0.014063,-42.112815,-69.856050,-9.649223
56711,,9.382143,-2.703847,2.606795,0.045303,-0.034414,-0.011553,-42.110714,-69.873638,-9.623773
56712,,9.344610,-2.748982,2.750138,0.047138,-0.052924,0.008005,-42.194131,-69.882319,-9.507877
56713,,9.310061,-2.962869,2.851402,0.050662,-0.074499,0.012810,-42.259644,-69.907412,-9.407111
56714,,9.269863,-3.288670,3.090249,0.088678,-0.089755,0.034866,-42.393977,-69.915694,-9.215247
56715,,9.183993,-3.478921,3.458454,0.145136,-0.103210,0.054417,-42.484426,-69.936590,-9.030289
56716,,9.155987,-3.410335,4.213780,0.210918,-0.096256,0.077747,-42.615167,-69.912384,-8.757774
56717,,9.182795,-3.500331,4.961601,0.275052,-0.050890,0.083810,-42.609796,-69.899455,-8.595476
56718,,9.115771,-3.720311,5.221303,0.285218,0.024052,0.101594,-42.564644,-69.804111,-8.453827
56719,,8.989276,-3.761782,5.627792,0.310884,0.121794,0.109685,-42.386268,-69.708330,-8.453746
56720,,8.716038,-3.876910,6.109223,0.320177,0.209499,0.123752,-42.126842,-69.497707,-8.504802
56721,,8.786970,-4.119364,6.725996,0.335742,0.292059,0.124303,-41.779796,-69.323709,-8.669495
56722,,9.151337,-4.536267,7.260372,0.360906,0.362509,0.144468,-41.327090,-69.020167,-8.898491
56723,,9.776069,-4.991024,7.731125,0.404542,0.463978,0.168441,-40.833588,-68.754477,-9.178318
56724,,10.422602,-5.153757,8.018087,0.438606,0.600437,0.203659,-40.169419,-68.280575,-9.566686
56725,,10.790776,-5.119676,7.958311,0.420649,0.757430,0.256013,-39.520150,-67.851472,-10.005824
56726,,10.937482,-5.203688,8.000810,0.384008,0.923318,0.348331,-38.757744,-67.161238,-10.507976
56727,,10.816439,-5.549100,8.217158,0.336485,1.085083,0.457907,-38.144175,-66.509574,-10.964322
56728,,10.886648,-6.195393,8.499965,0.330314,1.225542,0.585755,-37.457305,-65.576985,-11.400080
56729,,11.187041,-6.731870,8.604560,0.405780,1.360151,0.730263,-36.929830,-64.702004,-11.723424
56730,,11.588721,-6.985140,8.851332,0.499634,1.504612,0.898562,-36.286853,-63.519723,-11.934141
56731,,11.980784,-7.118783,8.859584,0.565278,1.656112,1.092398,-35.861467,-62.383726,-12.045642
56732,,12.148672,-7.188944,8.744179,0.628523,1.816627,1.293336,-35.435665,-60.880042,-12.013123
56733,,12.271928,-7.309836,8.575195,0.670163,1.948700,1.509271,-35.158930,-59.468817,-11.886806
56734,,12.434084,-7.406034,8.490695,0.716016,2.075242,1.715336,-34.936535,-57.683104,-11.576190
56735,,12.481539,-7.569000,8.137341,0.743625,2.182984,1.911008,-34.792388,-56.030648,-11.236690
56736,,12.511583,-8.077257,7.756787,0.815017,2.288062,2.104845,-34.673267,-54.018209,-10.792936
56737,,12.495379,-8.600125,7.889281,0.988574,2.370822,2.276276,-34.510115,-52.159208,-10.285655
56738,,12.634883,-8.849115,7.885980,1.180244,2.426878,2.439639,-34.308213,-49.981624,-9.670816
56739,,12.876226,-8.717827,7.714954,1.353710,2.504378,2.594164,-34.020078,-47.959316,-9.021481
56740,,12.856618,-8.515954,7.452574,1.462368,2.586761,2.744464,-33.730110,-45.626474,-8.283376
56741,,12.686268,-8.481246,6.925106,1.511901,2.643889,2.906654,-33.404874,-43.443077,-7.508607
56742,,12.520166,-8.813547,6.399858,1.567364,2.681755,3.070467,-33.128574,-40.992224,-6.620079
56743,,12.401454,-9.181394,6.169752,1.681658,2.687800,3.226508,-32.760233,-38.694146,-5.687425
56744,,12.474187,-9.431058,5.969559,1.822807,2.682976,3.388636,-32.405040,-36.183011,-4.627258
56745,,12.579582,-9.545331,6.011144,1.996010,2.688392,3.544757,-31.890508,-33.797763,-3.526039
56746,,12.625592,-9.480167,6.074468,2.160673,2.692537,3.710677,-31.380686,-31.234145,-2.297580
56747,,12.386631,-9.383771,5.873489,2.297175,2.711673,3.875238,-30.699068,-28.757688,-1.023454
56748,,11.856657,-9.181810,5.550388,2.402865,2.703654,4.026774,-30.056824,-26.158127,0.373200
56749,,11.528299,-9.258656,5.110649,2.491371,2.659411,4.167336,-29.241420,-23.652382,1.832401
56750,,11.207383,-9.231258,4.844301,2.577535,2.609911,4.297574,-28.480127,-21.096133,3.412648
56751,,11.076070,-9.189556,4.841666,2.688453,2.545839,4.427972,-27.499878,-18.617107,5.069021
56752,,10.903525,-8.904487,4.847982,2.792792,2.494885,4.550604,-26.567659,-16.137823,6.840704
56753,,10.354710,-8.461627,4.679771,2.851132,2.441427,4.659146,-25.408308,-13.710451,8.691966
56754,,9.792006,-8.032505,4.616925,2.875450,2.382066,4.753717,-24.344942,-11.340121,10.642000
56755,,9.301299,-7.704712,4.524589,2.844249,2.306147,4.848365,-23.074312,-9.013138,12.688531
56756,,8.573320,-7.484603,4.316754,2.783516,2.233239,4.941869,-21.954041,-6.788787,14.828177
56757,,7.837344,-7.282829,4.097014,2.755527,2.131404,5.009469,-20.595547,-4.609275,17.073001
56758,,7.426237,-7.227339,3.781904,2.758986,2.008897,5.063786,-19.358838,-2.597981,19.390446
56759,,7.030546,-6.980874,3.564175,2.759525,1.908996,5.120714,-17.843586,-0.625494,21.825444
56760,,6.300808,-6.353080,3.395233,2.782443,1.831418,5.152875,-16.453637,1.173335,24.301692
56761,,5.596211,-5.842269,3.375459,2.763494,1.723751,5.173072,-14.774953,2.922124,26.894333
56762,,5.144811,-5.421310,3.258305,2.714437,1.604597,5.218459,-13.279448,4.460469,29.528102
56763,,4.797496,-4.786842,3.067378,2.658474,1.502229,5.226026,-11.503926,5.943331,32.281533
56764,,4.472941,-4.500291,2.901778,2.586870,1.389103,5.250278,-9.943268,7.209675,35.045463
56765,,4.295425,-4.170943,2.804444,2.541417,1.282610,5.272656,-8.090750,8.408389,37.943086
56766,,4.065484,-3.817413,2.554525,2.538611,1.203314,5.272328,-6.434994,9.406288,40.815755
56767,,3.787192,-3.494543,2.462918,2.571451,1.127527,5.264929,-4.446727,10.334633,43.803939
56768,,3.578928,-3.108425,2.518561,2.608319,1.054397,5.274773,-2.650234,11.067567,46.756249
56769,,3.478378,-2.731404,2.600499,2.613126,0.981878,5.275443,-0.544350,11.713124,49.824582
56770,,3.585197,-2.093938,2.454044,2.577093,0.922477,5.261024,1.307816,12.177461,52.826078
56771,,3.452516,-1.299344,2.336499,2.512492,0.891679,5.249266,3.414172,12.562713,55.926213
56772,,3.212572,-0.518848,2.169224,2.458363,0.841099,5.229236,5.244311,12.785659,58.943426
56773,,2.846040,0.249748,2.185189,2.413604,0.773302,5.201349,7.316638,12.898492,62.033403
56774,,2.841671,0.730173,2.455519,2.337016,0.675955,5.178931,9.092685,12.840185,65.025763
56775,,3.090792,1.406446,2.679088,2.257954,0.600694,5.140456,11.059248,12.661962,68.062524
56776,,3.169730,1.768998,3.152482,2.182948,0.554668,5.105994,12.729933,12.362429,70.994032
56777,,3.303225,2.061462,3.353329,2.110466,0.499875,5.066665,14.564365,11.953813,73.950617
56778,,3.295110,2.580962,3.568128,2.063670,0.469592,5.033667,16.126227,11.448925,76.806769
56779,,3.258757,3.299763,3.979647,1.985201,0.417675,4.971361,17.817001,10.844213,79.656219
56780,,3.264906,4.321928,4.190759,1.826591,0.381591,4.930766,19.181794,10.157390,82.406828
56781,,3.226111,5.345073,4.826920,1.561440,0.329312,4.877428,20.542689,9.383077,85.140271
56782,,3.341403,5.862045,5.041009,1.199008,0.258823,4.819251,21.476708,8.534154,87.771713
56783,,3.250997,6.302643,5.297969,0.847950,0.209321,4.743348,22.329411,7.629238,90.365035
56784,,3.086648,6.650831,5.424807,0.500086,0.123032,4.644367,22.783886,6.673875,92.849143
56785,,2.924067,6.735577,5.613501,0.147681,0.040357,4.533050,23.130608,5.679719,95.264909
56786,,2.902680,6.570483,5.840564,-0.151839,-0.069123,4.429929,23.131865,4.643532,97.583045
56787,,2.970313,6.508998,6.152657,-0.363659,-0.171851,4.260025,23.084549,3.592622,99.796237
56788,,2.993717,6.813662,6.593381,-0.454610,-0.260491,4.045576,22.833378,2.544540,101.873305
56789,,3.020410,7.453175,7.244286,-0.474364,-0.329393,3.759183,22.631890,1.535790,103.789261
56790,,2.974426,8.148576,7.955685,-0.496809,-0.391668,3.450126,22.295230,0.561621,105.534409
56791,,2.892968,8.970106,8.587561,-0.573865,-0.449941,3.114227,21.971375,-0.351763,107.091257
56792,,2.724163,9.486532,9.166875,-0.733122,-0.500339,2.757346,21.468154,-1.219568,108.460518
56793,,2.801104,9.606405,9.627558,-0.858440,-0.570412,2.350229,20.946277,-2.013640,109.599296
56794,,3.020986,9.617731,10.318237,-0.934072,-0.616334,1.878186,20.329929,-2.745221,110.491822
56795,,3.323130,9.409447,10.923103,-0.901731,-0.652505,1.357906,19.783165,-3.365450,111.096505
56796,,3.827163,9.166179,11.249866,-0.708253,-0.625569,0.768550,19.332321,-3.878410,111.401641
56797,,4.095858,8.778753,11.146410,-0.293073,-0.566519,0.104281,19.170028,-4.206749,111.352129
56798,,4.252609,9.456802,10.773212,0.180573,-0.510117,-0.545506,19.292551,-4.415349,110.969250
56799,,4.253322,11.407345,11.451009,0.321700,-0.392501,-1.094116,19.530382,-4.421301,110.302493
56800,,4.180449,10.843073,11.188064,-0.007589,-0.402152,-1.534405,19.605222,-4.387068,109.403165
56801,,4.616825,8.371132,10.342047,-0.147197,-0.397972,-2.027882,19.611008,-4.214134,108.230035
56802,,4.760953,6.894231,9.880313,0.079364,-0.356931,-2.587317,19.787935,-3.956767,106.770504
56803,,4.840233,7.122211,9.891560,0.461926,-0.364847,-3.118782,20.169492,-3.544836,105.017135
56804,,5.116493,7.879427,9.923386,0.731474,-0.396960,-3.606771,20.743686,-3.092314,103.008205
56805,,5.438613,8.576754,9.885034,0.803818,-0.424337,-4.036821,21.315968,-2.491356,100.760599
56806,,5.615115,8.745968,9.789765,0.721984,-0.452463,-4.438762,21.876003,-1.859374,98.311069
56807,,5.864309,8.403796,9.430179,0.594543,-0.489256,-4.825530,22.287370,-1.081810,95.643947
56808,,6.031900,7.841429,9.307562,0.503560,-0.504267,-5.190109,22.678583,-0.280342,92.801556
56809,,6.272734,7.179136,9.396710,0.480380,-0.489696,-5.517198,22.945435,0.684666,89.780052
56810,,6.293244,6.844366,9.411476,0.505433,-0.425271,-5.799473,23.251907,1.690428,86.648551
56811,,6.032902,6.882074,9.223385,0.521412,-0.392802,-6.025492,23.423793,2.849585,83.388111
56812,,5.847379,6.777258,8.875798,0.485254,-0.381891,-6.233529,23.595096,3.996393,80.047559
56813,,5.666937,6.597934,8.563239,0.434618,-0.380068,-6.418306,23.566371,5.266178,76.579968
56814,,5.678542,6.338988,8.666220,0.360200,-0.404206,-6.576464,23.514819,6.480568,73.049852
56815,,5.788323,5.796558,8.726856,0.281522,-0.427499,-6.685456,23.226637,7.773528,69.409549
56816,,5.843745,5.281229,8.899346,0.249804,-0.441440,-6.779130,22.947117,8.985992,65.741647
56817,,5.617731,4.960715,9.017928,0.247368,-0.432867,-6.849563,22.460758,10.270345,61.973670
56818,,5.184108,4.717212,9.065485,0.240233,-0.448131,-6.911999,22.003896,11.454321,58.194408
56819,,4.803854,4.470903,9.066930,0.220275,-0.459246,-6.970207,21.318112,12.682357,54.300864
56820,,4.503627,4.148396,8.840894,0.174602,-0.503203,-7.011488,20.645231,13.779896,50.400858
56821,,4.272207,3.673688,8.600762,0.164736,-0.560989,-7.032249,19.748062,14.867798,46.384872
56822,,4.070234,3.298484,8.370087,0.194282,-0.627124,-7.047717,18.914783,15.802707,42.373171
56823,,3.908064,2.763648,8.115407,0.286390,-0.716287,-7.049691,17.926806,16.688206,38.247843
56824,,3.894638,2.372732,7.876199,0.433842,-0.833170,-7.046535,17.078177,17.395166,34.132724
56825,,3.950883,2.342236,7.856472,0.612431,-0.934322,-7.037095,16.148557,18.033459,29.917457
56826,,3.808865,2.312726,7.879431,0.744579,-1.046299,-7.013227,15.362009,18.505902,25.732154
56827,,3.573678,2.110694,7.911975,0.860554,-1.178690,-6.988435,14.489619,18.883099,21.465440
56828,,3.270439,1.692366,8.094028,0.992440,-1.335758,-6.950161,13.771480,19.080488,17.237196
56829,,3.090888,1.286028,8.365741,1.179822,-1.510230,-6.917895,13.044082,19.156200,12.945559
56830,,2.922807,1.042846,8.635573,1.406453,-1.699644,-6.897394,12.532823,19.056412,8.684418
56831,,2.983894,1.017994,8.831445,1.656019,-1.894444,-6.881928,12.082647,18.834653,4.368181
56832,,3.202113,1.064406,8.915836,1.908184,-2.063763,-6.865056,11.873320,18.475112,0.085431
56833,,3.282505,1.007819,8.911957,2.165603,-2.208183,-6.837947,11.766620,18.037401,-4.223991
56834,,3.379939,1.001422,8.985319,2.407678,-2.343980,-6.813449,11.900481,17.507862,-8.495781
56835,,3.630501,1.160400,9.114652,2.643252,-2.477559,-6.789771,12.147313,16.927956,-12.787251
56836,,3.923999,1.385415,9.202253,2.824527,-2.578865,-6.770642,12.597686,16.302210,-17.048833
56837,,4.257009,1.748838,9.461471,2.924098,-2.665862,-6.748562,13.098943,15.670887,-21.322109
56838,,4.588397,1.890333,9.674270,2.933353,-2.757859,-6.712927,13.701830,15.011917,-25.563944
56839,,5.036069,1.938079,9.803213,2.880019,-2.853892,-6.673843,14.279585,14.347722,-29.806728
56840,,5.749148,1.698897,9.597433,2.858543,-2.952346,-6.619893,14.938588,13.653561,-34.015958
56841,,6.457119,1.824336,9.859193,2.854180,-2.981378,-6.561631,15.611603,12.994135,-38.204055
56842,,6.710322,2.011250,9.926515,2.720695,-3.004885,-6.451582,16.302690,12.339183,-42.322599
56843,,7.033055,2.177661,9.732545,2.450049,-3.063890,-6.292538,16.867738,11.683803,-46.366275
56844,,7.464123,2.146200,9.339856,2.147933,-3.089371,-6.116246,17.355351,11.004963,-50.307272
56845,,7.692577,1.762662,9.727628,1.868710,-3.047315,-5.879874,17.723984,10.353378,-54.110386
56846,,7.360001,1.230068,10.607994,1.590390,-3.008077,-5.529338,18.039826,9.665201,-57.705813
56847,,7.371323,0.850988,11.744235,1.248173,-2.956310,-5.114497,18.214518,8.965113,-61.060830
56848,,7.329489,0.544222,12.142785,0.776664,-2.843568,-4.622147,18.228651,8.222664,-64.118785
56849,,6.882244,0.446064,12.143809,0.214591,-2.644453,-4.087359,17.981699,7.508307,-66.840022
56850,,5.892138,0.482189,12.199465,-0.413642,-2.422189,-3.581869,17.468904,6.786082,-69.236408
56851,,4.994908,0.435986,11.946756,-1.121780,-2.204152,-3.105210,16.594892,6.097795,-71.319400
56852,,4.169028,-0.183823,11.982217,-1.777999,-1.934607,-2.688403,15.414717,5.431130,-73.116134
56853,,3.715923,-1.177276,12.050391,-2.375867,-1.731423,-2.309902,13.918806,4.804704,-74.652511
56854,,3.515823,-2.735384,11.533229,-2.774950,-1.501351,-1.940140,12.243551,4.192794,-75.935796
56855,,2.663966,-4.152520,11.699183,-2.894290,-1.291570,-1.626722,10.515146,3.649497,-76.996634
56856,,2.064792,-5.593611,11.595070,-2.770073,-1.130854,-1.364805,8.886360,3.117673,-77.880196
56857,,1.450738,-6.868813,11.880771,-2.395921,-0.979509,-1.160208,7.478937,2.655132,-78.617545
56858,,1.252994,-7.648238,11.941351,-1.879236,-0.902006,-1.004826,6.379988,2.188002,-79.253893
56859,,1.266196,-7.636954,11.920811,-1.336355,-0.803441,-0.876019,5.597880,1.780944,-79.799938
56860,,1.038875,-7.075115,12.046233,-0.917211,-0.713597,-0.759871,5.058123,1.392152,-80.273152
56861,,0.875566,-6.427388,11.936879,-0.689025,-0.631094,-0.627988,4.657518,1.060758,-80.660855
56862,,0.477980,-6.098052,12.388176,-0.590722,-0.532464,-0.476806,4.308807,0.757242,-80.958231
56863,,0.254648,-5.960527,12.771826,-0.604634,-0.469276,-0.301104,3.962764,0.499960,-81.148156
56864,,0.480061,-6.102951,12.817443,-0.662737,-0.385946,-0.094569,3.573575,0.263772,-81.217403
56865,,0.790925,-6.212395,12.865183,-0.776765,-0.287866,0.148148,3.131226,0.092632,-81.140738
56866,,1.155615,-6.149688,12.642223,-0.989284,-0.182073,0.426874,2.552271,-0.041384,-80.901836
56867,,1.586258,-6.355878,12.255053,-1.198648,-0.020635,0.717822,1.867554,-0.070543,-80.489710
56868,,1.480492,-7.019613,12.210110,-1.269718,0.126239,0.991712,1.124320,-0.029761,-79.919725
56869,,1.195257,-7.937435,12.215073,-1.145510,0.207872,1.263302,0.470748,0.077817,-79.192673
56870,,1.212963,-8.631535,12.430936,-0.853323,0.257612,1.524963,-0.034676,0.206564,-78.318120
56871,,1.760746,-8.636745,12.590590,-0.499338,0.297571,1.785249,-0.313094,0.378767,-77.294078
56872,,2.167556,-8.028555,12.712968,-0.212036,0.394480,2.046817,-0.447082,0.598269,-76.122546
56873,,2.339992,-7.225681,13.121533,-0.060822,0.503268,2.321321,-0.462141,0.895796,-74.793052
56874,,2.469944,-6.424802,13.438924,-0.075764,0.625387,2.610648,-0.503052,1.253387,-73.300074
56875,,2.728450,-5.971585,13.556755,-0.173795,0.743689,2.910319,-0.557345,1.693566,-71.634349
56876,,3.219213,-5.843506,13.479452,-0.299692,0.854630,3.236354,-0.693993,2.191150,-69.785011
56877,,3.679142,-5.828187,13.178944,-0.398817,0.967171,3.583293,-0.831349,2.771293,-67.735867
56878,,4.105397,-5.864721,13.004471,-0.437251,1.077010,3.938552,-0.990116,3.412693,-65.487502
56879,,4.498064,-5.834712,12.637790,-0.436078,1.175885,4.288954,-1.076274,4.129412,-63.035639
56880,,4.800844,-5.576135,12.364539,-0.371736,1.264654,4.628486,-1.112748,4.893776,-60.392510
56881,,5.149673,-5.272993,12.255267,-0.305952,1.343389,4.933435,-1.024360,5.714918,-57.566890
56882,,5.562522,-4.532181,12.141528,-0.264137,1.411622,5.198139,-0.890311,6.563287,-54.589613
56883,,5.924898,-3.704983,12.089910,-0.294730,1.496525,5.426081,-0.675519,7.462051,-51.467637
56884,,5.958552,-3.017990,11.989100,-0.401762,1.591987,5.632675,-0.492258,8.397405,-48.224693
56885,,5.802250,-2.668236,11.740835,-0.505919,1.652133,5.824956,-0.258829,9.364837,-44.851366
56886,,5.774815,-2.434751,11.547996,-0.564965,1.670155,5.988830,-0.023152,10.321054,-41.378906
56887,,5.965544,-2.054096,11.429041,-0.562876,1.702972,6.104238,0.325122,11.286568,-37.813980
56888,,5.928676,-1.366313,11.360710,-0.592201,1.755999,6.190540,0.690878,12.252641,-34.191364
56889,,5.641347,-0.562744,11.200089,-0.682225,1.835330,6.246545,1.116420,13.246654,-30.503591
56890,,5.081988,-0.000251,10.684712,-0.790993,1.895494,6.262210,1.511836,14.242188,-26.795933
56891,,4.633922,0.207446,10.119227,-0.895561,1.893068,6.273788,1.954920,15.216614,-23.045198
56892,,4.352139,0.246085,9.632205,-0.965640,1.873110,6.263491,2.386870,16.146133,-19.289732
56893,,4.087531,0.346123,9.415815,-0.969878,1.859112,6.239891,2.913259,17.043844,-15.509980
56894,,3.945165,0.433052,9.265577,-0.940689,1.844463,6.213633,3.480762,17.894501,-11.733602
56895,,3.939866,0.429419,9.049954,-0.876169,1.828026,6.187109,4.174685,18.701793,-7.932759
56896,,3.961336,0.598073,8.983538,-0.785261,1.841465,6.158021,4.942259,19.467989,-4.134257
56897,,3.762415,0.882458,8.847618,-0.710576,1.852982,6.138700,5.837155,20.193430,-0.304057
56898,,3.728012,1.456609,8.771542,-0.728101,1.848824,6.119699,6.742228,20.857597,3.529655
56899,,3.439291,1.855747,8.548507,-0.784556,1.832368,6.110203,7.691259,21.458081,7.397049
56900,,3.184236,2.051493,8.488644,-0.831924,1.779392,6.089104,8.623952,21.967919,11.258942
56901,,2.994016,2.078096,8.340108,-0.827347,1.712420,6.071807,9.616685,22.383820,15.137912
56902,,2.923990,2.018444,8.359409,-0.807526,1.640817,6.065784,10.621515,22.694591,19.010873
56903,,3.033798,2.174417,8.440536,-0.792566,1.578067,6.060726,11.676501,22.908689,22.898052
56904,,3.088542,2.434806,8.410099,-0.808722,1.534426,6.066713,12.713064,23.029633,26.780590
56905,,2.903537,2.617090,8.337464,-0.814872,1.516931,6.054230,13.771255,23.079391,30.668272
56906,,2.538020,2.778966,8.305989,-0.825738,1.486754,6.037214,14.798089,23.047041,34.531765
56907,,2.364451,2.914432,8.151676,-0.851778,1.412929,6.019615,15.814698,22.915598,38.378888
56908,,2.504229,2.964068,8.217820,-0.881763,1.335451,5.998137,16.771223,22.681303,42.182712
56909,,2.593748,2.949392,8.309833,-0.883556,1.239073,5.981688,17.711912,22.341555,45.955194
56910,,2.773908,2.731976,8.307899,-0.817066,1.141678,5.970087,18.633930,21.891254,49.677266
56911,,2.947822,2.792512,8.397520,-0.728033,1.063148,5.959388,19.577553,21.347179,53.363645
56912,,3.071626,3.104199,8.327122,-0.633881,1.007926,5.956804,20.510773,20.714367,57.005405
56913,,2.984029,3.432108,8.299622,-0.558119,0.980870,5.925869,21.445659,20.021413,60.602952
56914,,3.051652,4.005397,8.422248,-0.549587,0.966690,5.906625,22.314005,19.268016,64.152166
56915,,2.982730,4.549122,8.377177,-0.603979,0.958034,5.866387,23.103112,18.474602,67.654050
56916,,2.893480,5.350628,8.405328,-0.700059,0.923565,5.806988,23.755156,17.630315,71.082684
56917,,2.859455,6.253743,8.731175,-0.890475,0.826731,5.779009,24.241964,16.714116,74.451444
56918,,3.063669,7.049449,9.138736,-1.240958,0.724578,5.758093,24.445933,15.724728,77.757548
56919,,3.034831,7.457799,9.358015,-1.746696,0.631811,5.745154,24.303401,14.693691,81.020528
56920,,2.888213,7.443283,9.628973,-2.274808,0.551329,5.696435,23.777241,13.643924,84.226037
56921,,2.729936,7.030895,9.747334,-2.710021,0.456398,5.600151,22.937891,12.609650,87.358188
56922,,2.768027,6.533441,10.001130,-2.900543,0.390545,5.437904,21.905917,11.618644,90.390707
56923,,2.894162,6.150732,10.502230,-2.858974,0.300366,5.224972,20.832029,10.685973,93.297179
56924,,3.189890,6.233891,10.762314,-2.661322,0.218444,4.960736,19.791177,9.806493,96.050338
56925,,3.318903,6.732607,10.926758,-2.398986,0.196944,4.640868,18.841402,9.031400,98.632925
56926,,3.314501,7.564782,10.991750,-2.150800,0.212357,4.255161,17.964170,8.365996,101.013000
56927,,3.063145,8.559006,11.102876,-1.963307,0.265089,3.797786,17.143756,7.852601,103.156080
56928,,2.588848,9.675895,11.184737,-1.861475,0.349828,3.269471,16.323642,7.492977,105.026072
56929,,1.891762,10.554889,11.088030,-1.836226,0.436515,2.672436,15.474182,7.312212,106.581438
56930,,1.831158,10.207900,11.476428,-1.383932,0.573098,1.800494,14.820050,7.346561,107.674153
56931,,2.558834,6.610840,10.536571,-0.128510,0.746393,0.613885,14.808099,7.668258,108.128756
56932,,2.677051,11.221748,10.716724,1.640856,0.989859,-0.670196,15.719276,8.302480,107.908149
56933,,2.097354,16.131015,10.838570,1.710153,1.063727,-1.365862,16.612550,9.103898,107.320730
56934,,0.861142,14.519524,9.211521,0.604243,1.024143,-1.774807,16.830568,9.943258,106.508084
56935,,0.900942,10.837805,8.205927,-0.442749,0.969500,-2.216892,16.385337,10.836799,105.433315
56936,,1.788817,7.394920,7.998688,-1.002614,0.996600,-2.727125,15.553097,11.800233,104.066402
56937,,2.055528,5.466175,7.371203,-1.033135,1.072159,-3.190628,14.612671,12.867345,102.424594
56938,,1.815230,4.803833,7.014178,-0.885241,1.126182,-3.581984,13.681946,13.979009,100.546758
56939,,1.568760,4.687348,6.680163,-0.790632,1.191477,-3.913706,12.704665,15.153842,98.453502
56940,,1.460593,4.244860,6.253275,-0.800125,1.215875,-4.199362,11.640596,16.326685,96.169733
56941,,1.564085,3.600813,5.724117,-0.835138,1.225480,-4.449172,10.444695,17.502611,93.696738
56942,,1.571107,3.160267,5.319274,-0.873000,1.226240,-4.663001,9.142503,18.634461,91.061688
56943,,1.350855,3.002054,5.077048,-0.957177,1.216512,-4.856311,7.674536,19.729486,88.256895
56944,,1.098712,2.989817,4.755722,-1.102148,1.180717,-5.053339,6.033287,20.732582,85.289292
56945,,1.016818,3.027167,4.461011,-1.296539,1.158514,-5.235073,4.157248,21.658873,82.149873
56946,,1.098243,3.025933,4.205922,-1.556852,1.141281,-5.408083,2.047596,22.466779,78.861104
56947,,1.307522,2.734674,3.937865,-1.841630,1.148793,-5.571113,-0.343914,23.171232,75.410930
56948,,1.309222,2.163686,3.833583,-2.105072,1.144919,-5.709435,-2.952188,23.721810,71.839317
56949,,1.457352,1.370670,3.887375,-2.354549,1.118324,-5.832292,-5.797984,24.104728,68.143076
56950,,1.754971,0.439340,4.085381,-2.616743,1.089089,-5.922020,-8.819264,24.282836,64.380789
56951,,2.134584,-0.455404,4.144186,-2.989009,1.090418,-5.966519,-12.097138,24.275719,60.570598
56952,,2.266812,-1.208508,3.871380,-3.450641,1.131777,-5.983850,-15.611999,24.076836,56.766393
56953,,2.028289,-1.505707,3.604844,-3.975820,1.191643,-5.969113,-19.423185,23.697673,52.977066
56954,,1.607691,-1.292796,3.397112,-4.584209,1.221455,-5.922243,-23.501126,23.101557,49.271788
56955,,1.757548,-1.296148,3.118312,-5.199140,1.268237,-5.873824,-27.878238,22.296873,45.645592
56956,,2.447875,-2.639175,2.742005,-5.760623,1.337913,-5.774463,-32.451159,21.293059,42.164134
56957,,3.060873,-4.844577,1.893655,-6.052298,1.433710,-5.649702,-37.098959,20.121319,38.823571
56958,,3.248339,-7.209065,1.152437,-5.992574,1.575316,-5.535282,-41.577604,18.805867,35.627732
56959,,3.080960,-9.350352,0.594194,-5.713391,1.674893,-5.415830,-45.797988,17.356580,32.572761
56960,,2.990718,-10.935214,0.322750,-5.252088,1.739939,-5.306290,-49.614705,15.775178,29.678830
56961,,3.016021,-11.765851,0.348925,-4.822843,1.804403,-5.222299,-53.089334,14.084399,26.911720
56962,,3.143647,-11.931443,0.377848,-4.479576,1.831164,-5.132986,-56.238562,12.287660,24.292885
56963,,3.572221,-11.878620,0.441595,-4.166557,1.860516,-5.102268,-59.117634,10.387844,21.782303
56964,,4.029724,-12.261594,0.356801,-3.819744,1.895232,-5.114274,-61.688091,8.370266,19.363656
56965,,4.128195,-12.852660,0.377973,-3.336124,1.925488,-5.155411,-63.896442,6.248471,17.015047
56966,,3.999197,-13.313631,0.374244,-2.821883,1.915352,-5.198824,-65.705841,4.012401,14.748355
56967,,3.955156,-13.116328,0.507536,-2.379207,1.842025,-5.188275,-67.174550,1.710278,12.592121
56968,,4.313961,-12.517222,0.537242,-2.097554,1.723898,-5.162916,-68.386610,-0.664629,10.561468
56969,,4.929885,-12.559149,0.615142,-1.887859,1.592084,-5.114615,-69.403954,-3.069061,8.656267
56970,,5.546479,-12.553551,0.669062,-1.668438,1.479952,-5.071344,-70.218172,-5.515383,6.854215
56971,,5.870811,-12.089454,0.755179,-1.388637,1.382888,-5.060598,-70.808792,-7.983426,5.130035
56972,,6.334100,-11.575790,0.847822,-1.106427,1.280821,-5.075194,-71.170061,-10.507548,3.468508
56973,,6.803500,-11.286436,0.723637,-0.838216,1.172116,-5.113533,-71.318991,-13.064790,1.858556
56974,,6.851075,-11.237668,0.524103,-0.602763,1.065763,-5.141795,-71.269417,-15.675391,0.286921
56975,,7.269459,-11.053018,0.415136,-0.458083,0.884785,-5.196338,-71.089494,-18.328856,-1.217205
56976,,7.409397,-10.625950,0.249498,-0.403804,0.713768,-5.191108,-70.831966,-21.024948,-2.657608
56977,,7.697295,-9.914217,0.323629,-0.469487,0.496918,-5.195151,-70.583536,-23.739245,-4.009671
56978,,8.372212,-9.582203,0.336165,-0.604421,0.276100,-5.190639,-70.391530,-26.509298,-5.270906
56979,,9.075542,-9.490402,0.358717,-0.724463,0.077077,-5.176976,-70.254306,-29.286306,-6.445852
56980,,9.670753,-9.638322,0.435194,-0.767372,-0.099937,-5.154339,-70.130465,-32.105809,-7.546184
56981,,10.123246,-9.855178,0.620703,-0.704419,-0.250060,-5.134336,-69.957123,-34.918725,-8.586517
56982,,10.355170,-10.188406,0.896754,-0.523042,-0.379779,-5.111489,-69.663301,-37.765951,-9.586533
56983,,10.513320,-10.557793,1.287817,-0.228375,-0.508640,-5.079221,-69.181905,-40.591812,-10.551521
56984,,10.837738,-10.838095,1.692648,0.158612,-0.633091,-5.031892,-68.458565,-43.435639,-11.496175
56985,,11.148237,-10.905184,1.929994,0.626683,-0.750004,-4.955957,-67.434805,-46.227764,-12.435113
56986,,11.485536,-10.763730,2.192855,1.146408,-0.842360,-4.860854,-66.061701,-49.001804,-13.405118
56987,,11.686915,-10.624050,2.159165,1.678031,-0.962593,-4.736382,-64.330343,-51.695647,-14.401402
56988,,11.738910,-10.143322,2.110164,2.199939,-1.049447,-4.594062,-62.215302,-54.341329,-15.471812
56989,,11.851229,-9.609656,2.223536,2.669839,-1.153128,-4.409968,-59.739036,-56.870520,-16.615383
56990,,12.131478,-9.111184,2.320754,3.100175,-1.241443,-4.181193,-56.929623,-59.306291,-17.754464
56991,,12.233323,-8.693433,2.551814,3.444672,-1.278638,-3.910291,-53.773982,-61.565324,-19.110021
56992,,12.230527,-8.143810,2.872838,3.698744,-1.299655,-3.609501,-50.348865,-63.677157,-20.537074
56993,,12.117420,-7.412893,3.259916,3.836515,-1.319815,-3.276013,-46.726877,-65.584174,-22.109733
56994,,11.919219,-6.356302,3.528374,3.827422,-1.318059,-2.915775,-43.057091,-67.320435,-23.704193
56995,,11.760140,-5.126053,3.854559,3.651668,-1.319886,-2.548132,-39.480103,-68.851825,-25.301696
56996,,11.601811,-4.135801,4.243543,3.332863,-1.296769,-2.180643,-36.164644,-70.226384,-26.788189
56997,,11.370460,-3.407594,4.527551,2.937863,-1.261300,-1.830887,-33.187264,-71.417776,-28.155687
56998,,11.246465,-2.893395,4.745759,2.525529,-1.220653,-1.502595,-30.647360,-72.486999,-29.309522
56999,,11.127256,-2.483760,4.942830,2.116431,-1.167453,-1.197461,-28.572573,-73.407983,-30.208820
57000,,10.946324,-2.128854,5.056677,1.708311,-1.118427,-0.922511,-27.025520,-74.240366,-30.808987
57001,,10.868256,-2.014623,5.234037,1.279458,-1.072162,-0.671694,-26.044552,-74.962450,-31.063678
57002,,10.768473,-2.133082,5.300418,0.900971,-0.999178,-0.452988,-25.597561,-75.607809,-31.012602
57003,,10.674911,-2.361719,5.402543,0.585803,-0.924331,-0.264751,-25.634933,-76.151551,-30.625581
57004,,10.668830,-2.757122,5.498530,0.362432,-0.843810,-0.112566,-26.070998,-76.629652,-29.974913
57005,,10.644993,-2.943990,5.780804,0.199119,-0.748212,0.018186,-26.819216,-77.009445,-29.086913
57006,,10.658139,-2.985315,6.007819,0.039707,-0.654225,0.135424,-27.868228,-77.318630,-28.003692
57007,,10.589482,-3.069999,5.707649,-0.086151,-0.575446,0.249514,-29.194917,-77.540537,-26.692643
57008,,10.609711,-3.023898,5.589243,-0.180335,-0.479881,0.352618,-30.732892,-77.686232,-25.249084
57009,,10.438292,-3.169251,5.609195,-0.231822,-0.316166,0.411715,-32.230627,-77.717932,-23.849775
57010,,10.178466,-3.594488,5.371754,-0.196858,-0.187319,0.463941,-33.647222,-77.668665,-22.537267
57011,,9.983649,-3.869184,5.213246,-0.058532,-0.069704,0.490618,-34.848512,-77.543773,-21.339311
57012,,9.826554,-3.808918,5.134995,0.108480,0.048245,0.491971,-35.763027,-77.360188,-20.357341
57013,,9.732514,-3.172743,5.099969,0.212051,0.129106,0.485133,-36.449036,-77.136849,-19.527076
57014,,9.666900,-2.471752,4.969021,0.185292,0.190992,0.502851,-37.068865,-76.875424,-18.810062
57015,,9.681365,-2.056634,4.727718,0.039315,0.249834,0.521028,-37.690950,-76.580619,-18.145420
57016,,9.642179,-2.031327,4.357305,-0.162814,0.306136,0.533481,-38.341297,-76.250677,-17.592914
57017,,9.533279,-2.249682,3.882272,-0.333742,0.349712,0.552549,-39.030889,-75.896514,-17.077099
57018,,9.391434,-2.482317,3.406744,-0.474281,0.374535,0.560487,-39.747087,-75.521715,-16.636002
57019,,9.301719,-2.634606,3.051538,-0.568190,0.386598,0.577028,-40.499422,-75.139351,-16.192478
57020,,9.231948,-2.789363,2.678209,-0.619224,0.385229,0.585759,-41.263893,-74.746369,-15.786048
57021,,9.247456,-2.905027,2.440444,-0.620996,0.382250,0.593177,-42.018038,-74.356878,-15.370408
57022,,9.303112,-3.027059,2.214886,-0.588649,0.379341,0.601052,-42.739681,-73.956817,-14.987849
57023,,9.395924,-3.084733,2.061121,-0.526415,0.386122,0.599011,-43.388894,-73.560791,-14.623420
57024,,9.506986,-3.075555,1.996592,-0.448880,0.395586,0.607319,-43.969792,-73.148479,-14.302450
57025,,9.553832,-3.031857,1.882530,-0.378971,0.408941,0.611403,-44.477473,-72.736150,-13.996141
57026,,9.486853,-2.959778,1.817315,-0.323354,0.417638,0.608970,-44.923961,-72.312116,-13.734584
57027,,9.421280,-2.884141,1.712226,-0.266397,0.419158,0.612822,-45.321378,-71.893717,-13.474947
57028,,9.347415,-2.768691,1.623927,-0.236817,0.414152,0.610703,-45.695907,-71.469132,-13.235651
57029,,9.276498,-2.654805,1.620085,-0.215553,0.398663,0.611133,-46.058928,-71.058585,-12.980310
57030,,9.294932,-2.599772,1.627204,-0.209873,0.382593,0.610757,-46.430962,-70.645619,-12.724351
57031,,9.343329,-2.516300,1.620610,-0.211291,0.362539,0.606842,-46.803313,-70.250047,-12.455250
57032,,9.359812,-2.443243,1.654582,-0.226141,0.347259,0.595475,-47.184781,-69.856490,-12.196384
57033,,9.349670,-2.467516,1.639992,-0.244155,0.331803,0.591438,-47.570049,-69.478172,-11.932254
57034,,9.187584,-2.445173,1.608990,-0.251009,0.313403,0.579666,-47.964568,-69.103651,-11.673179
57035,,9.168679,-2.501624,1.629907,-0.257573,0.279478,0.560705,-48.362061,-68.757223,-11.402901
57036,,9.118759,-2.559395,1.562126,-0.249340,0.250714,0.543790,-48.768799,-68.421122,-11.126092
57037,,9.145272,-2.571140,1.581176,-0.225501,0.225794,0.518412,-49.145661,-68.111850,-10.857009
57038,,9.117140,-2.655871,1.634889,-0.188784,0.193133,0.491210,-49.513457,-67.819293,-10.580161
57039,,9.162821,-2.644579,1.581220,-0.144901,0.159049,0.462892,-49.848337,-67.557781,-10.305440
57040,,9.287406,-2.679455,1.610533,-0.092532,0.131556,0.424583,-50.152644,-67.316556,-10.038384
57041,,9.286303,-2.617567,1.682983,-0.040481,0.106389,0.391872,-50.408589,-67.104544,-9.783435
57042,,9.229179,-2.600784,1.693109,0.013789,0.084957,0.358099,-50.633397,-66.909500,-9.538876
57043,,9.139331,-2.494979,1.705976,0.055757,0.054793,0.320740,-50.819200,-66.746987,-9.299524
57044,,9.088999,-2.489793,1.726054,0.091734,0.026756,0.287525,-50.995086,-66.604327,-9.053095
57045,,9.022364,-2.472306,1.715889,0.125228,-0.002755,0.251055,-51.137206,-66.493034,-8.817469
57046,,8.955681,-2.453205,1.746043,0.164389,-0.032919,0.217478,-51.270997,-66.403333,-8.571813
57047,,8.982323,-2.466446,1.832469,0.204979,-0.058887,0.184760,-51.367610,-66.341376,-8.335670
57048,,8.978573,-2.388279,1.878830,0.236329,-0.079902,0.145134,-51.446993,-66.301268,-8.106010
57049,,8.972577,-2.376854,1.905900,0.264624,-0.096882,0.109244,-51.485658,-66.286474,-7.895693
57050,,8.960218,-2.322968,1.947622,0.275394,-0.112607,0.068488,-51.513972,-66.292897,-7.693362
57051,,8.986815,-2.368660,1.956251,0.288099,-0.127391,0.034636,-51.509839,-66.322372,-7.515120
57052,,9.007011,-2.371879,1.979681,0.299836,-0.139459,-0.011618,-51.487280,-66.374942,-7.350062
57053,,9.016978,-2.403233,2.000562,0.313449,-0.153523,-0.052731,-51.424766,-66.452964,-7.219821
57054,,9.059845,-2.427220,2.106442,0.335455,-0.168514,-0.094678,-51.343892,-66.553914,-7.096996
57055,,9.102320,-2.424829,2.155838,0.353557,-0.181139,-0.134137,-51.220092,-66.678382,-7.008691
57056,,9.184511,-2.430404,2.176882,0.370614,-0.191743,-0.174673,-51.075705,-66.824188,-6.935988
57057,,9.174615,-2.421548,2.322592,0.385423,-0.193539,-0.208716,-50.883098,-66.986509,-6.902831
57058,,9.229803,-2.443971,2.313454,0.390077,-0.204707,-0.246210,-50.678921,-67.169356,-6.879359
57059,,9.349595,-2.430805,2.333931,0.398007,-0.206763,-0.275985,-50.432305,-67.366345,-6.897034
57060,,9.379723,-2.401498,2.352618,0.393039,-0.205188,-0.300270,-50.174250,-67.573798,-6.935281
57061,,9.373518,-2.448091,2.355550,0.389677,-0.206905,-0.324175,-49.884607,-67.791929,-7.004576
57062,,9.378690,-2.460444,2.401604,0.386778,-0.205063,-0.340127,-49.587123,-68.017007,-7.089521
57063,,9.415069,-2.444370,2.391810,0.377713,-0.206142,-0.356864,-49.265979,-68.248792,-7.199930
57064,,9.425604,-2.473255,2.451827,0.374261,-0.210361,-0.362644,-48.952226,-68.485471,-7.306612
57065,,9.519677,-2.473794,2.442014,0.354875,-0.202683,-0.370301,-48.618321,-68.721267,-7.444424
57066,,9.579841,-2.480833,2.474578,0.351951,-0.196544,-0.366219,-48.288424,-68.953956,-7.582180
57067,,9.673888,-2.480619,2.465629,0.343938,-0.183744,-0.365085,-47.934529,-69.179676,-7.747676
57068,,9.657683,-2.464565,2.471393,0.323144,-0.165566,-0.351225,-47.591026,-69.393566,-7.915544
57069,,9.588186,-2.452555,2.450083,0.302955,-0.153879,-0.342729,-47.239247,-69.597541,-8.103386
57070,,9.556187,-2.455150,2.401603,0.277588,-0.142299,-0.325222,-46.911487,-69.790849,-8.284176
57071,,9.576438,-2.456766,2.423912,0.251907,-0.134075,-0.305589,-46.596110,-69.970778,-8.463936
57072,,9.591343,-2.442607,2.389616,0.224407,-0.124936,-0.289507,-46.308790,-70.141716,-8.631995
57073,,9.586436,-2.424870,2.369795,0.186815,-0.108253,-0.272578,-46.029222,-70.297115,-8.812952
57074,,9.561929,-2.402739,2.406670,0.154889,-0.099731,-0.249425,-45.789398,-70.441035,-8.975026
57075,,9.555615,-2.461717,2.418058,0.119233,-0.083361,-0.230170,-45.561213,-70.568553,-9.142233
57076,,9.461976,-2.464735,2.372733,0.091794,-0.068700,-0.206655,-45.363956,-70.682130,-9.300771
57077,,9.363073,-2.522946,2.343989,0.067268,-0.058179,-0.186889,-45.181576,-70.781484,-9.450767
57078,,9.325975,-2.546718,2.342083,0.049151,-0.052150,-0.166679,-45.033229,-70.871626,-9.579645
57079,,9.349851,-2.538164,2.282128,0.032754,-0.047517,-0.152825,-44.895071,-70.952599,-9.703612
57080,,9.369363,-2.581955,2.280695,0.022630,-0.037586,-0.135113,-44.779893,-71.023698,-9.813891
57081,,9.397708,-2.594225,2.278206,0.015176,-0.038820,-0.119275,-44.679457,-71.087437,-9.908519
57082,,9.406114,-2.603540,2.247863,0.008901,-0.027158,-0.107847,-44.591233,-71.143000,-9.999229
57083,,9.400328,-2.626575,2.246860,0.009865,-0.026111,-0.105207,-44.494519,-71.195795,-10.093080
57084,,9.451187,-2.593770,2.257676,0.006868,-0.020058,-0.094454,-44.415175,-71.242751,-10.174071
57085,,9.429149,-2.562228,2.213137,-0.002131,-0.017091,-0.084279,-44.339020,-71.283380,-10.253421
57086,,9.417265,-2.569222,2.198078,-0.008458,-0.014461,-0.077832,-44.280565,-71.321248,-10.326848
57087,,9.400356,-2.556952,2.210566,-0.014147,-0.014095,-0.066667,-44.228566,-71.353551,-10.387938
57088,,9.379000,-2.599114,2.196653,-0.016613,-0.014518,-0.061372,-44.194962,-71.384675,-10.440708
57089,,9.361760,-2.588230,2.209067,-0.013856,-0.013645,-0.056594,-44.154219,-71.412746,-10.489727
57090,,9.406912,-2.613653,2.193817,-0.009904,-0.015491,-0.049238,-44.134108,-71.439130,-10.520547
57091,,9.370211,-2.598287,2.220626,0.001060,-0.013203,-0.038611,-44.106121,-71.459831,-10.547086
57092,,9.351827,-2.590689,2.191390,0.007916,-0.013124,-0.031741,-44.094424,-71.478089,-10.560825
57093,,9.347480,-2.569104,2.175864,0.013241,-0.010627,-0.023732,-44.074584,-71.491795,-10.571410
57094,,9.318918,-2.522439,2.202425,0.013370,-0.006428,-0.013525,-44.075480,-71.499786,-10.566207
57095,,9.294901,-2.496723,2.201687,0.011497,-0.004310,-0.008677,-44.067622,-71.504890,-10.565216
57096,,9.309234,-2.481970,2.215029,0.008058,-0.002634,0.009449,-44.095899,-71.501971,-10.534186
57097,,9.304171,-2.462769,2.242496,0.000969,-0.001818,0.014820,-44.120005,-71.496679,-10.505854
57098,,9.350703,-2.442884,2.212972,-0.008525,0.004576,0.028855,-44.173090,-71.482880,-10.459782
57099,,9.349244,-2.447631,2.171072,-0.011720,0.008359,0.036408,-44.218736,-71.464771,-10.416400
57100,,9.348091,-2.451599,2.171563,-0.014939,0.009140,0.042283,-44.285656,-71.443665,-10.363807
57101,,9.418782,-2.457158,2.185443,-0.015264,0.011846,0.047663,-44.342698,-71.419594,-10.310540
57102,,9.460696,-2.492336,2.172764,-0.009393,0.013887,0.053524,-44.415929,-71.391783,-10.242535
57103,,9.415652,-2.467340,2.187460,-0.007292,0.014017,0.051916,-44.470668,-71.365078,-10.186865
57104,,9.395084,-2.466254,2.202813,0.001905,0.013322,0.044946,-44.527913,-71.340788,-10.128288
57105,,9.402273,-2.438500,2.160556,0.007307,0.010860,0.044317,-44.568571,-71.318394,-10.078641
57106,,9.415774,-2.426445,2.217486,0.009412,0.010988,0.042713,-44.622060,-71.295802,-10.017898
