// Start Time: Unknown
// Update Rate: 100.0Hz
// Filter Profile: human (46.1)
// Firmware Version: 4.3.5
PacketCounter,SampleTimeFine,Acc_X,Acc_Y,Acc_Z,Gyr_X,Gyr_Y,Gyr_Z,Roll,Pitch,Yaw
55881,,9.289056,-2.492270,2.328465,-0.078161,0.015868,-0.133790,-46.339566,-69.941391,-5.947241
55882,,9.307681,-2.468538,2.340898,-0.077860,0.006856,-0.131054,-46.230654,-69.992594,-6.113720
55883,,9.341145,-2.523044,2.368557,-0.089575,0.011217,-0.132422,-46.124744,-70.042885,-6.281024
55884,,9.308980,-2.520453,2.326069,-0.093447,0.008872,-0.124742,-46.035794,-70.090965,-6.429644
55885,,9.290139,-2.575405,2.368868,-0.093757,0.007848,-0.119638,-45.948912,-70.137144,-6.579161
55886,,9.251729,-2.625000,2.383559,-0.088411,0.002635,-0.112126,-45.865966,-70.180634,-6.728743
55887,,9.295492,-2.649895,2.366859,-0.075616,-0.001434,-0.106700,-45.792588,-70.225057,-6.852777
55888,,9.288083,-2.673780,2.408137,-0.068017,0.000149,-0.098931,-45.723136,-70.262857,-6.971755
55889,,9.302040,-2.633634,2.405435,-0.051478,-0.003339,-0.094532,-45.650876,-70.302949,-7.079847
55890,,9.338474,-2.619758,2.402564,-0.048711,-0.006329,-0.090008,-45.595152,-70.337704,-7.169421
55891,,9.318204,-2.586889,2.401025,-0.050143,-0.002680,-0.080506,-45.536491,-70.371716,-7.262212
55892,,9.325674,-2.599501,2.456077,-0.049383,-0.002736,-0.072720,-45.490059,-70.394886,-7.350648
55893,,9.323334,-2.574945,2.440178,-0.056553,-0.001672,-0.067438,-45.448244,-70.423103,-7.429426
55894,,9.343411,-2.577231,2.424062,-0.065015,0.001089,-0.059474,-45.424491,-70.436654,-7.502689
55895,,9.334920,-2.605384,2.465542,-0.067008,0.000270,-0.056385,-45.398713,-70.459553,-7.570787
55896,,9.340442,-2.621555,2.478342,-0.062967,0.004248,-0.045842,-45.394990,-70.464029,-7.616290
55897,,9.311861,-2.644979,2.492543,-0.062698,0.006477,-0.042640,-45.375087,-70.478814,-7.675523
55898,,9.345466,-2.636587,2.448081,-0.057758,0.003540,-0.039674,-45.372583,-70.476558,-7.722805
55899,,9.324707,-2.608196,2.489736,-0.054438,0.008739,-0.028538,-45.361316,-70.484675,-7.767853
55900,,9.329453,-2.626380,2.503435,-0.047063,0.008087,-0.023921,-45.371435,-70.470005,-7.793347
55901,,9.321202,-2.586907,2.474628,-0.045601,0.010531,-0.016531,-45.366698,-70.472503,-7.826097
55902,,9.310865,-2.527462,2.516451,-0.043746,0.013280,-0.012781,-45.384415,-70.448721,-7.840288
55903,,9.351920,-2.560292,2.501880,-0.049387,0.018597,-0.006797,-45.383657,-70.444009,-7.871121
55904,,9.324533,-2.515741,2.488565,-0.048942,0.020048,-0.002050,-45.408201,-70.408727,-7.880617
55905,,9.328269,-2.536413,2.503475,-0.050810,0.022200,0.002738,-45.414974,-70.398671,-7.904328
55906,,9.326375,-2.538554,2.462189,-0.041004,0.023825,0.009017,-45.440686,-70.355931,-7.910955
55907,,9.340919,-2.527076,2.477039,-0.038021,0.025650,0.008554,-45.442774,-70.342124,-7.931872
55908,,9.340008,-2.528933,2.478577,-0.035432,0.027164,0.011733,-45.464683,-70.296982,-7.932091
55909,,9.330454,-2.492309,2.451956,-0.037303,0.029313,0.016522,-45.471164,-70.278472,-7.947900
55910,,9.343536,-2.481937,2.425157,-0.036464,0.031071,0.017631,-45.496594,-70.225686,-7.952871
55911,,9.334935,-2.445416,2.441135,-0.035290,0.031286,0.021803,-45.505589,-70.204233,-7.964800
55912,,9.336769,-2.468086,2.415072,-0.041673,0.032942,0.019799,-45.529431,-70.150767,-7.967771
55913,,9.365111,-2.444898,2.402064,-0.039935,0.032698,0.021862,-45.539597,-70.128697,-7.981289
55914,,9.325718,-2.435155,2.390878,-0.037462,0.031223,0.023349,-45.563553,-70.077941,-7.976607
55915,,9.290563,-2.444716,2.393832,-0.035489,0.032066,0.020244,-45.570128,-70.056799,-7.991219
55916,,9.318027,-2.421494,2.338432,-0.036451,0.027329,0.017425,-45.595492,-70.007496,-7.990754
55917,,9.333362,-2.410378,2.396122,-0.035210,0.029402,0.014899,-45.599063,-69.989582,-8.008401
55918,,9.297504,-2.419294,2.356440,-0.032440,0.025258,0.011058,-45.613512,-69.948901,-8.014500
55919,,9.290361,-2.381494,2.414311,-0.035937,0.025760,0.006907,-45.612868,-69.935710,-8.037078
55920,,9.223068,-2.416644,2.304314,-0.039227,0.016107,0.010654,-45.642251,-69.900200,-8.035589
55921,,9.200787,-2.391617,2.348078,-0.030670,0.025763,-0.001971,-45.628910,-69.890629,-8.068492
55922,,9.242246,-2.333427,2.375894,-0.036898,0.010530,0.002051,-45.650129,-69.867221,-8.071373
55923,,9.248732,-2.464724,2.320026,-0.033202,0.010011,-0.007365,-45.649973,-69.866195,-8.091782
55924,,9.265113,-2.451008,2.376164,-0.019229,0.007644,-0.014258,-45.649494,-69.847414,-8.108849
55925,,9.291031,-2.403838,2.347309,-0.008687,0.002025,-0.025466,-45.624469,-69.856981,-8.140796
55926,,9.285304,-2.362117,2.403527,-0.012289,-0.000451,-0.031315,-45.612660,-69.846333,-8.167549
55927,,9.285192,-2.359421,2.360720,-0.017473,-0.003451,-0.037711,-45.585432,-69.863013,-8.207225
55928,,9.260810,-2.401794,2.388600,-0.021018,-0.009683,-0.043734,-45.567385,-69.873802,-8.245834
55929,,9.284924,-2.423887,2.386708,-0.016996,-0.011744,-0.050095,-45.535444,-69.898869,-8.290253
55930,,9.252605,-2.426206,2.385996,-0.020501,-0.011238,-0.054255,-45.505038,-69.906458,-8.333207
55931,,9.247364,-2.473817,2.398733,-0.014231,-0.015875,-0.053953,-45.471842,-69.934662,-8.377248
55932,,9.249097,-2.469071,2.396943,-0.012090,-0.015800,-0.055525,-45.444435,-69.946474,-8.418976
55933,,9.271460,-2.470291,2.465105,-0.005986,-0.019657,-0.056756,-45.407521,-69.977260,-8.461954
55934,,9.291890,-2.471473,2.448722,0.001634,-0.019230,-0.057271,-45.375812,-69.989340,-8.502495
55935,,9.293780,-2.465978,2.447087,0.002865,-0.017148,-0.059799,-45.327486,-70.020248,-8.552245
55936,,9.322782,-2.505892,2.459020,0.008004,-0.020876,-0.055281,-45.294695,-70.030860,-8.587600
55937,,9.325705,-2.500228,2.499783,0.012224,-0.016963,-0.058250,-45.242333,-70.060976,-8.635944
55938,,9.323251,-2.566325,2.442244,0.015167,-0.021866,-0.060577,-45.192578,-70.088546,-8.685630
55939,,9.318790,-2.612288,2.455048,0.028898,-0.025276,-0.062328,-45.135040,-70.123714,-8.729324
55940,,9.341808,-2.702971,2.481454,0.048003,-0.031302,-0.064735,-45.075719,-70.147522,-8.760539
55941,,9.308515,-2.865425,2.467370,0.082765,-0.041745,-0.065291,-45.002159,-70.190576,-8.788395
55942,,9.287734,-2.994144,2.495111,0.123470,-0.060867,-0.062100,-44.951949,-70.211309,-8.771387
55943,,9.174928,-3.089884,2.595562,0.181579,-0.082744,-0.061753,-44.871688,-70.269423,-8.746200
55944,,9.029557,-3.353342,2.769753,0.259165,-0.102397,-0.057311,-44.799475,-70.308876,-8.664142
55945,,9.011002,-3.618282,2.984957,0.343301,-0.130019,-0.056582,-44.685577,-70.384139,-8.576258
55946,,9.161964,-3.774418,3.083741,0.441751,-0.147518,-0.046393,-44.592117,-70.420795,-8.416929
55947,,9.173115,-3.844646,3.217892,0.533188,-0.132829,-0.027404,-44.405925,-70.485416,-8.290414
55948,,8.952826,-3.887857,3.462584,0.606740,-0.128591,0.004009,-44.269462,-70.476248,-8.076407
55949,,8.813595,-4.272778,3.521643,0.682891,-0.151895,0.035567,-44.091435,-70.523710,-7.850283
55950,,8.843305,-4.801257,3.957613,0.849647,-0.154370,0.067336,-43.917233,-70.493419,-7.524431
55951,,8.932871,-5.280628,4.718958,1.090740,-0.158331,0.085749,-43.570542,-70.524206,-7.229338
55952,,9.235977,-5.297314,5.229195,1.348102,-0.123804,0.116958,-43.144454,-70.419915,-6.854368
55953,,9.549190,-5.045200,5.312577,1.542034,-0.048791,0.147079,-42.488960,-70.382253,-6.612299
55954,,9.613478,-4.669666,5.574671,1.646733,0.072706,0.181896,-41.749318,-70.130551,-6.380815
55955,,9.531551,-4.294336,5.574029,1.605792,0.169465,0.254910,-40.955870,-69.960254,-6.245962
55956,,9.519456,-4.193918,5.995682,1.494992,0.253128,0.346593,-40.275067,-69.564900,-6.029791
55957,,10.059712,-4.508101,6.597116,1.348132,0.329166,0.439652,-39.695250,-69.257731,-5.823700
55958,,10.805999,-4.941062,6.797345,1.229270,0.452071,0.531647,-39.133141,-68.688402,-5.599038
55959,,11.115535,-5.100536,6.788126,1.129134,0.604299,0.645577,-38.665992,-68.186070,-5.405012
55960,,11.112353,-5.079995,6.510890,1.011903,0.756134,0.783160,-38.229132,-67.356442,-5.164274
55961,,10.842339,-5.338064,6.293592,0.896731,0.886691,0.914570,-37.950198,-66.632852,-4.908046
55962,,10.661984,-5.764604,6.400967,0.872735,0.987016,1.035547,-37.617942,-65.616478,-4.579689
55963,,10.859686,-6.053771,6.564278,0.896389,1.059694,1.153790,-37.439553,-64.732255,-4.208693
55964,,11.024100,-6.258516,6.742378,0.952452,1.152992,1.284533,-37.177582,-63.522405,-3.715612
55965,,11.151211,-6.328629,6.880821,1.028934,1.238413,1.412279,-37.015750,-62.468939,-3.233258
55966,,11.330231,-6.377403,6.641880,1.091496,1.331230,1.534914,-36.807270,-61.100613,-2.622174
55967,,11.232938,-6.273997,6.268823,1.136818,1.429585,1.658054,-36.636641,-59.876834,-2.067066
55968,,10.917575,-6.323947,6.117636,1.179232,1.498629,1.783026,-36.519639,-58.344826,-1.342488
55969,,10.911025,-6.473243,6.055650,1.224776,1.540698,1.887444,-36.364299,-56.993101,-0.693018
55970,,11.044639,-6.743128,6.180427,1.298266,1.587587,1.992793,-36.235292,-55.356187,0.040303
55971,,11.126267,-7.014722,6.307469,1.385881,1.643404,2.105157,-36.031258,-53.885249,0.766867
55972,,11.274342,-7.091392,6.503172,1.488988,1.691640,2.207036,-35.835649,-52.139036,1.573037
55973,,11.369414,-6.995979,6.518437,1.582135,1.754597,2.309612,-35.539485,-50.551312,2.357638
55974,,11.386470,-6.917419,6.357737,1.639011,1.817133,2.404469,-35.270348,-48.698253,3.208987
55975,,11.188640,-7.001549,6.219494,1.684947,1.875946,2.504228,-34.918685,-46.994669,4.040071
55976,,11.042213,-7.033621,6.144073,1.735424,1.917102,2.594906,-34.605062,-45.057519,4.944405
55977,,10.937111,-7.189977,5.988912,1.792378,1.958289,2.683771,-34.193946,-43.263760,5.831805
55978,,10.836095,-7.341598,6.009561,1.886912,1.986016,2.768366,-33.800603,-41.269051,6.794559
55979,,10.955994,-7.323072,5.990799,1.990706,2.011017,2.843585,-33.271789,-39.409303,7.743365
55980,,10.893260,-7.280665,5.916582,2.079132,2.055268,2.924671,-32.764769,-37.370071,8.760965
55981,,10.746693,-7.094217,5.922119,2.134300,2.089852,2.991205,-32.133484,-35.440867,9.761792
55982,,10.578477,-6.924945,5.700907,2.135642,2.117766,3.056892,-31.577316,-33.376325,10.828999
55983,,10.189933,-6.635759,5.586068,2.101451,2.136583,3.114527,-30.936727,-31.404730,11.885330
55984,,9.791154,-6.559914,5.487933,2.056909,2.129549,3.176034,-30.404678,-29.348616,13.013733
55985,,9.422272,-6.595765,5.307791,2.050007,2.096012,3.223216,-29.766380,-27.384553,14.147528
55986,,9.253184,-6.642446,5.279124,2.085383,2.068836,3.258519,-29.189535,-25.385229,15.341223
55987,,8.999443,-6.549741,5.349460,2.120294,2.059248,3.299562,-28.466571,-23.440891,16.537158
55988,,8.540587,-6.295327,5.361301,2.130521,2.034261,3.325219,-27.822874,-21.494243,17.785329
55989,,8.091294,-5.966305,5.282803,2.100407,2.004354,3.350912,-27.057841,-19.591203,19.041607
55990,,7.444408,-5.806719,5.157013,2.080304,1.956820,3.361844,-26.393232,-17.728667,20.344324
55991,,6.881120,-5.893610,5.010853,2.106753,1.885150,3.359890,-25.564399,-15.915403,21.659717
55992,,6.353408,-5.857271,5.088215,2.150010,1.818206,3.351771,-24.804596,-14.180819,23.012921
55993,,5.880162,-5.714917,5.337758,2.223339,1.731100,3.331858,-23.844200,-12.491723,24.382520
55994,,5.710107,-5.729808,5.561867,2.298279,1.644668,3.309279,-22.942381,-10.914247,25.783785
55995,,5.792753,-6.071525,5.579711,2.402490,1.583341,3.288561,-21.813458,-9.359143,27.204533
55996,,5.606729,-5.887085,5.579559,2.511827,1.552527,3.277438,-20.731955,-7.901990,28.647695
55997,,5.227621,-5.586158,5.451918,2.596523,1.509123,3.275561,-19.426511,-6.446757,30.126703
55998,,5.009124,-5.276090,5.423549,2.640288,1.449409,3.277718,-18.217378,-5.119110,31.637053
55999,,4.850992,-4.709457,5.494691,2.630435,1.398919,3.281954,-16.828804,-3.789905,33.195142
56000,,4.589188,-4.195444,5.800323,2.546363,1.350352,3.307733,-15.617654,-2.590508,34.787765
56001,,4.449778,-3.936409,5.956317,2.391186,1.299048,3.336966,-14.302567,-1.379263,36.445262
56002,,4.365560,-3.841219,5.877336,2.236410,1.257320,3.379884,-13.209007,-0.298318,38.136074
56003,,4.222296,-3.934613,5.817846,2.109328,1.230379,3.427231,-11.990038,0.816533,39.900143
56004,,3.957804,-4.121086,5.883402,2.030102,1.203650,3.478678,-10.953355,1.804802,41.692406
56005,,3.781413,-4.061261,5.752475,2.005414,1.157905,3.528923,-9.726353,2.818809,43.565338
56006,,3.573098,-3.694554,5.639448,1.999520,1.120436,3.573013,-8.647162,3.693332,45.457014
56007,,3.333797,-3.319922,5.687685,1.985308,1.085190,3.615269,-7.364767,4.595884,47.428105
56008,,3.070089,-2.792590,5.773791,1.961750,1.046791,3.644943,-6.248095,5.353391,49.403599
56009,,2.804799,-2.246733,5.914164,1.898650,0.999541,3.682939,-4.952189,6.127526,51.459368
56010,,2.624152,-1.664205,6.046303,1.809446,0.951324,3.716573,-3.864691,6.752184,53.515725
56011,,2.356577,-0.979259,6.020796,1.703227,0.908622,3.718823,-2.626006,7.390730,55.630822
56012,,2.028575,-0.335120,5.954093,1.607582,0.872283,3.716201,-1.604317,7.891005,57.719384
56013,,1.747806,0.035067,5.979713,1.528458,0.828242,3.695453,-0.424186,8.401019,59.850578
56014,,1.608763,0.201464,6.038922,1.458062,0.789606,3.674209,0.552763,8.779794,61.940635
56015,,1.469136,0.220105,6.120286,1.372899,0.748724,3.667835,1.675002,9.165822,64.077232
56016,,1.246125,0.439779,6.204610,1.254236,0.691183,3.657644,2.568517,9.419534,66.175684
56017,,0.818274,0.845507,6.293455,1.089121,0.616069,3.657756,3.549885,9.658061,68.317799
56018,,0.607564,1.339937,6.530643,0.835106,0.507831,3.665414,4.227111,9.749220,70.426926
56019,,0.748014,1.671934,6.720061,0.530077,0.405353,3.662121,4.897021,9.811662,72.568958
56020,,0.891303,1.724810,6.750888,0.233778,0.310190,3.649094,5.239700,9.754947,74.664997
56021,,1.007241,1.667421,6.883674,0.019218,0.247713,3.627669,5.610099,9.697502,76.778765
56022,,0.704844,1.277790,7.051080,-0.117010,0.182165,3.611353,5.750760,9.552960,78.848481
56023,,0.467861,1.001326,7.180964,-0.137413,0.084926,3.581877,6.015806,9.388723,80.923941
56024,,0.479243,0.905738,7.396436,-0.089100,-0.014427,3.555836,6.158856,9.126640,82.949983
56025,,0.608190,1.023165,7.683312,-0.033671,-0.100936,3.527376,6.458586,8.844757,84.977997
56026,,0.721115,1.186642,7.839410,0.018594,-0.165376,3.486715,6.640435,8.489998,86.952583
56027,,0.756711,1.350510,8.085405,0.077089,-0.227318,3.448762,6.971196,8.124154,88.920497
56028,,0.787822,1.504148,8.171883,0.148880,-0.277634,3.392083,7.198880,7.697440,90.829724
56029,,0.831377,1.651503,8.288076,0.236047,-0.315435,3.335723,7.582399,7.269979,92.718490
56030,,0.894604,1.949263,8.311896,0.315527,-0.345457,3.278833,7.873889,6.794882,94.553169
56031,,1.004443,2.120314,8.393153,0.359307,-0.357058,3.223773,8.289163,6.330260,96.365543
56032,,1.062306,2.375627,8.463370,0.365272,-0.361398,3.159616,8.578372,5.835503,98.125652
56033,,0.929019,2.790273,8.761413,0.323374,-0.363004,3.089006,8.934276,5.358083,99.851920
56034,,0.863983,3.099386,9.001754,0.229492,-0.384339,3.019203,9.116318,4.846165,101.525953
56035,,1.000423,3.407075,9.116789,0.102069,-0.396887,2.923539,9.307152,4.351107,103.148648
56036,,1.111745,3.631328,9.091996,-0.013389,-0.391886,2.818056,9.321963,3.846178,104.706428
56037,,1.082867,3.797615,8.996395,-0.092463,-0.382662,2.694678,9.365158,3.376727,106.197627
56038,,0.925537,3.951373,9.011790,-0.145510,-0.378750,2.565241,9.280783,2.902618,107.614624
56039,,0.915003,4.055561,9.084839,-0.172994,-0.380834,2.420796,9.246405,2.461536,108.950247
56040,,1.080633,4.212053,9.184630,-0.182831,-0.378738,2.255177,9.122222,2.019510,110.193942
56041,,1.116275,4.423819,9.436457,-0.204353,-0.358447,2.083175,9.043864,1.625838,111.341051
56042,,1.190592,4.788893,9.623672,-0.253287,-0.346111,1.902522,8.867746,1.238041,112.390788
56043,,1.112826,4.982552,10.009372,-0.330058,-0.308507,1.698678,8.698433,0.912295,113.326161
56044,,1.281863,4.799416,10.136126,-0.422843,-0.279773,1.490145,8.421531,0.603334,114.151316
56045,,1.350470,4.542406,10.168961,-0.412819,-0.226179,1.253803,8.193129,0.368868,114.843801
56046,,1.144737,4.407954,10.236571,-0.304702,-0.179650,0.985762,7.986073,0.162258,115.393920
56047,,1.191767,4.628361,10.262761,-0.114060,-0.147208,0.701331,7.923597,0.020677,115.780561
56048,,1.429152,4.785581,10.411721,0.121868,-0.091477,0.382783,7.968037,-0.088406,115.996268
56049,,1.630402,4.805273,10.426574,0.419731,-0.033423,0.014970,8.210778,-0.111010,116.002395
56050,,1.857690,5.906528,10.728375,0.649918,0.043803,-0.338592,8.568280,-0.087442,115.820152
56051,,1.895775,7.289456,11.345739,0.540805,0.126850,-0.608264,8.880562,0.034822,115.486994
56052,,1.750063,6.758365,11.377003,0.219253,0.185266,-0.831544,9.003975,0.180700,115.039223
56053,,1.774478,5.056042,10.900152,0.050328,0.221956,-1.080414,9.032088,0.400898,114.448047
56054,,1.756702,3.805594,10.414819,0.124875,0.241015,-1.356821,9.106905,0.623880,113.709001
56055,,1.782326,3.594310,10.276971,0.365686,0.244078,-1.654179,9.306489,0.911146,112.795999
56056,,1.906417,4.075970,10.253861,0.589704,0.228684,-1.950881,9.640378,1.185781,111.722463
56057,,1.990384,4.609316,10.243039,0.731470,0.228858,-2.220755,10.032612,1.529946,110.491072
56058,,2.071133,5.088081,10.254609,0.785983,0.218314,-2.485448,10.465248,1.865112,109.120027
56059,,2.231925,5.182769,10.101186,0.773619,0.203911,-2.735004,10.856057,2.267431,107.600873
56060,,2.423220,5.249315,9.960535,0.699537,0.196332,-2.972192,11.218066,2.659907,105.959593
56061,,2.537507,5.251576,9.775046,0.573997,0.184956,-3.201139,11.459530,3.122055,104.180036
56062,,2.652084,5.104982,9.657493,0.426978,0.160843,-3.421513,11.634491,3.558089,102.286764
56063,,2.808800,4.618612,9.637568,0.316543,0.116329,-3.624935,11.684023,4.040761,100.261884
56064,,2.955392,3.966519,9.796171,0.295150,0.072458,-3.817661,11.743890,4.476329,98.137277
56065,,3.170135,3.324422,9.934060,0.374433,0.028238,-4.009686,11.775476,4.958086,95.883964
56066,,3.219330,2.919539,10.032149,0.529554,0.002463,-4.202943,11.920478,5.402139,93.534922
56067,,3.203483,3.095688,10.174765,0.714517,-0.014466,-4.380725,12.088885,5.913814,91.066274
56068,,3.053238,3.352712,10.269950,0.837133,-0.019374,-4.542154,12.353509,6.399792,88.525268
56069,,2.828803,3.343217,10.056550,0.909286,-0.033288,-4.677432,12.570055,6.957241,85.886586
56070,,2.542576,3.446816,9.825343,0.935309,-0.071313,-4.787686,12.831036,7.465225,83.202428
56071,,2.306168,3.519675,9.751904,0.901984,-0.136546,-4.882992,12.977356,8.011554,80.432796
56072,,2.277556,3.486525,9.721204,0.832877,-0.217514,-4.966688,13.119133,8.477903,77.628081
56073,,2.439348,3.452684,9.900053,0.747418,-0.282873,-5.049520,13.111714,8.974363,74.740323
56074,,2.563908,3.474947,10.165511,0.640684,-0.329242,-5.099100,13.087293,9.399190,71.841960
56075,,2.536616,3.334088,10.312808,0.530388,-0.370071,-5.145170,12.898361,9.853195,68.880229
56076,,2.391938,3.022129,10.402255,0.445966,-0.404294,-5.192583,12.711378,10.234083,65.911724
56077,,2.287121,2.645588,10.271687,0.400945,-0.437955,-5.243991,12.393296,10.639977,62.874308
56078,,2.131221,2.229972,10.043465,0.415867,-0.457687,-5.286794,12.139836,10.976402,59.836010
56079,,1.978838,1.846203,9.780463,0.482494,-0.493340,-5.328840,11.818322,11.331443,56.732158
56080,,1.843493,1.554932,9.544137,0.613093,-0.527385,-5.367509,11.632161,11.612301,53.629938
56081,,1.801041,1.211464,9.612098,0.773821,-0.565552,-5.394646,11.434034,11.910628,50.470486
56082,,1.833792,1.009217,9.805631,0.949050,-0.602162,-5.409981,11.402976,12.141123,47.327580
56083,,1.829142,0.997274,10.146133,1.090706,-0.629262,-5.415374,11.353542,12.397647,44.142057
56084,,1.781418,0.967167,10.496103,1.203449,-0.652683,-5.413601,11.439332,12.601910,40.985220
56085,,1.743636,0.888834,10.756594,1.295184,-0.663815,-5.407409,11.481496,12.842589,37.795035
56086,,1.721265,0.799295,10.933570,1.354198,-0.668072,-5.401123,11.628677,13.047935,34.638136
56087,,1.569828,0.941578,10.913710,1.366169,-0.668864,-5.388331,11.688438,13.294337,31.453452
56088,,1.426686,1.139072,10.572760,1.357357,-0.663000,-5.372907,11.813976,13.512163,28.307533
56089,,1.316943,1.265859,10.488649,1.324973,-0.663369,-5.360034,11.827522,13.767104,25.134338
56090,,1.156177,1.584572,10.195233,1.269852,-0.666302,-5.355514,11.877387,13.989133,21.991496
56091,,1.217953,1.785255,9.838139,1.185346,-0.692872,-5.337344,11.786555,14.225461,18.821467
56092,,1.318905,1.562894,9.342582,1.128840,-0.690693,-5.336138,11.731862,14.429481,15.679847
56093,,1.338351,1.401481,8.875540,1.138379,-0.707971,-5.328727,11.590104,14.647152,12.506172
56094,,1.376624,1.583857,8.850501,1.140128,-0.733260,-5.311123,11.520660,14.816392,9.366818
56095,,1.639675,1.853070,9.088040,1.045463,-0.766414,-5.272359,11.311402,14.981689,6.212828
56096,,1.924861,1.916249,9.337514,0.869858,-0.771246,-5.234516,11.079345,15.104232,3.107262
56097,,2.114835,1.768682,9.611121,0.636113,-0.773562,-5.172674,10.634949,15.224988,0.005106
56098,,2.295506,1.629776,9.934204,0.390637,-0.757928,-5.109932,10.134815,15.300418,-3.032237
56099,,2.476746,1.532362,10.089493,0.103759,-0.742747,-5.027354,9.398681,15.367420,-6.050554
56100,,2.452826,1.455935,10.019924,-0.196225,-0.727002,-4.943054,8.582090,15.373373,-8.991563
56101,,2.477048,1.135839,9.784139,-0.461741,-0.709258,-4.858007,7.547076,15.359230,-11.908682
56102,,2.470206,0.723241,9.714210,-0.658046,-0.682776,-4.782345,6.494096,15.280372,-14.751858
56103,,2.407743,0.194752,9.507854,-0.801551,-0.652817,-4.717694,5.294826,15.183599,-17.578159
56104,,2.241787,-0.268807,9.324702,-0.859485,-0.620575,-4.658203,4.157394,15.023385,-20.339374
56105,,2.183296,-0.623779,9.230711,-0.849123,-0.609724,-4.620383,2.963182,14.836765,-23.096090
56106,,2.129788,-0.924408,9.211437,-0.831866,-0.599334,-4.551198,1.877451,14.578135,-25.782848
56107,,2.000105,-1.176390,9.376855,-0.817815,-0.597056,-4.478422,0.749154,14.292572,-28.439549
56108,,1.949072,-1.452002,9.438917,-0.810173,-0.597308,-4.419266,-0.276174,13.935228,-31.032652
56109,,1.968337,-1.852747,9.505934,-0.784406,-0.594128,-4.370070,-1.334238,13.557259,-33.604807
56110,,2.142499,-2.136851,9.601289,-0.728642,-0.590019,-4.334412,-2.264860,13.115822,-36.128496
56111,,2.281184,-2.322547,9.548866,-0.677270,-0.569706,-4.304575,-3.210557,12.669543,-38.639316
56112,,2.302352,-2.315947,9.314512,-0.657969,-0.515207,-4.271761,-4.052482,12.193812,-41.107923
56113,,2.175949,-2.322115,9.290917,-0.666245,-0.473344,-4.247725,-4.941071,11.730176,-43.565840
56114,,2.397326,-2.380986,8.931570,-0.764602,-0.462347,-4.228756,-5.797183,11.213097,-45.991079
56115,,2.887464,-2.580226,8.316988,-0.945060,-0.411936,-4.216376,-6.796106,10.711074,-48.410030
56116,,2.982459,-2.904430,7.392959,-1.175234,-0.338690,-4.203300,-7.841569,10.184312,-50.805398
56117,,2.377860,-3.340940,6.564983,-1.342863,-0.276441,-4.176776,-9.018702,9.674319,-53.184454
56118,,1.525723,-3.940233,6.225658,-1.366671,-0.342970,-4.145017,-10.122186,9.057722,-55.518733
56119,,1.532306,-4.405010,6.706542,-1.194695,-0.497996,-4.110453,-11.150178,8.340100,-57.806332
56120,,2.224003,-4.261594,7.223319,-1.010272,-0.619700,-4.057631,-11.980180,7.499305,-60.030294
56121,,2.714573,-3.701376,7.699802,-0.930438,-0.672588,-3.956915,-12.774956,6.634411,-62.177682
56122,,2.663548,-3.330497,7.744370,-1.048755,-0.695142,-3.802446,-13.543514,5.723050,-64.218960
56123,,2.093387,-3.678330,7.918725,-1.191913,-0.707883,-3.628397,-14.401042,4.824999,-66.145761
56124,,1.763221,-4.598685,7.688696,-1.279289,-0.746677,-3.471985,-15.222196,3.874620,-67.965543
56125,,1.786261,-5.988583,7.835433,-1.113204,-0.799714,-3.314781,-15.958756,2.920348,-69.673855
56126,,2.430433,-6.756802,8.225673,-0.822046,-0.870699,-3.146676,-16.451735,1.909972,-71.269833
56127,,3.055874,-6.831271,8.567011,-0.597647,-0.872179,-2.918735,-16.828048,0.949820,-72.728542
56128,,2.863780,-6.695053,8.917827,-0.501505,-0.822041,-2.648300,-17.087523,0.027040,-74.046663
56129,,2.295217,-6.932406,9.016269,-0.501258,-0.750702,-2.353284,-17.364544,-0.785551,-75.206219
56130,,1.694250,-8.063712,9.358787,-0.400931,-0.672653,-2.050551,-17.540463,-1.536635,-76.216580
56131,,1.573153,-9.328397,9.743829,-0.168905,-0.641369,-1.753610,-17.607205,-2.192787,-77.062974
56132,,1.994706,-10.096203,9.909829,0.179643,-0.607713,-1.448190,-17.448749,-2.805818,-77.754912
56133,,2.180780,-9.775166,10.303354,0.503338,-0.571952,-1.148176,-17.129548,-3.316690,-78.285473
56134,,2.134839,-8.472271,10.864820,0.580414,-0.536161,-0.871641,-16.756588,-3.787844,-78.678786
56135,,1.948199,-7.178287,11.490796,0.323710,-0.472452,-0.624287,-16.550326,-4.152167,-78.943623
56136,,1.703162,-6.665177,12.167247,-0.147792,-0.380659,-0.415035,-16.612312,-4.461292,-79.113538
56137,,1.695001,-7.289450,12.737448,-0.622760,-0.311482,-0.234862,-16.960590,-4.673487,-79.190156
56138,,2.144833,-8.422337,12.914529,-0.970613,-0.257145,-0.042346,-17.512653,-4.853399,-79.172733
56139,,2.512370,-9.438010,12.828873,-1.147256,-0.173103,0.139141,-18.176735,-4.925828,-79.065100
56140,,2.409415,-10.186027,12.576359,-1.159549,-0.087055,0.331845,-18.858784,-4.945048,-78.870445
56141,,2.173746,-10.672976,12.425057,-1.049109,-0.021325,0.515050,-19.481817,-4.862104,-78.585633
56142,,1.957453,-10.826048,12.399128,-0.868933,0.036081,0.681926,-20.018709,-4.742968,-78.224725
56143,,2.059155,-10.950006,12.346485,-0.659645,0.111509,0.848122,-20.429489,-4.517420,-77.788342
56144,,2.116664,-10.983737,12.417315,-0.412500,0.194143,1.017527,-20.721348,-4.240280,-77.280296
56145,,2.215355,-10.626706,12.382633,-0.176981,0.290140,1.210615,-20.862077,-3.841007,-76.688282
56146,,2.267038,-9.871854,12.250012,-0.032394,0.374908,1.416877,-20.947796,-3.382220,-76.004846
56147,,2.261944,-9.104240,11.994477,0.006995,0.461714,1.646145,-20.983911,-2.800044,-75.216528
56148,,2.214326,-8.621115,11.698078,-0.025157,0.537666,1.897026,-21.067304,-2.153887,-74.311460
56149,,2.293587,-8.531405,11.241608,-0.101019,0.606654,2.163094,-21.154693,-1.385531,-73.278875
56150,,2.434333,-8.312536,10.892903,-0.179811,0.659226,2.436016,-21.312267,-0.559128,-72.115071
56151,,2.520693,-8.178747,10.432935,-0.262493,0.715297,2.709926,-21.462248,0.386457,-70.817663
56152,,2.481861,-8.033970,9.998127,-0.333827,0.757346,2.973509,-21.671197,1.385125,-69.394517
56153,,2.549059,-8.050822,9.514863,-0.365069,0.785876,3.234042,-21.825414,2.487752,-67.838276
56154,,2.588976,-8.158274,9.220104,-0.327276,0.804940,3.477270,-21.968198,3.627700,-66.163289
56155,,2.749425,-8.154558,8.890378,-0.228120,0.811709,3.712282,-21.963092,4.852505,-64.358615
56156,,2.803669,-7.930586,8.649116,-0.108574,0.812455,3.933383,-21.892083,6.095152,-62.439881
56157,,2.994016,-7.575769,8.344072,-0.007753,0.799200,4.144149,-21.653208,7.399087,-60.389389
56158,,3.102752,-7.127050,8.137315,0.072001,0.791948,4.340557,-21.364328,8.702580,-58.231042
56159,,3.111308,-6.595335,7.941236,0.128886,0.772136,4.516530,-20.915724,10.046513,-55.945364
56160,,3.115115,-6.040188,7.819574,0.169358,0.753601,4.663591,-20.436234,11.363908,-53.570918
56161,,3.019064,-5.425764,7.913524,0.183647,0.737876,4.795927,-19.809281,12.704304,-51.080467
56162,,2.813732,-4.838157,8.070292,0.128419,0.737031,4.909859,-19.205297,14.012602,-48.519112
56163,,2.540041,-4.266340,8.039601,0.032965,0.714467,5.009424,-18.507270,15.325743,-45.847167
56164,,2.252167,-3.868460,7.949693,-0.086963,0.682617,5.091765,-17.869007,16.580382,-43.115109
56165,,1.941700,-3.600684,7.918021,-0.224468,0.634197,5.162317,-17.155631,17.815087,-40.275835
56166,,1.817317,-3.407117,7.788979,-0.358028,0.566454,5.219507,-16.512579,18.966736,-37.386291
56167,,1.703057,-3.299081,7.817851,-0.449669,0.521075,5.264673,-15.769144,20.090251,-34.398975
56168,,1.508064,-3.118648,7.967513,-0.534661,0.478278,5.309030,-15.073955,21.141498,-31.375481
56169,,1.316646,-2.852864,8.096268,-0.632618,0.439811,5.345420,-14.282868,22.159502,-28.255580
56170,,1.204534,-2.568484,8.221890,-0.770503,0.399399,5.388268,-13.572102,23.106757,-25.103008
56171,,0.950958,-2.208540,8.233842,-0.980672,0.354491,5.441800,-12.827664,24.014637,-21.841044
56172,,0.682867,-1.837099,8.111988,-1.242340,0.294236,5.496052,-12.231723,24.848571,-18.540467
56173,,0.441825,-1.722473,7.853952,-1.499523,0.210991,5.541237,-11.635864,25.621504,-15.133179
56174,,0.215147,-1.941224,7.603359,-1.677057,0.114869,5.570620,-11.147746,26.307070,-11.703042
56175,,0.129799,-2.259991,7.437471,-1.753481,0.011243,5.600439,-10.571388,26.916057,-8.178734
56176,,0.069428,-2.512606,7.472597,-1.752895,-0.089710,5.624672,-10.006967,27.436084,-4.638624
56177,,0.151451,-2.530105,7.691215,-1.781891,-0.195326,5.671348,-9.336905,27.869751,-1.000164
56178,,0.281483,-2.165450,7.797468,-1.873488,-0.280071,5.726115,-8.729865,28.225045,2.666701
56179,,0.217303,-1.885284,7.810851,-2.001994,-0.345289,5.771660,-8.092113,28.511057,6.418265
56180,,-0.049512,-1.861232,7.645597,-2.105904,-0.420001,5.810945,-7.534680,28.726725,10.182620
56181,,-0.341307,-2.103411,7.487540,-2.079189,-0.533810,5.825176,-6.883089,28.840051,14.005226
56182,,-0.501106,-2.489884,7.483856,-1.898336,-0.643022,5.826068,-6.168664,28.857307,17.811810
56183,,-0.578879,-2.539217,7.524284,-1.634921,-0.743930,5.816153,-5.255676,28.762700,21.645298
56184,,-0.533562,-2.094225,7.700367,-1.364262,-0.812820,5.798710,-4.248337,28.579716,25.438310
56185,,-0.500282,-1.312447,7.904117,-1.161423,-0.867206,5.768451,-3.107699,28.293629,29.226110
56186,,-0.485107,-0.476304,8.283507,-1.044102,-0.890708,5.727931,-1.979190,27.936494,32.947684
56187,,-0.616736,-0.176324,8.463325,-0.966236,-0.902028,5.675785,-0.815513,27.496797,36.634917
56188,,-0.614012,-0.202255,8.542192,-0.886114,-0.936854,5.609752,0.301469,26.981850,40.234887
56189,,-0.388226,-0.216136,8.665576,-0.782836,-0.983125,5.548366,1.448075,26.367696,43.782942
56190,,-0.027994,-0.089536,8.834946,-0.673944,-1.009659,5.497345,2.563072,25.686485,47.248893
56191,,0.379767,0.073691,9.019860,-0.551704,-1.007183,5.440013,3.706430,24.937390,50.657093
56192,,0.643198,0.232593,9.253235,-0.442258,-0.992621,5.387450,4.817396,24.147020,53.982687
56193,,0.895637,0.626933,9.574574,-0.347193,-0.952011,5.336982,5.936719,23.314949,57.252680
56194,,1.101753,0.937849,9.851353,-0.277153,-0.884659,5.288797,7.006896,22.474475,60.449432
56195,,1.250795,1.230555,10.010380,-0.192679,-0.803343,5.226246,8.076587,21.622709,63.587110
56196,,1.320912,1.600859,10.165561,-0.102653,-0.741776,5.145811,9.108019,20.764996,66.637957
56197,,1.334471,2.031752,10.346513,-0.045873,-0.699271,5.062496,10.118402,19.883137,69.616345
56198,,1.715015,2.373750,10.349634,-0.034998,-0.680171,4.987475,11.050916,18.976439,72.512863
56199,,1.981857,2.900490,10.432593,-0.091965,-0.623576,4.907075,11.899532,18.064523,75.343653
56200,,2.081995,3.246795,10.469362,-0.169472,-0.545871,4.827963,12.628874,17.170768,78.105228
56201,,2.006580,3.633950,10.448009,-0.276696,-0.480541,4.724247,13.246908,16.293979,80.795412
56202,,1.936287,4.045736,10.546641,-0.403571,-0.391190,4.629009,13.725350,15.455245,83.418752
56203,,1.511515,4.337006,10.662783,-0.546213,-0.341763,4.509540,14.076019,14.642051,85.967011
56204,,1.452476,4.550766,10.684727,-0.691889,-0.352701,4.376655,14.276713,13.828308,88.421535
56205,,1.492472,4.614417,10.761134,-0.835576,-0.357265,4.236064,14.349252,13.027575,90.787124
56206,,1.649860,4.694846,10.799170,-0.982251,-0.353456,4.081475,14.277755,12.248359,93.056082
56207,,1.551257,4.897689,10.916147,-1.138708,-0.345395,3.908339,14.073609,11.505742,95.224951
56208,,1.469800,5.108058,10.925922,-1.326233,-0.321899,3.733912,13.710396,10.807122,97.295356
56209,,1.464462,5.172186,10.833412,-1.523735,-0.302590,3.535162,13.196342,10.164943,99.257506
56210,,1.313199,4.911526,10.814140,-1.686173,-0.264512,3.342184,12.546483,9.583771,101.117421
56211,,1.106231,4.443295,10.832961,-1.775529,-0.248383,3.132909,11.814174,9.063622,102.864943
56212,,0.842449,4.006558,10.806532,-1.815350,-0.294294,2.917205,11.021128,8.559920,104.488819
56213,,1.025470,3.345469,10.767188,-1.820552,-0.357517,2.701967,10.196798,8.071263,105.988434
56214,,1.439641,2.603910,10.471690,-1.754079,-0.370608,2.490015,9.379415,7.611446,107.371206
56215,,1.388440,2.214546,10.484007,-1.631542,-0.344194,2.279861,8.610321,7.210139,108.641164
56216,,1.181762,2.147556,10.362349,-1.506253,-0.331109,2.078963,7.888519,6.842906,109.801743
56217,,1.000101,2.730626,10.307771,-1.412862,-0.279286,1.886007,7.204155,6.540070,110.859222
56218,,0.824699,3.465932,10.402878,-1.397947,-0.234356,1.681159,6.508538,6.282836,111.805902
56219,,0.900766,3.830705,10.404903,-1.482040,-0.200462,1.469804,5.750674,6.076431,112.635888
56220,,1.109932,3.720355,10.369053,-1.571325,-0.125324,1.234210,4.924349,5.929963,113.337814
56221,,1.173583,3.631083,10.412164,-1.614861,-0.026156,0.976740,4.058599,5.868921,113.897692
56222,,1.158265,3.396227,10.490738,-1.612546,0.090989,0.707748,3.178363,5.885799,114.308757
56223,,1.360555,3.071806,10.742233,-1.502085,0.249623,0.399084,2.344244,6.015370,114.545564
56224,,1.404747,3.043545,10.734437,-1.322782,0.418572,0.085684,1.595174,6.243399,114.604354
56225,,1.381021,3.448288,10.667381,-1.151251,0.606778,-0.230622,0.923560,6.591617,114.479420
56226,,1.393430,3.612568,10.368262,-1.085366,0.812501,-0.532655,0.269568,7.049881,114.178380
56227,,1.475503,3.530973,9.919564,-1.074111,1.030385,-0.847533,-0.406511,7.637420,113.688426
56228,,1.462721,3.233386,9.316735,-1.037137,1.256087,-1.170123,-1.090953,8.337436,113.003780
56229,,1.348002,3.173626,8.748033,-0.987309,1.464299,-1.485384,-1.788730,9.152546,112.122088
56230,,1.412735,3.120363,8.256725,-0.979188,1.651265,-1.799120,-2.523448,10.048021,111.043525
56231,,1.501671,2.899584,7.768990,-0.978041,1.827544,-2.108196,-3.316146,11.030060,109.762745
56232,,1.445499,2.351311,7.344296,-0.936811,1.976809,-2.402857,-4.140518,12.059353,108.288256
56233,,1.461289,1.949489,7.062053,-0.868087,2.112253,-2.682926,-4.999929,13.141131,106.619903
56234,,1.556171,1.729212,6.762367,-0.804358,2.248183,-2.961498,-5.892838,14.250862,104.759055
56235,,1.441112,1.603497,6.395793,-0.781429,2.401732,-3.242118,-6.867817,15.409957,102.691832
56236,,1.269889,1.552516,5.986475,-0.811717,2.560272,-3.517933,-7.949606,16.593258,100.420111
56237,,1.124528,1.453226,5.562522,-0.900274,2.707545,-3.787932,-9.199213,17.801706,97.932267
56238,,0.805773,1.017183,4.983796,-0.987984,2.815681,-4.047234,-10.604856,18.981070,95.238044
56239,,0.493515,0.331500,4.627549,-1.019706,2.821886,-4.296133,-12.156234,20.078540,92.340003
56240,,0.382218,-0.264593,4.435055,-1.019941,2.788909,-4.522581,-13.808925,21.043143,89.266218
56241,,0.283846,-0.798864,4.370338,-1.045522,2.768655,-4.749502,-15.599258,21.884991,86.006259
56242,,0.167073,-1.244466,4.233818,-1.104278,2.750076,-4.970889,-17.516886,22.574289,82.579168
56243,,0.034453,-1.533723,4.291744,-1.185264,2.738451,-5.198689,-19.593954,23.112112,78.974384
56244,,0.130599,-1.833654,4.725240,-1.286538,2.735612,-5.400341,-21.800915,23.476508,75.227713
56245,,0.549938,-2.595974,5.758288,-1.348966,2.773366,-5.575805,-24.126788,23.691419,71.342890
56246,,0.924576,-3.561401,6.441272,-1.425491,2.844115,-5.724447,-26.537304,23.753647,67.351489
56247,,1.049738,-4.743565,6.736616,-1.406760,2.942425,-5.863669,-28.992550,23.678586,63.248035
56248,,0.756516,-5.873456,6.688758,-1.258323,3.020355,-6.010695,-31.375359,23.436185,59.059721
56249,,0.428134,-6.461715,6.219310,-1.116346,3.054480,-6.127664,-33.687565,23.021834,54.815954
56250,,0.169793,-6.568017,5.610908,-1.007065,3.051505,-6.259567,-35.899892,22.404748,50.549773
56251,,0.103317,-6.856720,5.089956,-0.877628,3.002850,-6.415229,-38.004450,21.568155,46.268313
56252,,0.089974,-7.071166,4.751306,-0.687327,2.907414,-6.585710,-39.914261,20.485142,42.010428
56253,,0.100363,-7.366180,4.528490,-0.543957,2.727689,-6.714647,-41.641826,19.153880,37.830532
56254,,0.367748,-7.526190,4.319482,-0.526986,2.439866,-6.748904,-43.190684,17.572474,33.835986
56255,,0.720018,-7.397195,4.259331,-0.619403,2.145370,-6.724187,-44.630490,15.784111,30.050593
56256,,0.892749,-7.471009,4.579533,-0.769061,1.860448,-6.672292,-45.968899,13.811763,26.491566
56257,,1.263284,-7.837738,4.988198,-1.017066,1.530737,-6.553164,-47.277173,11.683242,23.196204
56258,,1.974713,-7.581579,5.275236,-1.401060,1.185437,-6.376311,-48.617727,9.420854,20.199057
56259,,2.716318,-6.908508,5.449031,-1.845061,0.923658,-6.201925,-50.066558,7.068457,17.456178
56260,,3.217415,-6.646825,5.153931,-2.304787,0.698752,-6.046634,-51.631433,4.629784,14.949463
56261,,3.756930,-7.087469,4.836826,-2.740007,0.501185,-5.892375,-53.334355,2.125609,12.663940
56262,,4.471849,-7.862845,4.497490,-3.157472,0.311542,-5.727765,-55.162477,-0.438736,10.604734
56263,,5.241406,-8.702277,4.075113,-3.535792,0.149043,-5.546776,-57.130972,-3.031394,8.764879
56264,,5.808645,-9.962085,3.534958,-3.808834,0.036773,-5.362145,-59.178184,-5.636309,7.123654
56265,,6.303473,-11.552835,3.063634,-3.882217,-0.032652,-5.203919,-61.222840,-8.233668,5.649671
56266,,6.721825,-12.898732,2.535248,-3.734917,-0.094931,-5.057419,-63.133776,-10.829229,4.328614
56267,,6.973400,-13.451691,2.096968,-3.376949,-0.156602,-4.921262,-64.819008,-13.402943,3.148158
56268,,7.164240,-13.550561,1.771274,-2.919877,-0.203290,-4.804797,-66.212023,-15.965300,2.079094
56269,,7.501735,-13.519795,1.549256,-2.439313,-0.244948,-4.685155,-67.320016,-18.487837,1.107828
56270,,7.879928,-13.247365,1.396269,-1.955015,-0.294008,-4.582477,-68.131569,-20.991103,0.216550
56271,,7.973855,-12.940308,1.240112,-1.472472,-0.322019,-4.497311,-68.656496,-23.455205,-0.620628
56272,,7.869912,-12.472767,1.191585,-1.045625,-0.360754,-4.431127,-68.915831,-25.907509,-1.419332
56273,,7.940765,-12.139803,1.344915,-0.693391,-0.420868,-4.351308,-68.968644,-28.321212,-2.170343
56274,,8.285803,-11.721989,1.417962,-0.409055,-0.491274,-4.260801,-68.849437,-30.711522,-2.877722
56275,,8.565029,-11.144439,1.495388,-0.166822,-0.543696,-4.169313,-68.585450,-33.050968,-3.554303
56276,,8.671919,-10.626068,1.560558,0.021212,-0.573594,-4.081415,-68.191773,-35.357909,-4.225734
56277,,8.762377,-10.134191,1.631112,0.203083,-0.626100,-4.003883,-67.683410,-37.619213,-4.881151
56278,,8.945035,-9.501311,1.661847,0.375682,-0.688591,-3.957809,-67.057443,-39.876306,-5.532136
56279,,9.165594,-8.955542,1.592565,0.536164,-0.743869,-3.928373,-66.315942,-42.112546,-6.190722
56280,,9.325922,-8.487746,1.493664,0.671450,-0.813489,-3.917491,-65.467432,-44.364324,-6.863956
56281,,9.468381,-8.151693,1.496224,0.807858,-0.886577,-3.904970,-64.510655,-46.607283,-7.553369
56282,,9.631761,-7.854247,1.572900,0.918561,-0.968035,-3.890474,-63.462523,-48.865514,-8.116886
56283,,9.950785,-7.688747,1.647041,1.044901,-1.069336,-3.872380,-62.309201,-51.120291,-8.837956
56284,,10.273445,-7.505587,1.810290,1.181851,-1.156680,-3.833128,-61.046666,-53.380337,-9.459891
56285,,10.697546,-7.427717,2.180613,1.345611,-1.239016,-3.770032,-59.643251,-55.609458,-10.233899
56286,,11.096631,-7.453775,2.689213,1.545344,-1.274730,-3.685169,-58.054662,-57.806950,-10.976268
56287,,11.262225,-7.566177,3.100559,1.781930,-1.275820,-3.570954,-56.213493,-59.923019,-11.931722
56288,,11.298078,-7.696185,3.416974,2.098889,-1.257405,-3.422328,-54.066257,-61.956539,-12.944121
56289,,11.388749,-7.693057,3.523712,2.466643,-1.222946,-3.264393,-51.535240,-63.871014,-14.196845
56290,,11.404833,-7.451075,3.402198,2.838046,-1.176478,-3.067844,-48.622135,-65.663824,-15.563238
56291,,11.369916,-6.958818,3.274401,3.143538,-1.133759,-2.850871,-45.354643,-67.302604,-17.159830
56292,,11.282315,-6.356082,3.179497,3.399613,-1.081005,-2.594798,-41.806162,-68.787741,-18.836899
56293,,11.183277,-5.546947,3.352151,3.577628,-1.028585,-2.332923,-38.034259,-70.099026,-20.673603
56294,,11.099374,-4.703969,3.432758,3.604256,-0.974283,-2.056904,-34.206131,-71.255782,-22.503560
56295,,10.877944,-3.702605,3.622276,3.497194,-0.909726,-1.775468,-30.444171,-72.241966,-24.352581
56296,,10.731812,-2.640263,3.801972,3.228502,-0.865647,-1.503450,-26.950479,-73.101452,-26.041109
56297,,10.693297,-1.767474,3.997430,2.830260,-0.813610,-1.229131,-23.863208,-73.826623,-27.567778
56298,,10.658845,-1.107802,4.244744,2.342825,-0.754477,-0.979504,-21.293939,-74.451669,-28.818311
56299,,10.657769,-0.724569,4.442577,1.805191,-0.698970,-0.743179,-19.310015,-74.977068,-29.800618
56300,,10.537626,-0.550106,4.495096,1.253253,-0.637819,-0.528709,-17.957402,-75.429962,-30.437618
56301,,10.345355,-0.524877,4.619264,0.724571,-0.583978,-0.330876,-17.235165,-75.808326,-30.752528
56302,,10.279005,-0.665481,4.629794,0.231733,-0.526646,-0.158034,-17.121811,-76.132353,-30.711892
56303,,10.162605,-1.058991,4.698186,-0.171698,-0.462335,0.000763,-17.548134,-76.387213,-30.372189
56304,,10.055286,-1.557194,4.605720,-0.485825,-0.401151,0.127882,-18.417659,-76.590921,-29.757528
56305,,9.892459,-1.864945,4.621519,-0.709326,-0.335683,0.240147,-19.641001,-76.729969,-28.915864
56306,,9.819554,-2.266742,4.581374,-0.859654,-0.286140,0.336692,-21.153771,-76.822774,-27.859980
56307,,9.776111,-2.638728,4.490174,-0.923200,-0.233835,0.405396,-22.823112,-76.862053,-26.686771
56308,,9.733119,-3.034677,4.412138,-0.918113,-0.186769,0.468731,-24.596102,-76.856826,-25.401600
56309,,9.723696,-3.333395,4.353395,-0.848818,-0.141217,0.511261,-26.366401,-76.805759,-24.080890
56310,,9.828183,-3.518901,4.213889,-0.734097,-0.096212,0.542436,-28.081101,-76.715667,-22.746797
56311,,9.817403,-3.591357,4.069311,-0.590537,-0.047975,0.569226,-29.684112,-76.584013,-21.444942
56312,,9.773152,-3.615268,3.963435,-0.429526,0.006440,0.588405,-31.147990,-76.411489,-20.187652
56313,,9.636139,-3.525442,3.842604,-0.260916,0.056421,0.580896,-32.394833,-76.210478,-19.056145
56314,,9.630140,-3.437621,3.738407,-0.097789,0.091529,0.578832,-33.475930,-75.985854,-17.997770
56315,,9.700712,-3.288494,3.678617,0.036161,0.122721,0.573985,-34.388438,-75.745580,-17.033329
56316,,9.700966,-3.084140,3.601040,0.150290,0.164948,0.563849,-35.143825,-75.481981,-16.158969
56317,,9.658416,-2.796238,3.487126,0.219495,0.202478,0.554258,-35.755351,-75.204882,-15.394797
56318,,9.561190,-2.616268,3.383573,0.255361,0.227474,0.553584,-36.298618,-74.910002,-14.679004
56319,,9.509409,-2.463948,3.266058,0.278048,0.246115,0.543876,-36.755624,-74.612761,-14.038134
56320,,9.548493,-2.318633,3.102588,0.278531,0.263733,0.544846,-37.182135,-74.300437,-13.420966
56321,,9.640979,-2.221865,2.981658,0.267555,0.277680,0.544353,-37.566434,-73.986194,-12.860000
56322,,9.636913,-2.176392,2.797890,0.252625,0.287661,0.546989,-37.942881,-73.659491,-12.308157
56323,,9.697730,-2.142962,2.739058,0.231712,0.296600,0.556073,-38.306682,-73.330586,-11.788142
56324,,9.772260,-2.099495,2.651356,0.207225,0.305932,0.560967,-38.672542,-72.988432,-11.272110
56325,,9.786659,-2.021337,2.593154,0.179189,0.317676,0.568604,-39.025686,-72.643770,-10.792878
56326,,9.831303,-1.988872,2.550518,0.146683,0.327052,0.576208,-39.390108,-72.284679,-10.307787
56327,,9.784351,-1.951586,2.468782,0.113969,0.337273,0.582180,-39.744273,-71.924651,-9.864863
56328,,9.728669,-1.878252,2.356890,0.070432,0.346648,0.586164,-40.110512,-71.551540,-9.423525
56329,,9.618107,-1.855692,2.319546,0.027994,0.355175,0.585822,-40.467640,-71.180644,-9.027568
56330,,9.397174,-1.819763,2.211924,-0.019159,0.343856,0.585610,-40.856351,-70.807401,-8.614542
56331,,9.307806,-1.803252,2.155819,-0.067055,0.333907,0.585905,-41.261182,-70.443987,-8.223978
56332,,9.190257,-1.811897,2.113178,-0.107314,0.315730,0.577006,-41.690390,-70.084455,-7.816149
56333,,9.055279,-1.811762,2.081434,-0.141099,0.294033,0.563271,-42.124122,-69.744817,-7.438238
56334,,9.027390,-1.899800,2.063431,-0.166022,0.264312,0.544652,-42.574985,-69.417908,-7.043204
56335,,8.977451,-1.959967,2.041338,-0.174313,0.239746,0.525556,-43.015655,-69.113796,-6.676623
56336,,8.957999,-2.081750,2.047533,-0.166353,0.211913,0.499665,-43.447237,-68.824709,-6.299243
56337,,8.943104,-2.131984,1.977663,-0.141445,0.187005,0.466666,-43.838316,-68.563857,-5.964265
56338,,9.001681,-2.180179,2.046934,-0.114264,0.165792,0.432371,-44.198426,-68.319004,-5.624045
56339,,8.985814,-2.202264,2.001649,-0.075526,0.144606,0.398248,-44.508378,-68.101428,-5.334640
56340,,8.993132,-2.246892,1.956486,-0.037764,0.126793,0.360229,-44.777551,-67.900632,-5.045919
56341,,8.930343,-2.277393,1.938512,0.006984,0.106661,0.322327,-44.992031,-67.728161,-4.807753
56342,,8.955617,-2.300372,1.905025,0.054978,0.079910,0.285471,-45.172828,-67.576292,-4.557647
56343,,8.929772,-2.312610,1.968844,0.102929,0.053239,0.237376,-45.296265,-67.459380,-4.358008
56344,,8.917989,-2.289487,1.987572,0.144549,0.025739,0.195533,-45.388039,-67.365968,-4.148105
56345,,8.907790,-2.260058,2.046908,0.181236,-0.001306,0.158894,-45.441794,-67.302771,-3.975091
56346,,8.998710,-2.191864,2.088549,0.204266,-0.028256,0.112485,-45.471621,-67.265080,-3.790338
56347,,9.034622,-2.209739,2.104253,0.217906,-0.053950,0.072815,-45.472451,-67.258120,-3.651834
56348,,9.068967,-2.202803,2.145377,0.231146,-0.073104,0.038404,-45.458518,-67.269260,-3.504099
56349,,9.036291,-2.202202,2.185564,0.240286,-0.094346,0.000363,-45.416524,-67.308142,-3.398145
56350,,8.992200,-2.229931,2.226156,0.254990,-0.113055,-0.033554,-45.359614,-67.365057,-3.278200
56351,,8.986554,-2.268067,2.280189,0.267578,-0.136266,-0.064461,-45.280656,-67.447313,-3.195435
56352,,9.000643,-2.311093,2.319491,0.285603,-0.148648,-0.092751,-45.183014,-67.543217,-3.105911
56353,,9.012930,-2.331881,2.342856,0.320821,-0.168801,-0.122341,-45.048862,-67.662231,-3.049965
56354,,9.045286,-2.354450,2.393980,0.349226,-0.183659,-0.150414,-44.892092,-67.795999,-2.983861
56355,,9.094517,-2.360107,2.457863,0.372514,-0.189670,-0.174885,-44.695564,-67.944822,-2.963382
56356,,9.138350,-2.324940,2.490697,0.402208,-0.196460,-0.202659,-44.466970,-68.105086,-2.940874
56357,,9.257858,-2.312736,2.552337,0.420833,-0.205455,-0.225789,-44.203769,-68.280812,-2.962435
56358,,9.386303,-2.250439,2.553065,0.429555,-0.197493,-0.240036,-43.917539,-68.456579,-2.986835
56359,,9.413185,-2.198886,2.599219,0.424123,-0.188364,-0.252011,-43.602773,-68.635528,-3.061721
56360,,9.399813,-2.111171,2.657204,0.399970,-0.179713,-0.263078,-43.285039,-68.812954,-3.137713
56361,,9.363894,-2.114130,2.653360,0.363332,-0.171708,-0.262918,-42.969987,-68.988891,-3.250057
56362,,9.389520,-2.066593,2.656967,0.327371,-0.170342,-0.256406,-42.684157,-69.159609,-3.338724
56363,,9.358015,-2.086344,2.710855,0.283061,-0.159212,-0.251661,-42.408282,-69.325487,-3.458099
56364,,9.405256,-2.068054,2.716057,0.242680,-0.155852,-0.246323,-42.161332,-69.485883,-3.555352
56365,,9.414303,-2.125471,2.758449,0.201938,-0.145165,-0.237273,-41.928116,-69.639882,-3.678554
56366,,9.381522,-2.154784,2.770547,0.169732,-0.140565,-0.226249,-41.724120,-69.785846,-3.776443
56367,,9.416503,-2.173659,2.779427,0.142453,-0.133539,-0.218952,-41.529438,-69.927571,-3.894669
56368,,9.370605,-2.243408,2.754197,0.117718,-0.121113,-0.208600,-41.350978,-70.058222,-3.997948
56369,,9.430446,-2.313527,2.740678,0.107114,-0.111994,-0.207475,-41.163579,-70.186061,-4.129759
56370,,9.401350,-2.275100,2.760516,0.094051,-0.102998,-0.201041,-40.985094,-70.305627,-4.245101
56371,,9.370598,-2.332970,2.749713,0.089335,-0.094054,-0.201118,-40.792800,-70.423017,-4.392724
56372,,9.401700,-2.333175,2.787584,0.085734,-0.086160,-0.190274,-40.610446,-70.530854,-4.518218
56373,,9.375947,-2.347514,2.716074,0.077702,-0.075402,-0.186053,-40.419892,-70.634182,-4.670861
56374,,9.424771,-2.357382,2.741421,0.071770,-0.069900,-0.176624,-40.241283,-70.729447,-4.803292
56375,,9.396862,-2.345709,2.738744,0.063807,-0.062920,-0.172333,-40.059263,-70.821910,-4.955147
56376,,9.412812,-2.391662,2.699330,0.064931,-0.057092,-0.160008,-39.889119,-70.904914,-5.081435
56377,,9.453305,-2.363595,2.735437,0.052362,-0.053316,-0.150253,-39.728641,-70.984747,-5.217279
56378,,9.465637,-2.388990,2.722452,0.044895,-0.044651,-0.141252,-39.577746,-71.055034,-5.338522
56379,,9.508457,-2.385535,2.733547,0.038567,-0.040889,-0.136406,-39.427529,-71.124084,-5.471756
56380,,9.463403,-2.393993,2.721223,0.030050,-0.031097,-0.123167,-39.292752,-71.181313,-5.582941
56381,,9.470086,-2.404931,2.693445,0.020429,-0.025531,-0.114003,-39.163981,-71.235219,-5.704402
56382,,9.491774,-2.402097,2.677674,0.013954,-0.022579,-0.103877,-39.053215,-71.281303,-5.800625
56383,,9.445571,-2.414336,2.666526,0.010488,-0.014722,-0.092869,-38.945186,-71.322613,-5.906133
56384,,9.461759,-2.396008,2.635545,0.009806,-0.008110,-0.084043,-38.846878,-71.354762,-5.991757
56385,,9.424051,-2.446040,2.657989,0.005193,-0.003672,-0.063510,-38.768217,-71.380479,-6.069431
56386,,9.367088,-2.427245,2.615780,0.004063,-0.000251,-0.052519,-38.706995,-71.397439,-6.117121
56387,,9.391385,-2.448033,2.618432,0.008602,0.003767,-0.044376,-38.643582,-71.412915,-6.176627
56388,,9.376875,-2.459286,2.607394,0.010912,0.006982,-0.029324,-38.600978,-71.418171,-6.204565
56389,,9.358781,-2.448769,2.622481,0.017171,0.010900,-0.019148,-38.558574,-71.421402,-6.236720
56390,,9.369358,-2.414348,2.619580,0.025039,0.011643,-0.008475,-38.531081,-71.416873,-6.240521
56391,,9.387582,-2.421100,2.607578,0.028045,0.015086,-0.000783,-38.502498,-71.411659,-6.251521
56392,,9.392883,-2.370381,2.589190,0.026190,0.021228,0.003927,-38.481291,-71.398145,-6.247028
56393,,9.353634,-2.360210,2.577672,0.013722,0.024922,0.013805,-38.469970,-71.383309,-6.248473
56394,,9.332565,-2.358833,2.552509,0.014294,0.029717,0.020003,-38.468255,-71.360096,-6.231506
56395,,9.312705,-2.352914,2.569620,0.002991,0.035354,0.027185,-38.469867,-71.335806,-6.225788
56396,,9.306367,-2.338309,2.556590,-0.001134,0.033867,0.037311,-38.496383,-71.304315,-6.186108
56397,,9.322960,-2.350076,2.546057,-0.000388,0.037984,0.045075,-38.520787,-71.272456,-6.158366
56398,,9.331363,-2.322293,2.545216,-0.005313,0.041506,0.055682,-38.565656,-71.230867,-6.103854
56399,,9.324219,-2.310446,2.532853,-0.010604,0.046390,0.063139,-38.610623,-71.188770,-6.060560
56400,,9.312216,-2.281963,2.504308,-0.015469,0.046160,0.073779,-38.680058,-71.138464,-5.986252
56401,,9.361506,-2.290548,2.492488,-0.019344,0.048549,0.080153,-38.749520,-71.089267,-5.922335
56402,,9.338099,-2.200733,2.499188,-0.029152,0.053320,0.094560,-38.846028,-71.028165,-5.827571
56403,,9.328643,-2.198458,2.445293,-0.044923,0.056584,0.101876,-38.949036,-70.967498,-5.743629
56404,,9.377246,-2.210585,2.433566,-0.053181,0.052819,0.108464,-39.076831,-70.901449,-5.629577
56405,,9.378377,-2.177652,2.374918,-0.062839,0.058396,0.117584,-39.207020,-70.834173,-5.527662
56406,,9.283763,-2.178505,2.380446,-0.079706,0.064304,0.122244,-39.354036,-70.757937,-5.410176
56407,,9.169312,-2.176948,2.357384,-0.092069,0.058271,0.125305,-39.509129,-70.687732,-5.299529
56408,,9.090031,-2.163633,2.373846,-0.095749,0.057716,0.126412,-39.675560,-70.612773,-5.172142
56409,,9.034376,-2.208771,2.282476,-0.095974,0.047825,0.123331,-39.839328,-70.547679,-5.054571
56410,,8.998088,-2.223588,2.328068,-0.099328,0.040556,0.119285,-40.014981,-70.482701,-4.919711
56411,,8.997781,-2.259082,2.303141,-0.091381,0.026099,0.114937,-40.186491,-70.429987,-4.791041
56412,,9.064400,-2.285392,2.231588,-0.078883,0.011749,0.103666,-40.360167,-70.383083,-4.643576
56413,,9.112537,-2.269718,2.282790,-0.062096,0.000460,0.090671,-40.510489,-70.350311,-4.519514
56414,,9.185811,-2.305926,2.267800,-0.047987,-0.011843,0.073100,-40.653204,-70.324887,-4.385918
56415,,9.224087,-2.319154,2.321716,-0.027174,-0.022466,0.055301,-40.763793,-70.315085,-4.282765
56416,,9.291473,-2.310640,2.315139,-0.004552,-0.035483,0.032783,-40.857243,-70.314940,-4.176008
56417,,9.315811,-2.333797,2.355819,0.011604,-0.044043,0.013564,-40.917627,-70.330023,-4.102578
56418,,9.363205,-2.290051,2.387876,0.029454,-0.052730,-0.003633,-40.966112,-70.350998,-4.022724
56419,,9.360482,-2.270566,2.367272,0.035839,-0.058764,-0.015267,-40.993409,-70.383235,-3.969700
