// Start Time: Unknown
// Update Rate: 100.0Hz
// Filter Profile: human (46.1)
// Firmware Version: 4.3.5
PacketCounter,SampleTimeFine,Acc_X,Acc_Y,Acc_Z,Gyr_X,Gyr_Y,Gyr_Z,Roll,Pitch,Yaw
12505,,9.708738,-1.361838,1.810947,0.021862,0.009832,-0.001929,-36.958705,-76.865155,-9.324662
12506,,9.652143,-1.379734,1.804685,0.009665,0.011966,-0.001325,-37.411862,-76.758641,-8.677363
12507,,9.660375,-1.455762,1.849153,0.003654,0.012233,-0.000286,-37.180229,-76.808567,-9.007549
12508,,9.598249,-1.448165,1.820624,0.004003,0.009032,0.002666,-37.169789,-76.803520,-9.015916
12509,,9.598037,-1.448175,1.821730,0.009921,0.011911,0.000180,-37.147369,-76.798017,-9.032996
12510,,9.612801,-1.448160,1.791417,0.010171,0.002733,-0.004769,-37.128226,-76.798419,-9.046674
12511,,9.631844,-1.500893,1.859214,0.014156,0.007333,-0.009977,-37.090703,-76.798328,-9.076929
12512,,9.631867,-1.499721,1.860041,0.011069,0.005920,-0.009487,-37.057156,-76.798899,-9.104872
12513,,9.618327,-1.470914,1.815917,0.008051,0.010745,-0.010386,-37.018882,-76.796779,-9.139576
12514,,9.630575,-1.494630,1.785041,0.000873,0.012570,-0.007555,-36.985175,-76.793633,-9.173684
12515,,9.621071,-1.519632,1.839394,-0.004964,0.011236,-0.005042,-36.967022,-76.788977,-9.195538
12516,,9.663760,-1.473348,1.803105,-0.008975,0.016019,-0.002672,-36.943455,-76.782563,-9.225028
12517,,9.627517,-1.518089,1.787579,-0.019992,0.011901,-0.002451,-36.941730,-76.775962,-9.239053
12518,,9.653160,-1.570639,1.801563,-0.021079,0.015004,-0.000628,-36.930606,-76.769307,-9.262887
12519,,9.624874,-1.617564,1.808969,-0.009365,0.012721,0.005057,-36.943109,-76.758811,-9.256414
12520,,9.637704,-1.571296,1.834797,0.001249,0.009110,0.004692,-36.938194,-76.753023,-9.260728
12521,,9.589094,-1.591732,1.851061,0.013700,0.006924,0.005603,-36.955959,-76.743343,-9.235757
12522,,9.614321,-1.569926,1.844757,0.021979,0.006428,0.008826,-36.951121,-76.737360,-9.227790
12523,,9.619148,-1.521816,1.847630,0.023562,0.007906,0.008597,-36.975698,-76.724183,-9.190455
12524,,9.555184,-1.467379,1.875115,0.018961,0.011251,0.007925,-36.963779,-76.716302,-9.191539
12525,,9.577797,-1.469847,1.868262,0.004417,0.012069,0.004230,-36.988290,-76.701204,-9.165751
12526,,9.638612,-1.549614,1.842117,0.002185,0.007350,0.010682,-36.996997,-76.694158,-9.155518
12527,,9.704187,-1.506532,1.797386,-0.004681,0.010925,0.005751,-37.036343,-76.677449,-9.120116
12528,,9.691527,-1.482538,1.830461,-0.010866,0.012792,0.005307,-37.034182,-76.669765,-9.128737
12529,,9.673783,-1.506967,1.861611,-0.011537,0.009809,0.002238,-37.076876,-76.654458,-9.094096
12530,,9.668494,-1.555729,1.860501,-0.009120,0.008238,-0.001318,-37.067573,-76.651148,-9.109027
12531,,9.650914,-1.579336,1.891423,-0.000610,0.007945,-0.005877,-37.097312,-76.637694,-9.081519
12532,,9.630504,-1.552223,1.901278,0.009911,0.007476,-0.007682,-37.065983,-76.636934,-9.107881
12533,,9.568612,-1.543791,1.872433,0.019945,0.006857,-0.003208,-37.095360,-76.620732,-9.068768
12534,,9.591435,-1.545349,1.865300,0.025215,0.006494,0.000536,-37.072517,-76.617588,-9.077393
12535,,9.593904,-1.520578,1.867047,0.021539,0.003644,-0.002017,-37.118086,-76.599790,-9.021998
12536,,9.598979,-1.471412,1.869506,0.019783,0.003765,-0.003265,-37.095010,-76.599205,-9.034071
12537,,9.652792,-1.476560,1.877049,0.011668,0.007351,-0.006436,-37.128683,-76.581916,-8.994987
12538,,9.619275,-1.496210,1.862174,0.002224,0.009406,-0.007874,-37.098768,-76.580320,-9.024426
12539,,9.646881,-1.595043,1.820439,-0.003880,0.012818,-0.008293,-37.127923,-76.560392,-8.999948
12540,,9.636284,-1.616740,1.797690,0.005057,0.010871,-0.009865,-37.090499,-76.558826,-9.035438
12541,,9.633626,-1.640205,1.798141,0.017261,0.013173,-0.002577,-37.129306,-76.533924,-8.988018
12542,,9.626078,-1.566688,1.833333,0.022875,0.009615,0.004124,-37.110208,-76.528141,-8.994156
12543,,9.636351,-1.544217,1.858408,0.018538,0.008217,0.006373,-37.178161,-76.505332,-8.917393
12544,,9.696872,-1.549507,1.812211,0.011862,0.009939,0.012203,-37.180278,-76.496611,-8.908195
12545,,9.678684,-1.499746,1.823160,0.003587,0.010433,0.008971,-37.278022,-76.467549,-8.810320
12546,,9.601553,-1.492585,1.825592,-0.004019,0.013913,0.008806,-37.277039,-76.458161,-8.813673
12547,,9.583037,-1.588892,1.800125,-0.004262,0.009276,0.008723,-37.370423,-76.431331,-8.722399
12548,,9.611143,-1.617660,1.814823,0.002757,0.004357,0.005850,-37.373747,-76.427329,-8.717310
12549,,9.602966,-1.616571,1.792437,0.020637,0.004895,0.010582,-37.486427,-76.398895,-8.596420
12550,,9.615837,-1.570150,1.817890,0.027738,0.001519,0.007738,-37.483002,-76.395499,-8.583570
12551,,9.610243,-1.544559,1.796476,0.031412,0.004368,0.010291,-37.578909,-76.371610,-8.470869
12552,,9.628521,-1.523877,1.844203,0.030825,0.002927,0.007253,-37.570793,-76.367718,-8.461020
12553,,9.645876,-1.500407,1.814700,0.017125,0.005136,0.008083,-37.649177,-76.350426,-8.377825
12554,,9.640254,-1.475152,1.793217,0.006603,0.005612,0.009879,-37.655857,-76.344436,-8.367030
12555,,9.637470,-1.500193,1.792892,-0.003255,0.004632,0.006873,-37.752874,-76.327121,-8.274226
12556,,9.627701,-1.526298,1.846479,-0.006595,0.003275,0.005853,-37.762992,-76.323578,-8.267667
12557,,9.629479,-1.574289,1.790752,-0.002249,-0.000020,0.005030,-37.875688,-76.305442,-8.160311
12558,,9.611791,-1.598368,1.821413,0.010185,0.007160,0.003114,-37.865466,-76.301068,-8.164809
12559,,9.588531,-1.521841,1.809410,0.012701,-0.002248,0.002440,-37.967231,-76.284261,-8.059149
12560,,9.588533,-1.521655,1.809555,0.015366,0.000810,-0.001031,-37.955474,-76.284219,-8.062185
12561,,9.642348,-1.527441,1.816641,0.011279,-0.000635,0.002723,-38.055802,-76.265963,-7.953757
12562,,9.621920,-1.501132,1.825794,0.008436,0.002593,0.003289,-38.053473,-76.263586,-7.951163
12563,,9.626961,-1.452931,1.827765,-0.005344,0.003261,0.004090,-38.153398,-76.245997,-7.853614
12564,,9.629637,-1.503646,1.849318,-0.013113,0.003655,0.003865,-38.162994,-76.242917,-7.851445
12565,,9.660409,-1.508050,1.864387,-0.021133,0.004101,0.002135,-38.246860,-76.231050,-7.776277
12566,,9.672945,-1.607664,1.853106,-0.018550,0.005613,-0.001362,-38.247285,-76.228933,-7.786718
12567,,9.641993,-1.604012,1.838365,-0.010863,0.003674,-0.001164,-38.335005,-76.214520,-7.713086
12568,,9.651824,-1.652727,1.805914,0.003746,0.004640,-0.006711,-38.314224,-76.214687,-7.732250
12569,,9.624183,-1.552531,1.848921,0.007680,0.002749,-0.001227,-38.385497,-76.202535,-7.651196
12570,,9.624135,-1.552394,1.849288,0.004925,0.002833,0.000791,-38.380633,-76.200811,-7.653233
12571,,9.637151,-1.505543,1.874375,-0.006020,0.004961,-0.000401,-38.479941,-76.180637,-7.553244
12572,,9.631888,-1.554276,1.873099,-0.013454,0.006848,0.000906,-38.480228,-76.176959,-7.560817
12573,,9.595711,-1.599269,1.856957,-0.013625,0.008445,-0.000572,-38.536285,-76.164654,-7.523272
12574,,9.618503,-1.601704,1.849427,-0.010196,0.006658,0.001900,-38.536584,-76.160735,-7.528951
12575,,9.636166,-1.652637,1.840113,0.000497,0.004583,0.001588,-38.638557,-76.133749,-7.427813
12576,,9.590203,-1.648270,1.856684,0.012441,0.002492,-0.000487,-38.627412,-76.132509,-7.431988
12577,,9.638604,-1.628042,1.841979,0.020543,0.003590,0.001273,-38.675067,-76.122183,-7.357761
12578,,9.618116,-1.601492,1.851622,0.017870,0.005219,0.003318,-38.664082,-76.118389,-7.358464
12579,,9.659347,-1.582835,1.891147,0.012027,0.003895,0.005820,-38.740856,-76.100710,-7.273075
12580,,9.646085,-1.630038,1.867059,0.008851,0.005629,0.004852,-38.737295,-76.096138,-7.271451
12581,,9.620367,-1.652487,1.874970,0.010606,0.005509,0.006103,-38.797615,-76.083584,-7.201592
12582,,9.647617,-1.678033,1.812798,0.019707,0.006642,0.004595,-38.786239,-76.078577,-7.201553
12583,,9.619973,-1.652805,1.876709,0.035583,0.002656,0.008011,-38.837654,-76.066926,-7.118364
12584,,9.617257,-1.676924,1.876695,0.041010,0.000938,0.003951,-38.821414,-76.064731,-7.110675
12585,,9.624251,-1.675616,1.823306,0.046193,-0.000970,0.007677,-38.857570,-76.059064,-7.041397
12586,,9.655682,-1.607433,1.895571,0.047526,0.000555,0.005942,-38.841881,-76.056406,-7.029210
12587,,9.653009,-1.631352,1.895510,0.044186,-0.000802,0.004922,-38.891363,-76.043880,-6.961671
12588,,9.614091,-1.625870,1.858190,0.043519,0.000659,0.009721,-38.884620,-76.039762,-6.942648
12589,,9.634293,-1.652370,1.850130,0.052708,-0.001356,0.009671,-38.944709,-76.021117,-6.855706
12590,,9.597960,-1.622816,1.813483,0.060813,-0.004947,0.012865,-38.941566,-76.018354,-6.822813
12591,,9.608466,-1.599905,1.837537,0.057804,-0.009269,0.005520,-39.001926,-76.007779,-6.728526
12592,,9.649976,-1.580447,1.876157,0.054633,-0.012221,0.005985,-39.000693,-76.010660,-6.697301
12593,,9.652706,-1.555508,1.876760,0.050867,-0.007253,0.000540,-39.043661,-76.004706,-6.619256
12594,,9.526746,-1.563711,1.816266,0.050193,-0.005566,-0.003955,-39.017713,-76.008224,-6.616080
12595,,9.527028,-1.562213,1.816076,0.048942,-0.014695,-0.008605,-39.057069,-76.009725,-6.535919
12596,,9.606843,-1.544353,1.814747,0.043682,-0.019026,-0.010914,-39.042154,-76.021777,-6.525142
12597,,9.691262,-1.624399,1.779632,0.047691,-0.014675,-0.006843,-39.097223,-76.017310,-6.436339
12598,,9.648365,-1.593864,1.795924,0.051607,-0.011660,-0.012086,-39.065380,-76.026399,-6.438283
12599,,9.638232,-1.614632,1.771881,0.053280,-0.013325,-0.010856,-39.085281,-76.028226,-6.399558
12600,,9.587418,-1.582563,1.764979,0.047104,-0.016134,-0.009871,-39.066545,-76.038435,-6.390671
12601,,9.652234,-1.564014,1.794575,0.045942,-0.019246,-0.006642,-39.108480,-76.045062,-6.316720
12602,,9.621735,-1.558873,1.778750,0.043011,-0.012880,-0.007558,-39.091627,-76.053027,-6.308265
12603,,9.558433,-1.502059,1.803667,0.033399,-0.009229,-0.010502,-39.130609,-76.054140,-6.234402
12604,,9.579145,-1.527006,1.794429,0.022209,-0.011734,-0.011759,-39.116666,-76.063156,-6.235165
12605,,9.615816,-1.555025,1.830954,0.016621,-0.013084,-0.007740,-39.163268,-76.063401,-6.177709
12606,,9.610744,-1.528183,1.807771,0.011680,-0.006557,-0.011416,-39.148270,-76.070014,-6.185811
12607,,9.644734,-1.580491,1.844349,0.004158,-0.001521,-0.011586,-39.200272,-76.064467,-6.113497
12608,,9.636993,-1.577900,1.821119,-0.003944,-0.002624,-0.013335,-39.185417,-76.069983,-6.130605
12609,,9.634670,-1.601082,1.820213,-0.006697,-0.002526,-0.011316,-39.230808,-76.070180,-6.082208
12610,,9.671187,-1.629636,1.857239,-0.012202,-0.002331,-0.007278,-39.231480,-76.073336,-6.088110
12611,,9.668780,-1.653282,1.856413,-0.007784,0.000592,-0.009517,-39.284904,-76.063499,-6.031743
12612,,9.638025,-1.648910,1.841330,-0.004606,-0.001139,-0.008542,-39.277426,-76.066495,-6.041553
12613,,9.658586,-1.674719,1.832315,0.004927,-0.006331,-0.005617,-39.322722,-76.064048,-5.985019
12614,,9.658809,-1.673922,1.831868,0.018706,-0.007010,-0.006419,-39.314200,-76.068898,-5.982155
12615,,9.646626,-1.647697,1.863440,0.023204,-0.002542,-0.008640,-39.323661,-76.075329,-5.954126
12616,,9.583125,-1.591220,1.888950,0.023204,-0.002543,-0.008640,-39.302042,-76.079111,-5.962052
12617,,9.575314,-1.588655,1.866050,0.010756,-0.000346,-0.009582,-39.323072,-76.086283,-5.922379
12618,,9.564973,-1.610287,1.842580,0.006990,-0.000075,-0.013587,-39.298528,-76.090871,-5.942769
12619,,9.583057,-1.659598,1.833424,0.008412,-0.001691,-0.013861,-39.348070,-76.085840,-5.873998
12620,,9.587760,-1.681891,1.778600,0.016272,-0.005221,-0.012167,-39.328870,-76.092102,-5.883296
12621,,9.609503,-1.708641,1.846916,0.028467,-0.007372,-0.012730,-39.363775,-76.084614,-5.829015
12622,,9.627329,-1.683473,1.816150,0.033229,-0.007626,-0.011994,-39.338843,-76.091764,-5.834228
12623,,9.658552,-1.685346,1.831044,0.041584,-0.006561,-0.008741,-39.373558,-76.084705,-5.758335
12624,,9.653375,-1.658277,1.808376,0.041850,-0.011284,-0.005779,-39.360276,-76.091167,-5.746454
12625,,9.641240,-1.631916,1.839639,0.034416,-0.009388,-0.004479,-39.391845,-76.093931,-5.686084
12626,,9.610578,-1.627297,1.824287,0.035839,-0.011005,-0.004751,-39.383523,-76.099939,-5.672603
12627,,9.623886,-1.578888,1.847972,0.034243,-0.007803,-0.005968,-39.425301,-76.094851,-5.598030
12628,,9.621664,-1.601748,1.847125,0.033320,-0.010772,-0.010517,-39.407936,-76.102810,-5.595331
12629,,9.622006,-1.599999,1.846864,0.036312,-0.006237,-0.012490,-39.442678,-76.092787,-5.532377
12630,,9.631838,-1.573386,1.792837,0.030721,-0.012087,-0.016298,-39.418647,-76.103292,-5.538082
12631,,9.640268,-1.572480,1.815501,0.034046,-0.006047,-0.016752,-39.435795,-76.109025,-5.477893
12632,,9.643611,-1.620310,1.837467,0.028464,-0.007392,-0.012726,-39.412797,-76.116202,-5.483771
12633,,9.623511,-1.592105,1.845841,0.030300,-0.005957,-0.011463,-39.422114,-76.109935,-5.470254
12634,,9.653606,-1.592439,1.783584,0.032137,-0.004522,-0.010200,-39.397223,-76.114818,-5.475988
12635,,9.638887,-1.590070,1.814900,0.026539,-0.001189,-0.007638,-39.422851,-76.108311,-5.450269
12636,,9.631016,-1.587528,1.792262,0.027867,0.000324,-0.009387,-39.395072,-76.110646,-5.461461
12637,,9.620664,-1.609257,1.769139,0.027963,-0.002807,-0.007908,-39.458851,-76.091467,-5.372862
12638,,9.594874,-1.555959,1.755348,0.026364,0.000393,-0.009130,-39.432928,-76.093443,-5.382976
12639,,9.628488,-1.533578,1.771052,0.024019,-0.000967,-0.013404,-39.425468,-76.090844,-5.387633
12640,,9.626163,-1.556491,1.770936,0.012585,0.001065,-0.008323,-39.407752,-76.092188,-5.397484
12641,,9.626222,-1.555665,1.771343,0.005485,0.004470,-0.005508,-39.459728,-76.078404,-5.321882
12642,,9.574869,-1.525043,1.765370,-0.002792,0.004936,-0.008741,-39.444778,-76.078092,-5.337906
12643,,9.592888,-1.575068,1.756802,-0.009136,0.003709,-0.009232,-39.463560,-76.079355,-5.326317
12644,,9.595459,-1.550015,1.757407,-0.010893,0.003817,-0.010481,-39.451883,-76.080199,-5.343713
12645,,9.591072,-1.525243,1.812346,-0.018170,0.008805,-0.009159,-39.480400,-76.066205,-5.343319
12646,,9.578152,-1.572204,1.788587,-0.022896,-0.000299,-0.006960,-39.488126,-76.067447,-5.347829
12647,,9.589334,-1.622556,1.833761,-0.017588,0.005758,-0.013958,-39.529381,-76.050475,-5.306041
12648,,9.587007,-1.645912,1.833402,-0.014310,0.000904,-0.011500,-39.522592,-76.052677,-5.320452
12649,,9.612588,-1.622900,1.825614,-0.009801,0.000695,-0.012270,-39.551087,-76.057528,-5.276672
12650,,9.632134,-1.646852,1.739946,-0.001955,0.001854,-0.012034,-39.535034,-76.059569,-5.293260
12651,,9.638321,-1.598687,1.818049,-0.001779,0.000270,-0.010542,-39.558691,-76.053641,-5.275402
12652,,9.647778,-1.573458,1.764522,-0.005290,0.004999,-0.005213,-39.552157,-76.051732,-5.284164
12653,,9.638433,-1.597550,1.818459,-0.011966,0.002262,-0.007225,-39.569595,-76.053182,-5.273225
12654,,9.592617,-1.592819,1.834700,-0.017899,0.004084,-0.006185,-39.569844,-76.052071,-5.282441
12655,,9.612495,-1.544801,1.804610,-0.023092,0.005953,-0.009919,-39.624059,-76.045384,-5.218853
12656,,9.671976,-1.575383,1.834168,-0.029435,0.004721,-0.010412,-39.622871,-76.045500,-5.236270
12657,,9.669563,-1.599113,1.833994,-0.032637,0.011119,-0.012853,-39.662737,-76.031462,-5.216008
12658,,9.615638,-1.593075,1.827821,-0.033477,0.014199,-0.009556,-39.651805,-76.026963,-5.245823
12659,,9.629085,-1.619474,1.874279,-0.028969,0.013993,-0.010325,-39.660232,-76.020196,-5.258524
12660,,9.661321,-1.596616,1.813351,-0.025533,0.012230,-0.007840,-39.650712,-76.015924,-5.282201
12661,,9.704935,-1.552493,1.853510,-0.029577,0.021708,-0.006980,-39.655555,-76.012333,-5.285103
12662,,9.635802,-1.546104,1.879291,-0.043357,0.022359,-0.006180,-39.644406,-76.003060,-5.320936
12663,,9.666407,-1.549660,1.895781,-0.051554,0.024363,-0.009401,-39.659012,-75.989114,-5.339302
12664,,9.599358,-1.591131,1.866740,-0.049175,0.032116,-0.015855,-39.619978,-75.979032,-5.407306
12665,,9.534742,-1.608086,1.838470,-0.047243,0.030417,-0.013115,-39.585965,-75.979555,-5.470814
12666,,9.577935,-1.636049,1.823787,-0.041715,0.025551,-0.015693,-39.552450,-75.972423,-5.528718
12667,,9.654549,-1.642934,1.824447,-0.032268,0.023518,-0.014230,-39.537640,-75.964292,-5.564117
12668,,9.725652,-1.623997,1.802740,-0.026431,0.024836,-0.016738,-39.494637,-75.957849,-5.622781
12669,,9.663641,-1.616122,1.774755,-0.029109,0.026472,-0.014704,-39.487117,-75.944096,-5.643589
12670,,9.648364,-1.614606,1.807893,-0.033367,0.026627,-0.012433,-39.453316,-75.935243,-5.696857
12671,,9.663200,-1.614660,1.778483,-0.032498,0.018875,-0.014285,-39.446400,-75.936852,-5.723646
12672,,9.660658,-1.638044,1.779455,-0.026256,0.023245,-0.015247,-39.408570,-75.930582,-5.776823
12673,,9.611420,-1.583111,1.775410,-0.030515,0.023399,-0.012977,-39.390991,-75.920162,-5.832043
12674,,9.585804,-1.604860,1.784573,-0.031264,0.023335,-0.008204,-39.368393,-75.911253,-5.872505
12675,,9.595802,-1.581872,1.809967,-0.032266,0.023313,-0.004938,-39.369002,-75.901203,-5.897058
12676,,9.610488,-1.583006,1.780543,-0.034345,0.021724,0.001576,-39.367789,-75.889460,-5.917297
12677,,9.597428,-1.558641,1.813755,-0.038105,0.021984,-0.002435,-39.381446,-75.866098,-5.952276
12678,,9.625502,-1.586830,1.829924,-0.037877,0.026618,-0.002374,-39.368306,-75.853498,-5.986968
12679,,9.643294,-1.637686,1.822533,-0.037201,0.025138,-0.007166,-39.390780,-75.855523,-5.950900
12680,,9.593905,-1.583409,1.818659,-0.034618,0.026640,-0.010664,-39.361439,-75.846063,-6.000244
12681,,9.575406,-1.604528,1.774026,-0.032713,0.029619,-0.009368,-39.332318,-75.841250,-6.043068
12682,,9.557516,-1.627949,1.806696,-0.032463,0.029573,-0.007861,-39.302370,-75.829542,-6.091779
12683,,9.622981,-1.584006,1.763315,-0.035297,0.028110,-0.005871,-39.303456,-75.819602,-6.107452
12684,,9.624902,-1.560051,1.766236,-0.046928,0.031668,-0.002300,-39.288690,-75.804970,-6.149032
12685,,9.683619,-1.592308,1.798064,-0.062897,0.033826,0.003512,-39.334875,-75.789867,-6.114388
12686,,9.673370,-1.691118,1.797487,-0.065332,0.035402,0.007053,-39.341944,-75.770230,-6.144244
12687,,9.598776,-1.735482,1.822488,-0.055509,0.041100,0.008649,-39.386078,-75.749696,-6.111915
12688,,9.592542,-1.711431,1.802722,-0.040502,0.029549,0.008980,-39.390946,-75.731986,-6.129277
12689,,9.594342,-1.688410,1.805426,-0.026013,0.022777,0.004863,-39.421539,-75.717721,-6.107709
12690,,9.642256,-1.668970,1.792199,-0.023177,0.024240,0.002879,-39.413574,-75.704582,-6.128047
12691,,9.613138,-1.569831,1.836281,-0.030033,0.027775,-0.002094,-39.431263,-75.686145,-6.131690
12692,,9.597416,-1.569739,1.869610,-0.045590,0.033188,-0.004029,-39.411600,-75.671514,-6.177341
12693,,9.601940,-1.593530,1.816902,-0.059851,0.029220,-0.004861,-39.456248,-75.645109,-6.164198
12694,,9.602033,-1.668693,1.839663,-0.063814,0.035536,-0.002499,-39.446709,-75.628770,-6.210168
12695,,9.673470,-1.725903,1.839658,-0.056962,0.031994,0.002475,-39.469734,-75.610530,-6.223833
12696,,9.656642,-1.649658,1.775280,-0.053480,0.036448,0.003563,-39.463565,-75.591573,-6.260214
12697,,9.668450,-1.604398,1.802475,-0.056989,0.031750,0.011765,-39.505060,-75.567085,-6.224997
12698,,9.644650,-1.604707,1.812453,-0.064513,0.032061,0.013015,-39.527677,-75.546611,-6.238203
12699,,9.669289,-1.584809,1.807528,-0.080467,0.034433,0.009512,-39.585578,-75.527308,-6.225345
12700,,9.634743,-1.533345,1.773413,-0.086597,0.042501,0.007641,-39.597011,-75.504198,-6.263126
12701,,9.531681,-1.550225,1.783257,-0.096836,0.038445,0.003022,-39.636210,-75.478424,-6.275623
12702,,9.513198,-1.573066,1.737867,-0.100717,0.030945,0.000357,-39.659689,-75.463037,-6.309345
12703,,9.571726,-1.603284,1.691280,-0.096339,0.022976,0.000966,-39.741536,-75.446285,-6.255760
12704,,9.653022,-1.563759,1.693378,-0.089533,0.018136,-0.003383,-39.770523,-75.437894,-6.277127
12705,,9.645203,-1.566546,1.747342,-0.097684,0.010772,-0.003808,-39.825467,-75.434239,-6.283984
12706,,9.719608,-1.599388,1.745162,-0.100640,0.006471,-0.011191,-39.863996,-75.433861,-6.302083
12707,,9.719841,-1.599557,1.743705,-0.107566,-0.002167,-0.022701,-39.913817,-75.448042,-6.301438
12708,,9.717991,-1.623087,1.740308,-0.106158,-0.009733,-0.030902,-39.945040,-75.462092,-6.330336
12709,,9.726548,-1.626882,1.837781,-0.107946,-0.010883,-0.041482,-39.969343,-75.473782,-6.381584
12710,,9.704474,-1.622238,1.842952,-0.100799,-0.009239,-0.054987,-39.955813,-75.496420,-6.453599
12711,,9.651309,-1.542003,1.890117,-0.111748,-0.017807,-0.062753,-39.989623,-75.512262,-6.494584
12712,,9.631352,-1.441013,1.953245,-0.131355,-0.018310,-0.068836,-39.982993,-75.543867,-6.577552
12713,,9.662761,-1.370397,2.022564,-0.179023,-0.011621,-0.068515,-40.005584,-75.572715,-6.663622
12714,,9.695351,-1.202385,2.074323,-0.242618,-0.001387,-0.062341,-40.049251,-75.594511,-6.760479
12715,,9.729728,-1.252369,2.030003,-0.318539,0.013981,-0.057032,-40.158981,-75.600493,-6.835396
12716,,9.740642,-1.302524,1.994229,-0.395306,0.038512,-0.049665,-40.254580,-75.600147,-6.968942
12717,,9.723701,-1.406099,2.040841,-0.430797,0.048830,-0.041844,-40.400213,-75.589378,-7.062053
12718,,9.886574,-1.572372,2.020516,-0.452335,0.051073,-0.041269,-40.524845,-75.580547,-7.199346
12719,,10.139727,-1.779356,2.119919,-0.433106,0.053892,-0.056656,-40.619009,-75.576475,-7.369566
12720,,10.266663,-1.924401,2.216400,-0.405290,0.074556,-0.061799,-40.648001,-75.565181,-7.577792
12721,,10.247350,-1.870243,2.152892,-0.378802,0.104649,-0.067785,-40.588146,-75.558512,-7.854103
12722,,10.135222,-1.634762,2.092394,-0.383339,0.127680,-0.062786,-40.526429,-75.524511,-8.143044
12723,,10.022348,-1.400412,2.035301,-0.426732,0.148569,-0.048429,-40.494105,-75.475435,-8.438211
12724,,9.848068,-1.243220,2.043653,-0.510382,0.170328,-0.024375,-40.510651,-75.408477,-8.721633
12725,,9.757474,-1.100594,2.076313,-0.618293,0.180034,0.006033,-40.636793,-75.332744,-8.945850
12726,,9.760736,-1.119838,2.110552,-0.738466,0.203962,0.034570,-40.835706,-75.229479,-9.176007
12727,,9.709063,-1.229505,2.073033,-0.827913,0.224023,0.053323,-41.059284,-75.109435,-9.454045
12728,,9.617771,-1.433132,2.006932,-0.889992,0.237440,0.061111,-41.340853,-74.982184,-9.688844
12729,,9.554738,-1.665176,1.949582,-0.903343,0.242234,0.055960,-41.620407,-74.848290,-9.937176
12730,,9.428092,-1.832942,1.841053,-0.875108,0.235477,0.041872,-41.865544,-74.729736,-10.201205
12731,,9.370545,-2.010048,1.783008,-0.804547,0.219371,0.012676,-42.051112,-74.624768,-10.495569
12732,,9.451654,-2.110856,1.822142,-0.713283,0.195564,-0.021949,-42.161542,-74.548093,-10.803433
12733,,9.619059,-2.118550,1.877598,-0.612448,0.188129,-0.048891,-42.166740,-74.484406,-11.172071
12734,,9.661014,-2.159873,1.785215,-0.522969,0.201268,-0.073737,-42.083536,-74.425228,-11.567989
12735,,9.577346,-2.124771,1.774980,-0.429823,0.206286,-0.093600,-41.933233,-74.367977,-11.989021
12736,,9.493120,-2.010075,1.757172,-0.354124,0.211292,-0.106090,-41.694496,-74.316262,-12.446201
12737,,9.525608,-1.896403,1.704722,-0.304864,0.199882,-0.116132,-41.451433,-74.276922,-12.854152
12738,,9.675355,-1.850711,1.706873,-0.273129,0.193078,-0.119977,-41.173764,-74.237243,-13.303709
12739,,9.828079,-1.856855,1.723636,-0.249628,0.190560,-0.117500,-40.912992,-74.191923,-13.729684
12740,,9.782943,-1.834211,1.676884,-0.226865,0.201733,-0.111960,-40.613673,-74.144271,-14.174399
12741,,9.588933,-1.827525,1.645402,-0.208180,0.197932,-0.110427,-40.298523,-74.102413,-14.634883
12742,,9.505899,-1.785143,1.640130,-0.186100,0.185975,-0.105570,-40.010229,-74.058044,-15.044063
12743,,9.556545,-1.875192,1.746820,-0.150205,0.160764,-0.110294,-39.752829,-74.023648,-15.391874
12744,,9.650936,-1.944661,1.740164,-0.097007,0.150800,-0.115905,-39.445811,-73.997467,-15.767570
12745,,9.640571,-1.944514,1.805630,-0.037078,0.140352,-0.117852,-39.154179,-73.971653,-16.086889
12746,,9.520202,-1.911088,1.754342,0.023169,0.132448,-0.128839,-38.783558,-73.957120,-16.457198
12747,,9.351479,-1.866750,1.796978,0.080649,0.119673,-0.136808,-38.410498,-73.954445,-16.781748
12748,,9.181316,-1.844896,1.834230,0.139654,0.106917,-0.144952,-37.980402,-73.955748,-17.144481
12749,,9.103186,-1.813468,1.924095,0.182743,0.091668,-0.155715,-37.558811,-73.969295,-17.484337
12750,,9.019743,-1.651350,1.991008,0.202462,0.085250,-0.157597,-37.098518,-73.983337,-17.840980
12751,,9.058818,-1.619237,2.045500,0.196060,0.076024,-0.157631,-36.650958,-74.010350,-18.177408
12752,,9.081932,-1.558065,1.954850,0.187264,0.080449,-0.154399,-36.208510,-74.024025,-18.524454
12753,,9.132493,-1.493473,1.960572,0.149684,0.080200,-0.146073,-35.811382,-74.038383,-18.840378
12754,,9.187610,-1.516643,1.894694,0.106127,0.083023,-0.136625,-35.440202,-74.043599,-19.161606
12755,,9.223077,-1.536716,1.938800,0.063529,0.089830,-0.120747,-35.116891,-74.044795,-19.458479
12756,,9.266004,-1.597483,1.921179,0.025895,0.096319,-0.102514,-34.832248,-74.031580,-19.737514
12757,,9.307271,-1.626844,1.988299,-0.005427,0.096362,-0.082706,-34.599957,-74.020521,-19.965971
12758,,9.315793,-1.634626,1.940229,-0.032942,0.107871,-0.070057,-34.390341,-73.990725,-20.202050
12759,,9.285987,-1.601459,1.937347,-0.057509,0.102692,-0.045528,-34.271783,-73.954552,-20.355350
12760,,9.248275,-1.589560,1.906236,-0.076207,0.103453,-0.035160,-34.150990,-73.915262,-20.524881
12761,,9.327729,-1.645646,1.931763,-0.083988,0.099315,-0.023675,-34.074450,-73.876834,-20.651302
12762,,9.384834,-1.678498,1.967984,-0.083911,0.094555,-0.022607,-33.989798,-73.837598,-20.787873
12763,,9.445229,-1.720985,1.923520,-0.075831,0.089502,-0.019557,-33.942004,-73.807551,-20.859294
12764,,9.515743,-1.696387,1.915743,-0.069710,0.083221,-0.019459,-33.867815,-73.772646,-20.976490
12765,,9.509489,-1.666651,1.903790,-0.074311,0.078148,-0.030177,-33.829111,-73.744462,-21.049803
12766,,9.492458,-1.646244,1.943968,-0.082192,0.075215,-0.030961,-33.752904,-73.716954,-21.176569
12767,,9.442191,-1.692697,1.952627,-0.081537,0.064948,-0.036722,-33.657728,-73.705403,-21.323407
12768,,9.488050,-1.757763,2.033358,-0.085637,0.054828,-0.043385,-33.585688,-73.691505,-21.447917
12769,,9.502838,-1.797929,1.997755,-0.084901,0.047630,-0.048854,-33.513554,-73.691070,-21.556875
12770,,9.563629,-1.780582,2.038595,-0.088127,0.039956,-0.049206,-33.449624,-73.686072,-21.674416
12771,,9.587343,-1.777678,2.033971,-0.097272,0.030572,-0.047403,-33.428644,-73.686873,-21.728538
12772,,9.656530,-1.866193,2.099735,-0.107045,0.020122,-0.050274,-33.395248,-73.691652,-21.825563
12773,,9.720356,-1.882472,2.052613,-0.107024,0.017319,-0.038187,-33.444183,-73.696615,-21.836919
12774,,9.703437,-1.886152,2.081459,-0.107134,0.012717,-0.038648,-33.438052,-73.701268,-21.905551
12775,,9.720559,-1.947629,2.139582,-0.098784,0.001237,-0.033212,-33.495959,-73.704628,-21.899944
12776,,9.664621,-2.013940,2.112179,-0.083754,-0.010689,-0.024071,-33.525731,-73.715819,-21.917250
12777,,9.650232,-2.118658,2.141776,-0.047390,-0.025964,-0.028947,-33.581587,-73.737846,-21.890071
12778,,9.649791,-2.208484,2.222112,0.010076,-0.035955,-0.026789,-33.580748,-73.761957,-21.883259
12779,,9.601564,-2.173037,2.316953,0.065159,-0.048372,-0.030772,-33.597189,-73.794288,-21.825948
12780,,9.559418,-2.096956,2.341375,0.111643,-0.055037,-0.029920,-33.553988,-73.828487,-21.802656
12781,,9.499045,-2.049070,2.390690,0.147175,-0.056855,-0.030207,-33.530312,-73.863093,-21.739566
12782,,9.544969,-1.965194,2.367086,0.173543,-0.060261,-0.029441,-33.458193,-73.899626,-21.709482
12783,,9.555971,-1.959184,2.491723,0.184933,-0.053036,-0.025582,-33.403969,-73.936268,-21.635983
12784,,9.648230,-1.942570,2.545587,0.185093,-0.040365,-0.013481,-33.329861,-73.958288,-21.601078
12785,,9.622296,-1.860858,2.543815,0.175963,-0.016700,-0.002132,-33.312398,-73.964111,-21.512569
12786,,9.601868,-1.785795,2.566687,0.145931,0.005037,0.014910,-33.258505,-73.955449,-21.479980
12787,,9.591377,-1.703977,2.538181,0.098507,0.027637,0.040546,-33.289530,-73.926329,-21.375345
12788,,9.589403,-1.707312,2.543394,0.049868,0.054705,0.068313,-33.325107,-73.877061,-21.306924
12789,,9.531776,-1.734237,2.535322,-0.004883,0.080237,0.096725,-33.427001,-73.809336,-21.172559
12790,,9.487247,-1.684011,2.489646,-0.053819,0.098622,0.134462,-33.581621,-73.718114,-21.041978
12791,,9.497118,-1.743026,2.459817,-0.094485,0.116111,0.164803,-33.830287,-73.610962,-20.811966
12792,,9.542092,-1.814858,2.470655,-0.128861,0.129935,0.184650,-34.070749,-73.488525,-20.636542
12793,,9.526528,-1.879935,2.448792,-0.145863,0.146391,0.207101,-34.383149,-73.347435,-20.390677
12794,,9.466688,-1.875105,2.454538,-0.158313,0.157795,0.217622,-34.655353,-73.200627,-20.199491
12795,,9.446363,-1.890168,2.420519,-0.163282,0.164602,0.226702,-34.962753,-73.050435,-19.971929
12796,,9.461550,-1.915948,2.426989,-0.168681,0.170186,0.232621,-35.242264,-72.892340,-19.778986
12797,,9.501437,-1.918491,2.432836,-0.171526,0.179299,0.233942,-35.548789,-72.725311,-19.564822
12798,,9.570491,-1.906800,2.358379,-0.174769,0.193725,0.243612,-35.814223,-72.552000,-19.389958
12799,,9.527138,-1.900469,2.338520,-0.176206,0.198466,0.256681,-36.108224,-72.372612,-19.161502
12800,,9.523566,-1.914381,2.279031,-0.183607,0.207805,0.270991,-36.394367,-72.183015,-18.969865
12801,,9.443177,-1.922979,2.214662,-0.184249,0.208415,0.278884,-36.702000,-71.992494,-18.728302
12802,,9.455042,-1.978063,2.219942,-0.181392,0.211712,0.289738,-36.998839,-71.794080,-18.523650
12803,,9.359954,-1.944431,2.194955,-0.174923,0.214278,0.292348,-37.312990,-71.592072,-18.287416
12804,,9.170777,-1.984989,2.200378,-0.162793,0.204561,0.292919,-37.600211,-71.395133,-18.081205
12805,,9.040191,-1.959077,2.231479,-0.142448,0.189326,0.285711,-37.895930,-71.211132,-17.869655
12806,,8.953955,-1.979928,2.239421,-0.116293,0.175886,0.274936,-38.152553,-71.032864,-17.667154
12807,,8.939121,-2.077684,2.236067,-0.080840,0.147873,0.267612,-38.401427,-70.876405,-17.421590
12808,,9.081817,-2.141396,2.254081,-0.032630,0.122227,0.249814,-38.624866,-70.730646,-17.203051
12809,,9.303686,-2.187306,2.283094,0.014032,0.104547,0.230046,-38.860350,-70.598555,-16.935264
12810,,9.568541,-2.357191,2.297509,0.069845,0.086668,0.209235,-39.004259,-70.482722,-16.738439
12811,,9.791172,-2.347889,2.210685,0.119652,0.075116,0.188326,-39.141686,-70.374008,-16.506638
12812,,9.941683,-2.278834,2.231908,0.151819,0.071118,0.173407,-39.206414,-70.277742,-16.343795
12813,,9.870587,-2.165187,2.262612,0.154896,0.083756,0.169869,-39.261385,-70.182999,-16.183436
12814,,9.720288,-2.013332,2.269137,0.133675,0.095198,0.170465,-39.306561,-70.077048,-16.052211
12815,,9.592355,-1.940248,2.276998,0.091769,0.092004,0.184071,-39.436344,-69.960809,-15.882798
12816,,9.551128,-1.888626,2.336645,0.042789,0.090049,0.189303,-39.559052,-69.850061,-15.724326
12817,,9.523829,-1.881986,2.356416,-0.017632,0.097233,0.199888,-39.758607,-69.731244,-15.498824
12818,,9.528984,-1.916267,2.307958,-0.073950,0.101658,0.206588,-39.953585,-69.608694,-15.334377
12819,,9.520210,-1.961728,2.310749,-0.111229,0.103277,0.204676,-40.199743,-69.484778,-15.125381
12820,,9.436641,-2.106612,2.227471,-0.132273,0.093813,0.199719,-40.423409,-69.367738,-14.965736
12821,,9.396750,-2.168075,2.205101,-0.119906,0.090082,0.187146,-40.648632,-69.261054,-14.775187
12822,,9.363232,-2.154386,2.301287,-0.095737,0.071936,0.174736,-40.840370,-69.162448,-14.627061
12823,,9.287620,-2.141562,2.430573,-0.072084,0.062488,0.154108,-41.014692,-69.084177,-14.475615
12824,,9.221954,-2.110329,2.484174,-0.045701,0.046855,0.132472,-41.152046,-69.012044,-14.354827
12825,,9.224568,-1.969018,2.472901,-0.038877,0.042844,0.111181,-41.285917,-68.953306,-14.205799
12826,,9.193474,-1.919044,2.445487,-0.047140,0.042356,0.091905,-41.381727,-68.898283,-14.130308
12827,,9.193523,-1.904535,2.453585,-0.059454,0.039765,0.078993,-41.508021,-68.856203,-14.021948
12828,,9.140850,-1.933280,2.461361,-0.070199,0.043594,0.063573,-41.583705,-68.811339,-13.982125
12829,,9.126471,-1.952400,2.411831,-0.073068,0.037131,0.053839,-41.685006,-68.773219,-13.917587
12830,,9.122001,-1.982041,2.408145,-0.079657,0.033220,0.037062,-41.746715,-68.742847,-13.898565
12831,,9.208451,-2.010333,2.359620,-0.082286,0.026682,0.014915,-41.787228,-68.732473,-13.848262
12832,,9.285186,-2.106098,2.397552,-0.076701,0.015933,-0.000869,-41.822365,-68.723999,-13.855904
12833,,9.334663,-2.139472,2.404590,-0.064959,0.011458,-0.019648,-41.835434,-68.730479,-13.829588
12834,,9.371023,-2.128275,2.450635,-0.054164,0.003058,-0.031066,-41.837116,-68.739066,-13.859259
12835,,9.348714,-2.071454,2.442474,-0.055648,-0.003240,-0.042491,-41.861908,-68.753087,-13.879533
12836,,9.349834,-2.068541,2.440654,-0.061413,-0.009769,-0.050403,-41.859193,-68.774522,-13.918407
12837,,9.377141,-2.096262,2.450328,-0.073309,-0.019340,-0.056491,-41.864152,-68.806608,-13.891614
12838,,9.475531,-2.181399,2.455425,-0.075333,-0.025197,-0.058531,-41.875530,-68.837750,-13.923911
12839,,9.496004,-2.225970,2.434926,-0.076414,-0.027110,-0.067927,-41.933268,-68.879509,-13.909471
12840,,9.481457,-2.254921,2.476611,-0.062241,-0.032711,-0.077839,-41.923443,-68.921268,-13.956417
12841,,9.440509,-2.357992,2.529626,-0.042210,-0.043050,-0.088953,-41.908696,-68.979555,-13.941355
12842,,9.436758,-2.396008,2.616902,-0.009723,-0.052401,-0.099730,-41.863740,-69.038102,-13.993639
12843,,9.353346,-2.309754,2.649666,0.018418,-0.060275,-0.108327,-41.810313,-69.109520,-14.003294
12844,,9.329813,-2.266355,2.735538,0.025781,-0.066441,-0.123785,-41.731441,-69.183228,-14.070043
12845,,9.386933,-2.262388,2.742447,0.026680,-0.065736,-0.129980,-41.656152,-69.258674,-14.131359
12846,,9.394033,-2.278661,2.754839,0.019721,-0.056459,-0.140476,-41.550740,-69.334372,-14.230157
12847,,9.364986,-2.358382,2.733223,0.013757,-0.053266,-0.139440,-41.473040,-69.411415,-14.256217
12848,,9.340927,-2.391088,2.723112,0.012530,-0.047149,-0.138562,-41.363221,-69.482275,-14.364026
12849,,9.290616,-2.446488,2.713246,0.015962,-0.046089,-0.135709,-41.274677,-69.555679,-14.444556
12850,,9.295351,-2.486620,2.721495,0.030087,-0.048519,-0.132897,-41.161380,-69.624865,-14.545243
12851,,9.278697,-2.501932,2.741114,0.044675,-0.045034,-0.127881,-41.115744,-69.686665,-14.575523
12852,,9.290506,-2.470971,2.766701,0.049169,-0.046673,-0.128567,-40.993812,-69.753286,-14.673725
12853,,9.390485,-2.514899,2.754183,0.058231,-0.045180,-0.130927,-40.884538,-69.821051,-14.735742
12854,,9.423608,-2.508211,2.769597,0.059367,-0.035271,-0.123677,-40.749569,-69.880747,-14.841540
12855,,9.493792,-2.492084,2.728813,0.056558,-0.022658,-0.124954,-40.622703,-69.941520,-14.926356
12856,,9.440218,-2.518686,2.705250,0.053036,-0.014168,-0.117366,-40.476027,-69.989527,-15.048383
12857,,9.388517,-2.522488,2.687903,0.049351,-0.005493,-0.111288,-40.343143,-70.029753,-15.148685
12858,,9.365321,-2.533873,2.688930,0.045754,0.001475,-0.103878,-40.199799,-70.065706,-15.271573
12859,,9.331665,-2.534488,2.644054,0.041857,0.005580,-0.098321,-40.090674,-70.103558,-15.348463
12860,,9.331655,-2.548433,2.640492,0.046466,0.010155,-0.085921,-39.959109,-70.128922,-15.458324
12861,,9.353082,-2.587671,2.626367,0.048471,0.009576,-0.081570,-39.840707,-70.154015,-15.503325
12862,,9.400257,-2.604709,2.612293,0.052877,0.009590,-0.069685,-39.725296,-70.173517,-15.592082
12863,,9.370666,-2.614154,2.591931,0.060020,0.017899,-0.063322,-39.593343,-70.188393,-15.659654
12864,,9.341900,-2.547093,2.565207,0.071475,0.020035,-0.058156,-39.470385,-70.198947,-15.745093
12865,,9.322059,-2.568550,2.592265,0.075072,0.020963,-0.053807,-39.380167,-70.203676,-15.818712
12866,,9.339465,-2.580774,2.562247,0.083666,0.019753,-0.045621,-39.265889,-70.209671,-15.887543
12867,,9.375935,-2.562871,2.613079,0.095534,0.027822,-0.038273,-39.162827,-70.213103,-15.876338
12868,,9.342099,-2.545052,2.577285,0.101039,0.029900,-0.030912,-39.046534,-70.209196,-15.936719
12869,,9.362643,-2.511385,2.559636,0.111569,0.034600,-0.020715,-38.956226,-70.203455,-15.972199
12870,,9.372645,-2.467689,2.495925,0.106933,0.037863,-0.007469,-38.857783,-70.187504,-16.010021
12871,,9.397475,-2.441839,2.502246,0.114565,0.042450,0.004576,-38.802918,-70.166346,-15.992217
12872,,9.416869,-2.411470,2.485770,0.107981,0.047801,0.013627,-38.720432,-70.138354,-16.012460
12873,,9.391398,-2.409529,2.498496,0.108865,0.053199,0.020316,-38.689041,-70.107038,-15.986594
12874,,9.364653,-2.355124,2.498554,0.106410,0.055777,0.025508,-38.614642,-70.071212,-15.999217
12875,,9.354507,-2.320479,2.465103,0.105606,0.061380,0.030853,-38.515597,-70.039420,-15.977864
12876,,9.265880,-2.275430,2.528253,0.106642,0.066615,0.039044,-38.447320,-69.993934,-15.983789
12877,,9.261239,-2.300518,2.531629,0.101097,0.064511,0.045592,-38.397295,-69.950974,-15.935996
12878,,9.281439,-2.250044,2.521595,0.102585,0.067694,0.044238,-38.336935,-69.903168,-15.935957
12879,,9.323373,-2.224644,2.501396,0.101897,0.068393,0.052112,-38.321425,-69.848832,-15.821541
12880,,9.363198,-2.223638,2.476244,0.095850,0.070027,0.052937,-38.273577,-69.796870,-15.812319
12881,,9.409958,-2.204491,2.479431,0.086753,0.071724,0.054091,-38.262001,-69.746369,-15.736292
12882,,9.456728,-2.185533,2.482580,0.080333,0.072173,0.051734,-38.219701,-69.693878,-15.730628
12883,,9.501463,-2.190523,2.480718,0.074224,0.072290,0.052394,-38.199561,-69.644721,-15.728068
12884,,9.471893,-2.163557,2.476060,0.067940,0.075792,0.050344,-38.159395,-69.591106,-15.727700
12885,,9.389776,-2.129431,2.458465,0.063641,0.078766,0.052656,-38.144464,-69.541030,-15.688322
12886,,9.336489,-2.101390,2.458609,0.053239,0.072324,0.043798,-38.108298,-69.491316,-15.692660
12887,,9.262264,-2.101165,2.481614,0.055015,0.067216,0.047705,-38.054715,-69.445673,-15.679783
12888,,9.269222,-2.089652,2.413503,0.046881,0.063134,0.045030,-38.032383,-69.399681,-15.673222
12889,,9.262120,-2.087373,2.396620,0.047918,0.055636,0.042591,-38.047945,-69.357986,-15.632485
12890,,9.236169,-2.088881,2.407518,0.048805,0.048303,0.038642,-38.030846,-69.320937,-15.619177
12891,,9.279938,-2.117039,2.397672,0.054202,0.039340,0.034062,-38.049438,-69.290426,-15.552248
12892,,9.347902,-2.145641,2.382136,0.068683,0.028640,0.028374,-38.027126,-69.265874,-15.532352
12893,,9.346780,-2.146085,2.386136,0.087725,0.021041,0.021006,-38.029628,-69.250590,-15.478770
12894,,9.302989,-2.148194,2.423313,0.105092,0.013633,0.012293,-37.981396,-69.238497,-15.464291
12895,,9.285599,-2.126487,2.459570,0.121105,-0.000332,0.007675,-37.980359,-69.240006,-15.382640
12896,,9.287782,-2.099757,2.466645,0.133742,-0.007487,-0.002060,-37.918432,-69.242535,-15.365254
12897,,9.299317,-2.029333,2.505980,0.137374,-0.014593,-0.009324,-37.841741,-69.254589,-15.332985
12898,,9.254362,-1.998666,2.522054,0.130603,-0.015347,-0.014876,-37.773503,-69.265205,-15.324261
12899,,9.274305,-1.990088,2.494427,0.122253,-0.020801,-0.019199,-37.708779,-69.280593,-15.302508
12900,,9.321356,-2.063830,2.494252,0.119773,-0.024565,-0.027031,-37.640617,-69.299652,-15.300350
12901,,9.377587,-2.093959,2.526871,0.126926,-0.021083,-0.033582,-37.574937,-69.325591,-15.264638
12902,,9.348231,-2.105110,2.504445,0.129167,-0.025124,-0.040377,-37.485746,-69.349584,-15.279191
12903,,9.282952,-2.099053,2.543555,0.137705,-0.024739,-0.047378,-37.386344,-69.383881,-15.303181
12904,,9.330352,-2.117207,2.529026,0.135404,-0.035090,-0.051232,-37.289361,-69.416197,-15.322209
12905,,9.339164,-2.089714,2.556691,0.136750,-0.031783,-0.054130,-37.199192,-69.451541,-15.318385
12906,,9.330914,-2.041998,2.617307,0.126372,-0.031842,-0.049981,-37.105594,-69.481929,-15.339321
12907,,9.325923,-2.053350,2.588940,0.112346,-0.031230,-0.051557,-37.025837,-69.517393,-15.313139
12908,,9.376141,-2.100709,2.592764,0.097101,-0.030882,-0.049948,-36.947857,-69.547323,-15.335287
12909,,9.345097,-2.136101,2.564970,0.090428,-0.026869,-0.041170,-36.881211,-69.572796,-15.304371
12910,,9.354218,-2.163018,2.607231,0.094971,-0.023781,-0.042891,-36.806301,-69.597023,-15.324549
12911,,9.346823,-2.199995,2.575064,0.097009,-0.022733,-0.038378,-36.777605,-69.624639,-15.312637
12912,,9.372140,-2.194909,2.569899,0.106169,-0.026148,-0.038101,-36.704362,-69.648314,-15.324197
12913,,9.331989,-2.114574,2.592735,0.107838,-0.026334,-0.036748,-36.662438,-69.674042,-15.353983
12914,,9.326673,-2.127578,2.564750,0.102588,-0.027190,-0.042444,-36.586753,-69.699673,-15.370355
12915,,9.316106,-2.105112,2.620620,0.093443,-0.026989,-0.041471,-36.551452,-69.732698,-15.356629
12916,,9.329853,-2.114925,2.563650,0.079271,-0.026259,-0.044549,-36.485567,-69.758634,-15.376782
12917,,9.315369,-2.140693,2.610774,0.068452,-0.025882,-0.044926,-36.468347,-69.788035,-15.342709
12918,,9.315005,-2.158817,2.605706,0.062419,-0.024223,-0.044145,-36.410727,-69.812893,-15.364353
12919,,9.266840,-2.175271,2.611067,0.060110,-0.021665,-0.037509,-36.374358,-69.838151,-15.268817
12920,,9.290112,-2.195363,2.601018,0.058677,-0.023301,-0.035963,-36.328175,-69.859806,-15.280550
12921,,9.283610,-2.157970,2.557189,0.059292,-0.023861,-0.029913,-36.287841,-69.883213,-15.284446
12922,,9.348507,-2.124298,2.497674,0.053446,-0.025535,-0.026364,-36.258693,-69.902648,-15.281224
12923,,9.308781,-2.099223,2.534298,0.044988,-0.024364,-0.019208,-36.228496,-69.922647,-15.250164
12924,,9.313575,-2.048572,2.541189,0.034666,-0.019689,-0.016168,-36.217465,-69.935938,-15.239101
12925,,9.288681,-2.069107,2.541080,0.028204,-0.020810,-0.018667,-36.200310,-69.953855,-15.162223
12926,,9.235020,-2.084474,2.522548,0.022484,-0.019426,-0.014861,-36.197608,-69.966594,-15.149717
12927,,9.226120,-2.073380,2.474001,0.019691,-0.023017,-0.025666,-36.201041,-69.991766,-15.075710
12928,,9.261008,-2.080021,2.513990,0.019102,-0.025663,-0.030458,-36.186302,-70.012690,-15.078061
12929,,9.303886,-2.021990,2.462712,0.009463,-0.021866,-0.035269,-36.212221,-70.037831,-15.042882
12930,,9.276347,-2.013463,2.442321,-0.018255,-0.021014,-0.035339,-36.208487,-70.058270,-15.056312
12931,,9.286312,-1.967308,2.471301,-0.050698,-0.019935,-0.036426,-36.261481,-70.082803,-15.071863
12932,,9.414613,-2.003581,2.485121,-0.091690,-0.016031,-0.031729,-36.299930,-70.099732,-15.085193
12933,,9.476970,-1.998049,2.419216,-0.125575,-0.006842,-0.019611,-36.396727,-70.116882,-15.084788
12934,,9.453418,-1.999355,2.421464,-0.165439,0.005508,-0.006566,-36.489439,-70.115360,-15.085339
12935,,9.369857,-2.016072,2.383288,-0.208417,0.016368,0.006689,-36.631615,-70.104543,-15.040868
12936,,9.290826,-2.039309,2.368381,-0.231338,0.017080,0.023071,-36.788756,-70.087550,-15.013077
12937,,9.298158,-2.111216,2.300025,-0.241206,0.013345,0.033035,-37.000977,-70.075797,-14.925317
12938,,9.298288,-2.172706,2.310756,-0.237428,0.007802,0.041377,-37.193254,-70.056676,-14.863856
12939,,9.347848,-2.212765,2.314991,-0.221185,0.004920,0.050181,-37.423170,-70.037081,-14.771837
12940,,9.319816,-2.192924,2.296585,-0.199398,-0.003901,0.054742,-37.621194,-70.018456,-14.681092
12941,,9.325673,-2.183330,2.319469,-0.173157,-0.015868,0.058517,-37.840384,-70.004911,-14.535542
12942,,9.352577,-2.145955,2.317592,-0.160786,-0.027418,0.062253,-38.047907,-69.994037,-14.411151
12943,,9.365753,-2.117191,2.367457,-0.148732,-0.030729,0.060648,-38.247052,-69.990511,-14.238626
12944,,9.319568,-2.100351,2.376503,-0.141343,-0.032267,0.058169,-38.442795,-69.982985,-14.114892
12945,,9.211071,-2.066191,2.325786,-0.134455,-0.038072,0.052231,-38.673185,-69.983602,-13.944376
12946,,9.128570,-2.137596,2.297661,-0.124333,-0.047301,0.048682,-38.862305,-69.985890,-13.817337
12947,,9.133824,-2.149406,2.313572,-0.111668,-0.060854,0.041329,-39.090982,-69.999641,-13.620409
12948,,9.181101,-2.233648,2.303996,-0.088431,-0.072937,0.031432,-39.264305,-70.019252,-13.488333
12949,,9.235934,-2.297654,2.321412,-0.063772,-0.091312,0.022268,-39.452649,-70.055188,-13.296907
12950,,9.293349,-2.336375,2.342764,-0.037300,-0.098874,0.012452,-39.600441,-70.092922,-13.160883
12951,,9.305777,-2.347634,2.379083,-0.009729,-0.112412,0.000345,-39.747900,-70.142578,-12.961691
12952,,9.311685,-2.376533,2.386392,0.006472,-0.129714,-0.001657,-39.886003,-70.198825,-12.809403
12953,,9.314977,-2.375692,2.374350,0.027150,-0.137475,-0.007814,-40.049561,-70.262847,-12.595935
12954,,9.277108,-2.430098,2.410052,0.040947,-0.147407,-0.005725,-40.183075,-70.328081,-12.427683
12955,,9.262241,-2.432662,2.426013,0.053514,-0.154416,-0.001663,-40.374096,-70.396886,-12.203277
12956,,9.292942,-2.461136,2.425948,0.066082,-0.161427,0.002393,-40.520227,-70.464888,-12.006524
12957,,9.317841,-2.479850,2.505651,0.080338,-0.168630,0.007775,-40.706038,-70.536327,-11.789089
12958,,9.483361,-2.528271,2.547070,0.100621,-0.169538,0.010010,-40.853000,-70.604615,-11.570664
12959,,9.557016,-2.471877,2.606770,0.118458,-0.156636,0.013898,-41.021919,-70.668039,-11.290618
12960,,9.461192,-2.384735,2.585477,0.118129,-0.137077,0.018985,-41.137574,-70.718551,-11.094919
12961,,9.376687,-2.360690,2.626666,0.114732,-0.122184,0.025497,-41.302497,-70.766003,-10.923049
12962,,9.313165,-2.367836,2.555483,0.111892,-0.110960,0.037753,-41.418313,-70.797875,-10.731087
12963,,9.290891,-2.373662,2.450453,0.107577,-0.102903,0.051411,-41.583532,-70.818896,-10.437357
12964,,9.333903,-2.373991,2.408544,0.097081,-0.100967,0.066742,-41.733613,-70.835111,-10.218188
12965,,9.432725,-2.411471,2.396845,0.093231,-0.104698,0.074561,-41.933866,-70.849683,-9.985897
12966,,9.517479,-2.406102,2.422911,0.090500,-0.099861,0.089260,-42.114793,-70.856326,-9.738135
12967,,9.438588,-2.369358,2.494591,0.083989,-0.093009,0.084522,-42.329485,-70.861622,-9.520033
12968,,9.406538,-2.340473,2.451153,0.073936,-0.096781,0.079187,-42.504616,-70.870291,-9.288506
12969,,9.455601,-2.400178,2.446467,0.072946,-0.099457,0.058972,-42.721879,-70.887756,-8.995445
12970,,9.504008,-2.405604,2.427446,0.075927,-0.090284,0.042497,-42.844758,-70.907485,-8.818085
12971,,9.419808,-2.365246,2.373479,0.079154,-0.079736,0.027662,-42.961592,-70.926736,-8.627129
12972,,9.317674,-2.327177,2.349424,0.081124,-0.078927,0.018233,-43.039889,-70.950959,-8.493860
12973,,9.305623,-2.341156,2.292938,0.080005,-0.082779,0.010284,-43.160404,-70.976844,-8.345957
12974,,9.415546,-2.330754,2.313637,0.070297,-0.086841,0.008002,-43.242275,-71.008219,-8.215555
12975,,9.490521,-2.309973,2.293412,0.063094,-0.082207,0.010864,-43.348565,-71.039003,-8.039265
12976,,9.527159,-2.320244,2.327494,0.052269,-0.081784,0.010690,-43.439007,-71.067078,-7.910777
12977,,9.654895,-2.307367,2.318274,0.045070,-0.077145,0.013555,-43.602542,-71.082891,-7.734428
12978,,9.731385,-2.392971,2.327914,0.040011,-0.071454,0.020888,-43.701282,-71.102428,-7.604697
12979,,9.668268,-2.447553,2.378820,0.048891,-0.064744,0.028134,-43.820332,-71.115238,-7.429628
12980,,9.628174,-2.434042,2.310264,0.066588,-0.064401,0.033693,-43.911592,-71.126615,-7.291756
12981,,9.589821,-2.413620,2.345431,0.086807,-0.066915,0.035581,-44.013754,-71.137264,-7.179716
12982,,9.571636,-2.365995,2.355765,0.100281,-0.063539,0.043481,-44.096796,-71.144233,-7.030172
12983,,9.590894,-2.305144,2.411126,0.108650,-0.059604,0.047430,-44.231013,-71.149468,-6.817824
12984,,9.557027,-2.236958,2.456383,0.099643,-0.041945,0.043977,-44.290025,-71.147209,-6.694084
12985,,9.516104,-2.112254,2.464311,0.071630,-0.024288,0.049084,-44.359635,-71.135089,-6.567626
12986,,9.485991,-2.110050,2.446787,0.036137,-0.008071,0.056543,-44.430199,-71.113828,-6.470131
12987,,9.502490,-2.112060,2.417888,-0.001263,0.011692,0.059921,-44.525069,-71.082462,-6.400536
12988,,9.472093,-2.165078,2.417424,-0.035123,0.026214,0.068564,-44.610127,-71.042273,-6.330868
12989,,9.458093,-2.164208,2.372999,-0.065680,0.042038,0.078453,-44.722801,-70.993578,-6.242699
12990,,9.441755,-2.241297,2.340405,-0.085296,0.052523,0.091128,-44.831675,-70.933506,-6.178215
12991,,9.453506,-2.273374,2.310357,-0.102160,0.064731,0.100526,-44.957520,-70.863587,-6.117330
12992,,9.388175,-2.297818,2.276140,-0.110521,0.075975,0.116506,-45.081878,-70.783638,-6.051721
12993,,9.352911,-2.365033,2.175450,-0.111979,0.081145,0.127987,-45.238572,-70.695897,-5.964200
12994,,9.353640,-2.384632,2.203750,-0.104212,0.081132,0.140941,-45.379684,-70.603804,-5.876956
12995,,9.310751,-2.413452,2.164318,-0.098246,0.082981,0.151204,-45.533037,-70.508968,-5.811508
12996,,9.304956,-2.377335,2.154973,-0.092821,0.085267,0.156942,-45.678716,-70.408522,-5.712397
12997,,9.256208,-2.349125,2.077481,-0.093803,0.078049,0.151754,-45.821799,-70.320531,-5.618139
12998,,9.245506,-2.360134,2.059069,-0.096046,0.075475,0.147156,-45.967286,-70.227875,-5.521065
12999,,9.203150,-2.387721,2.018611,-0.096216,0.068824,0.135730,-46.132178,-70.141443,-5.391981
13000,,9.143215,-2.416900,2.006705,-0.098782,0.063003,0.116941,-46.258245,-70.066051,-5.317144
13001,,9.157434,-2.477970,1.994922,-0.089628,0.049120,0.095951,-46.376314,-70.008411,-5.236629
13002,,9.098762,-2.555086,1.995651,-0.064358,0.033580,0.068213,-46.462084,-69.964777,-5.183632
13003,,9.080383,-2.546566,1.926424,-0.045097,0.010163,0.045064,-46.549292,-69.943399,-5.107495
13004,,9.132262,-2.558640,1.936975,-0.018052,-0.010472,0.021245,-46.607636,-69.936620,-5.055436
13005,,9.114263,-2.562962,1.964150,0.000133,-0.029399,0.000200,-46.664370,-69.947263,-4.962012
13006,,9.149738,-2.625856,2.015884,0.031724,-0.053414,-0.022961,-46.695666,-69.975763,-4.908401
13007,,9.219584,-2.651710,1.989174,0.061216,-0.069814,-0.028122,-46.748430,-70.016047,-4.791916
13008,,9.253999,-2.629944,2.005770,0.084021,-0.080631,-0.039663,-46.763365,-70.062186,-4.723865
13009,,9.268015,-2.633875,2.046622,0.108945,-0.096870,-0.044259,-46.802735,-70.119719,-4.591332
13010,,9.358965,-2.594542,2.077228,0.123765,-0.106764,-0.045467,-46.819399,-70.178518,-4.497283
13011,,9.452970,-2.583280,2.126000,0.127502,-0.114286,-0.049728,-46.872699,-70.237780,-4.383525
13012,,9.520725,-2.541370,2.161523,0.125166,-0.108383,-0.045781,-46.890975,-70.297290,-4.287017
13013,,9.528930,-2.504033,2.262146,0.113449,-0.100314,-0.043566,-46.954046,-70.349900,-4.243438
13014,,9.514256,-2.448200,2.270000,0.092619,-0.091912,-0.040190,-46.978672,-70.400567,-4.160090
13015,,9.546425,-2.449380,2.280687,0.072426,-0.085633,-0.030903,-47.029595,-70.442988,-4.050222
13016,,9.563249,-2.430788,2.325180,0.048926,-0.074205,-0.025358,-47.075253,-70.480473,-3.971185
13017,,9.603832,-2.450671,2.279895,0.029286,-0.061947,-0.014032,-47.159417,-70.507412,-3.843070
13018,,9.587552,-2.452246,2.304498,0.012505,-0.049648,-0.004604,-47.220164,-70.526545,-3.770209
13019,,9.585736,-2.476021,2.296318,0.001896,-0.039243,0.005422,-47.290220,-70.544294,-3.688982
13020,,9.592014,-2.481753,2.316385,0.000858,-0.027930,0.017418,-47.356183,-70.545679,-3.617671
13021,,9.544861,-2.480405,2.326802,0.002767,-0.015049,0.027641,-47.442451,-70.536534,-3.457124
13022,,9.465022,-2.444717,2.301978,0.005196,-0.009429,0.032491,-47.500359,-70.524325,-3.391729
13023,,9.455537,-2.414720,2.259199,-0.004619,0.001518,0.036286,-47.548940,-70.507435,-3.373203
13024,,9.386807,-2.388985,2.282315,-0.009273,0.009778,0.032997,-47.592550,-70.487552,-3.331769
13025,,9.344463,-2.393315,2.318968,-0.012498,0.016452,0.029381,-47.655126,-70.464396,-3.265613
13026,,9.273204,-2.373712,2.239811,-0.019583,0.022302,0.019992,-47.675455,-70.445157,-3.255163
13027,,9.213707,-2.362527,2.207405,-0.024177,0.025280,0.006931,-47.694387,-70.434302,-3.247944
13028,,9.228050,-2.384110,2.175494,-0.033690,0.025516,-0.007311,-47.689335,-70.425403,-3.273009
13029,,9.292804,-2.488998,2.165111,-0.037401,0.024149,-0.023978,-47.688038,-70.422004,-3.254885
13030,,9.313629,-2.512550,2.156599,-0.029295,0.032655,-0.036576,-47.640275,-70.422734,-3.322627
13031,,9.270219,-2.517537,2.091264,-0.023586,0.032730,-0.040377,-47.633111,-70.424078,-3.415113
13032,,9.259328,-2.556705,2.062005,-0.016109,0.027325,-0.052641,-47.566790,-70.433634,-3.494557
13033,,9.330871,-2.557170,2.045410,-0.008875,0.020932,-0.054142,-47.506626,-70.446325,-3.561982
13034,,9.346751,-2.573260,2.013824,-0.003688,0.025057,-0.051314,-47.437177,-70.456138,-3.637194
13035,,9.397349,-2.495635,1.992843,-0.006634,0.023484,-0.049546,-47.377806,-70.472170,-3.771468
13036,,9.389484,-2.510680,1.967488,-0.016547,0.026467,-0.043389,-47.322575,-70.478060,-3.839401
13037,,9.422205,-2.542410,2.005640,-0.032627,0.028130,-0.036587,-47.295520,-70.481176,-3.842432
13038,,9.413944,-2.559091,1.980259,-0.036290,0.033956,-0.030947,-47.256338,-70.478890,-3.905345
13039,,9.461087,-2.560799,1.970069,-0.042708,0.031638,-0.019541,-47.254711,-70.471857,-3.966169
13040,,9.428529,-2.525499,1.935737,-0.047070,0.032025,-0.005048,-47.252477,-70.459412,-3.996456
13041,,9.410173,-2.582178,1.981907,-0.051622,0.035767,0.006693,-47.304515,-70.435132,-4.005774
13042,,9.420388,-2.541349,2.015495,-0.053487,0.033284,0.017513,-47.329253,-70.412687,-4.011379
13043,,9.410675,-2.563721,1.989786,-0.055179,0.033857,0.028599,-47.395351,-70.386905,-3.960726
13044,,9.384458,-2.478569,2.067220,-0.063852,0.035392,0.032913,-47.440252,-70.357154,-3.951242
13045,,9.353671,-2.476739,2.051456,-0.074577,0.031014,0.035370,-47.524124,-70.323732,-3.910703
13046,,9.357962,-2.538644,2.090655,-0.078433,0.036617,0.027108,-47.569503,-70.295939,-3.909608
13047,,9.356584,-2.542750,2.091831,-0.075749,0.030392,0.026181,-47.638822,-70.274012,-3.949135
13048,,9.326192,-2.592390,2.090401,-0.064219,0.032113,0.018743,-47.672272,-70.251504,-3.952073
13049,,9.312847,-2.550546,2.129437,-0.053127,0.022981,0.011856,-47.724355,-70.234736,-3.885347
13050,,9.306583,-2.600149,2.121451,-0.041590,0.018283,0.006890,-47.748410,-70.222583,-3.884505
13051,,9.314510,-2.582401,2.149733,-0.031395,0.016697,0.002391,-47.783812,-70.213979,-3.912219
13052,,9.319786,-2.587953,2.173703,-0.021109,0.013428,-0.000737,-47.793715,-70.206932,-3.913962
13053,,9.375225,-2.572244,2.189982,-0.019137,0.014257,-0.010175,-47.807935,-70.205729,-3.909988
13054,,9.351602,-2.570093,2.196743,-0.017616,0.010991,-0.009134,-47.809761,-70.203190,-3.918198
13055,,9.380786,-2.576049,2.214763,-0.008318,0.013735,-0.010006,-47.799750,-70.203852,-3.967079
13056,,9.378080,-2.598974,2.211145,-0.012244,0.008193,-0.014706,-47.795823,-70.204763,-3.978138
13057,,9.399071,-2.623166,2.201522,-0.007687,0.014462,-0.017743,-47.786693,-70.205376,-4.012359
13058,,9.381209,-2.572108,2.217553,-0.003482,0.014619,-0.021335,-47.763085,-70.206625,-4.039011
13059,,9.349546,-2.640024,2.211780,0.002599,0.014412,-0.022099,-47.747123,-70.212644,-4.026387
13060,,9.381928,-2.672953,2.249305,0.017627,0.010840,-0.024287,-47.712715,-70.216606,-4.051665
13061,,9.373888,-2.636600,2.208634,0.020758,0.009053,-0.023299,-47.719838,-70.222089,-4.071431
13062,,9.377016,-2.609996,2.214667,0.031751,0.011595,-0.022848,-47.678079,-70.225146,-4.095936
13063,,9.400956,-2.608722,2.210619,0.030139,0.013329,-0.024028,-47.639728,-70.225946,-4.101416
13064,,9.380336,-2.580615,2.223044,0.026196,0.014545,-0.018790,-47.602027,-70.226128,-4.125006
13065,,9.404061,-2.579936,2.219180,0.023328,0.017703,-0.018132,-47.581110,-70.222003,-4.169274
13066,,9.366596,-2.590277,2.176623,0.012504,0.021423,-0.019542,-47.542404,-70.219826,-4.202292
13067,,9.395815,-2.594714,2.196204,0.012680,0.021268,-0.018033,-47.538817,-70.215606,-4.214729
13068,,9.366797,-2.638769,2.195879,0.015544,0.021321,-0.019922,-47.498181,-70.213615,-4.247968
13069,,9.337595,-2.630119,2.181288,0.028408,0.023512,-0.016638,-47.488486,-70.210195,-4.251340
13070,,9.343052,-2.632969,2.207476,0.035109,0.021166,-0.011496,-47.446003,-70.204697,-4.274643
13071,,9.348006,-2.531070,2.204566,0.031333,0.025440,-0.005987,-47.412476,-70.196819,-4.296314
13072,,9.265421,-2.515740,2.179523,0.024857,0.035931,0.000446,-47.371487,-70.180551,-4.324285
13073,,9.297963,-2.533062,2.120579,0.011786,0.037452,0.006812,-47.357794,-70.158932,-4.363650
13074,,9.370622,-2.567339,2.125347,0.004886,0.037091,0.013794,-47.341369,-70.136574,-4.377697
13075,,9.445729,-2.578647,2.134493,-0.001584,0.041162,0.022695,-47.351526,-70.114000,-4.366171
13076,,9.391271,-2.520428,2.112473,-0.010191,0.047426,0.025880,-47.344745,-70.082550,-4.379158
13077,,9.365943,-2.521740,2.122457,-0.014316,0.045588,0.030837,-47.360219,-70.049132,-4.387926
13078,,9.335153,-2.518401,2.108693,-0.016356,0.039678,0.028967,-47.369298,-70.019386,-4.387816
13079,,9.349025,-2.541943,2.078555,-0.007234,0.039369,0.027845,-47.412684,-69.988702,-4.402463
13080,,9.332161,-2.523984,2.115250,0.003240,0.029531,0.028734,-47.422063,-69.962980,-4.390105
13081,,9.312716,-2.529524,2.147311,0.011930,0.027999,0.024458,-47.463252,-69.935834,-4.379335
13082,,9.308843,-2.449986,2.116627,0.017580,0.026570,0.020556,-47.459184,-69.914695,-4.372567
13083,,9.299639,-2.418009,2.077043,0.017492,0.021831,0.021655,-47.486672,-69.894021,-4.343898
13084,,9.312374,-2.405359,2.130268,0.015452,0.019134,0.018548,-47.490294,-69.876604,-4.330254
13085,,9.335193,-2.408359,2.126471,0.005810,0.019908,0.015133,-47.504790,-69.863388,-4.290237
13086,,9.381754,-2.360391,2.102037,0.001075,0.020218,0.014180,-47.510769,-69.847404,-4.282859
13087,,9.383675,-2.390504,2.122847,-0.000361,0.018589,0.015739,-47.532732,-69.834781,-4.285264
13088,,9.372030,-2.382416,2.077897,-0.007965,0.018853,0.016666,-47.548065,-69.818279,-4.273446
13089,,9.402969,-2.419436,2.115873,-0.011007,0.018958,0.017037,-47.578470,-69.804055,-4.243349
13090,,9.375932,-2.390792,2.104006,-0.016175,0.014840,0.014162,-47.600458,-69.790166,-4.229457
13091,,9.430803,-2.376729,2.120818,-0.016522,0.011937,0.012378,-47.664281,-69.776297,-4.179168
13092,,9.430214,-2.430681,2.136012,-0.012393,0.007348,0.009901,-47.688281,-69.767089,-4.160839
13093,,9.421944,-2.397734,2.093944,-0.015547,0.004049,-0.002407,-47.716101,-69.768178,-4.106513
13094,,9.401030,-2.372285,2.104181,-0.010814,0.003736,-0.001451,-47.731473,-69.765180,-4.096420
13095,,9.351023,-2.392737,2.111361,-0.016153,-0.000226,-0.005839,-47.761295,-69.765583,-4.054073
13096,,9.385739,-2.403583,2.151684,-0.015576,-0.001036,-0.013712,-47.772090,-69.769621,-4.051776
13097,,9.398895,-2.394612,2.098763,-0.015405,-0.001191,-0.012202,-47.808912,-69.774080,-4.035030
13098,,9.383747,-2.373059,2.131836,-0.018702,0.000751,-0.014714,-47.818459,-69.777856,-4.035985
13099,,9.331431,-2.363733,2.119746,-0.023867,-0.000155,-0.018827,-47.824841,-69.787402,-4.076937
13100,,9.329214,-2.386294,2.114486,-0.035289,-0.003908,-0.022477,-47.841142,-69.796274,-4.080831
13101,,9.400781,-2.389734,2.095873,-0.038673,-0.000285,-0.026359,-47.872171,-69.806913,-4.082912
13102,,9.364223,-2.452908,2.064160,-0.040883,-0.002824,-0.030981,-47.881596,-69.818985,-4.097557
13103,,9.344162,-2.425179,2.073182,-0.038185,-0.002618,-0.034370,-47.909367,-69.834410,-4.125810
13104,,9.310574,-2.463965,2.045549,-0.036752,-0.007410,-0.033463,-47.919197,-69.849305,-4.137512
13105,,9.340721,-2.467971,2.061154,-0.032706,-0.013520,-0.036086,-47.971085,-69.869325,-4.108158
13106,,9.336433,-2.407693,2.021362,-0.032707,-0.013521,-0.036086,-47.983074,-69.887686,-4.115103
13107,,9.305882,-2.422253,1.997116,-0.039479,-0.019120,-0.038923,-48.037530,-69.906717,-4.068010
13108,,9.328201,-2.444759,1.984009,-0.047604,-0.018403,-0.042523,-48.057133,-69.929685,-4.075951
13109,,9.327031,-2.465481,1.976321,-0.056069,-0.023800,-0.046685,-48.110283,-69.960193,-4.054684
13110,,9.336959,-2.495918,2.014673,-0.054893,-0.026751,-0.048661,-48.137516,-69.988984,-4.058955
13111,,9.328008,-2.535127,1.978300,-0.047538,-0.034794,-0.048789,-48.179858,-70.016587,-4.034228
13112,,9.353680,-2.532709,1.967867,-0.037491,-0.039403,-0.053537,-48.206967,-70.052282,-4.028038
13113,,9.358753,-2.557215,1.981671,-0.026999,-0.049224,-0.052678,-48.262467,-70.091085,-3.994554
13114,,9.340110,-2.527388,1.986670,-0.017950,-0.054253,-0.052718,-48.297022,-70.132084,-3.968559
13115,,9.313413,-2.516290,1.963647,-0.015160,-0.058934,-0.053519,-48.350276,-70.176477,-3.902457
13116,,9.329743,-2.497474,2.008443,-0.014581,-0.066151,-0.058944,-48.390802,-70.224660,-3.868088
13117,,9.353584,-2.517757,1.991160,-0.019044,-0.070919,-0.055787,-48.456636,-70.275532,-3.814896
13118,,9.364996,-2.546580,2.026132,-0.016277,-0.069171,-0.059038,-48.502111,-70.324884,-3.776335
13119,,9.385960,-2.537866,1.989742,-0.013212,-0.075696,-0.056969,-48.565158,-70.374794,-3.719415
13120,,9.347315,-2.534957,2.017462,-0.008639,-0.079050,-0.056315,-48.621570,-70.426688,-3.664637
13121,,9.402606,-2.485254,2.006699,-0.015713,-0.079310,-0.050833,-48.713719,-70.475732,-3.556378
13122,,9.413679,-2.462020,2.026393,-0.026624,-0.080380,-0.051142,-48.788316,-70.525847,-3.493286
13123,,9.426240,-2.472980,1.961259,-0.031210,-0.077040,-0.051787,-48.879537,-70.577064,-3.391691
13124,,9.414244,-2.501367,2.001313,-0.026031,-0.076121,-0.047695,-48.953035,-70.624030,-3.329452
13125,,9.384523,-2.462039,1.957479,-0.031380,-0.080110,-0.052068,-49.043038,-70.670635,-3.213770
13126,,9.363787,-2.456527,1.955151,-0.032884,-0.083291,-0.050651,-49.126891,-70.721500,-3.144773
13127,,9.422948,-2.488678,1.976009,-0.027331,-0.086205,-0.054729,-49.238939,-70.774670,-3.010043
13128,,9.444597,-2.533126,1.951918,-0.022487,-0.088182,-0.052441,-49.321968,-70.828060,-2.935668
13129,,9.461787,-2.514586,1.994022,-0.005663,-0.090325,-0.053230,-49.413506,-70.880221,-2.787779
13130,,9.455755,-2.475683,1.943485,0.003481,-0.093791,-0.053187,-49.488821,-70.935946,-2.705884
13131,,9.463768,-2.423080,1.943788,-0.000636,-0.092467,-0.049434,-49.582508,-70.990490,-2.598009
13132,,9.404315,-2.396089,1.981632,-0.006116,-0.088044,-0.045195,-49.665638,-71.040512,-2.513729
13133,,9.372789,-2.433598,1.946925,-0.016996,-0.092365,-0.044233,-49.778991,-71.091555,-2.398503
13134,,9.393257,-2.426004,1.908506,-0.021593,-0.089038,-0.044853,-49.873637,-71.141697,-2.311487
13135,,9.373664,-2.473651,1.919593,-0.019024,-0.098301,-0.046114,-49.991486,-71.193771,-2.173499
13136,,9.402785,-2.446603,1.908062,-0.020243,-0.098885,-0.055297,-50.087850,-71.252011,-2.083923
13137,,9.420520,-2.427715,1.949069,-0.014627,-0.100257,-0.059258,-50.199593,-71.304276,-1.961224
13138,,9.394461,-2.415971,1.922283,-0.021898,-0.103913,-0.066411,-50.292623,-71.369127,-1.876251
13139,,9.378279,-2.437533,1.936969,-0.018190,-0.104928,-0.073188,-50.393200,-71.432622,-1.770224
13140,,9.392461,-2.498449,1.883285,-0.011290,-0.110923,-0.077794,-50.478282,-71.504955,-1.687310
13141,,9.419644,-2.458483,1.950974,-0.005491,-0.112449,-0.080260,-50.572690,-71.572871,-1.588334
13142,,9.443545,-2.423183,1.915165,-0.002537,-0.114062,-0.080812,-50.654984,-71.647582,-1.503163
13143,,9.481975,-2.374099,1.930175,-0.011363,-0.107746,-0.078993,-50.745692,-71.717175,-1.391264
13144,,9.453761,-2.385193,1.898528,-0.022469,-0.106751,-0.069658,-50.843205,-71.784195,-1.302177
13145,,9.444064,-2.412008,1.936090,-0.025244,-0.105324,-0.067589,-50.954769,-71.849700,-1.213275
13146,,9.453968,-2.411237,1.948553,-0.028092,-0.105429,-0.065663,-51.059541,-71.914358,-1.120020
13147,,9.510771,-2.412718,1.947891,-0.030719,-0.100940,-0.063302,-51.170716,-71.972567,-0.981675
13148,,9.452381,-2.385563,1.985362,-0.033473,-0.094762,-0.062299,-51.268999,-72.031777,-0.898564
13149,,9.451144,-2.428184,1.966512,-0.034725,-0.093368,-0.060436,-51.374448,-72.086070,-0.786313
13150,,9.469382,-2.409151,2.007980,-0.022221,-0.085961,-0.061403,-51.456218,-72.141636,-0.713848
13151,,9.463822,-2.423023,1.971760,-0.027348,-0.083423,-0.054241,-51.547663,-72.191146,-0.617007
13152,,9.500697,-2.453256,1.998391,-0.023887,-0.074297,-0.053793,-51.623436,-72.239071,-0.551898
13153,,9.509824,-2.453875,2.013961,-0.023066,-0.070185,-0.048841,-51.716231,-72.283220,-0.473843
13154,,9.456762,-2.466947,1.992920,-0.015966,-0.066346,-0.043242,-51.788783,-72.323517,-0.407396
13155,,9.463487,-2.415571,1.995815,-0.013688,-0.059037,-0.039719,-51.890510,-72.355051,-0.303700
13156,,9.507984,-2.461767,1.967195,-0.011485,-0.058015,-0.035274,-51.958254,-72.388736,-0.239648
13157,,9.526690,-2.531124,1.941213,0.007766,-0.054390,-0.031407,-52.025567,-72.410117,-0.129822
13158,,9.498582,-2.522122,1.920142,0.023700,-0.056837,-0.027697,-52.080350,-72.439897,-0.058260
13159,,9.502705,-2.418475,1.910605,0.037770,-0.062160,-0.025570,-52.148839,-72.467211,0.079617
13160,,9.502374,-2.438902,1.901076,0.038456,-0.061556,-0.031802,-52.197823,-72.500453,0.153927
13161,,9.486791,-2.472872,1.841277,0.043146,-0.058576,-0.032164,-52.262586,-72.526991,0.268031
13162,,9.518691,-2.474586,1.852990,0.050316,-0.058398,-0.036261,-52.295756,-72.561089,0.332842
13163,,9.467244,-2.463453,1.839749,0.062801,-0.055709,-0.036214,-52.319386,-72.591002,0.445672
13164,,9.490442,-2.483481,1.824454,0.068659,-0.060420,-0.037518,-52.343903,-72.626354,0.512393
13165,,9.522448,-2.484434,1.836684,0.073554,-0.057596,-0.036384,-52.377487,-72.654963,0.644799
13166,,9.617980,-2.482719,1.805681,0.070019,-0.049260,-0.041247,-52.381178,-72.688075,0.690479
13167,,9.702393,-2.524124,1.743033,0.066584,-0.048432,-0.032924,-52.418935,-72.710819,0.802347
13168,,9.720759,-2.515846,1.710149,0.059132,-0.045240,-0.031539,-52.434177,-72.738091,0.853560
13169,,9.766897,-2.537470,1.688965,0.045470,-0.040256,-0.030634,-52.455406,-72.760354,0.912857
13170,,9.853092,-2.555994,1.630876,0.032765,-0.038057,-0.033238,-52.473522,-72.785872,0.951233
13171,,9.837899,-2.556058,1.657944,0.019704,-0.034019,-0.038708,-52.506415,-72.809400,1.021648
13172,,9.809345,-2.546273,1.639323,0.004023,-0.025484,-0.041809,-52.513053,-72.834414,1.030747
13173,,9.755323,-2.559232,1.623649,-0.008094,-0.019482,-0.051869,-52.521156,-72.857986,1.136373
13174,,9.693078,-2.667145,1.590417,-0.017169,-0.018289,-0.061287,-52.507338,-72.889338,1.111348
13175,,9.682223,-2.727598,1.552042,-0.003841,-0.020376,-0.075816,-52.486620,-72.923013,1.180217
13176,,9.677559,-2.825623,1.452294,0.024482,-0.022057,-0.083182,-52.429418,-72.965610,1.134768
13177,,9.668383,-2.849309,1.500003,0.069765,-0.022602,-0.091349,-52.339336,-73.009236,1.123211
13178,,9.571018,-2.786525,1.670417,0.135354,-0.030178,-0.096953,-52.214153,-73.060872,1.073109
13179,,9.500083,-2.553410,1.999782,0.211763,-0.012249,-0.097028,-52.021568,-73.100240,1.124845
13180,,9.095102,-2.536989,2.178208,0.259183,0.017805,-0.085561,-51.766057,-73.129663,1.012693
13181,,8.855542,-2.657464,2.075885,0.325595,0.020669,-0.087181,-51.479315,-73.154874,1.003337
13182,,8.855974,-2.600098,1.992252,0.405110,0.016770,-0.103707,-51.118846,-73.192436,0.868902
13183,,9.128261,-2.521446,1.963207,0.484951,0.010988,-0.117325,-50.709823,-73.235019,0.794568
13184,,9.419843,-2.376377,1.993410,0.529396,0.026442,-0.133215,-50.225675,-73.281518,0.605389
13185,,9.582427,-2.192310,2.017429,0.527120,0.055867,-0.153570,-49.687194,-73.320927,0.443104
13186,,9.737519,-2.065619,2.111265,0.480107,0.087946,-0.173515,-49.087831,-73.360972,0.104249
13187,,9.863072,-1.945768,2.109976,0.385567,0.122584,-0.191161,-48.487445,-73.391799,-0.205285
13188,,9.920604,-1.914075,2.063512,0.263448,0.166307,-0.198098,-47.864493,-73.410333,-0.698194
13189,,9.805148,-1.938063,1.957661,0.139086,0.220508,-0.200992,-47.262673,-73.402575,-1.194496
13190,,9.587682,-2.083785,1.863310,0.025313,0.250139,-0.190399,-46.667660,-73.382115,-1.800672
13191,,9.372203,-2.208963,1.771934,-0.066086,0.276433,-0.184882,-46.124778,-73.339737,-2.331288
13192,,9.176234,-2.409696,1.662766,-0.118388,0.295242,-0.174651,-45.575522,-73.291418,-2.975916
13193,,8.867929,-2.537964,1.595932,-0.139325,0.308369,-0.159956,-45.069571,-73.223715,-3.425998
13194,,8.704064,-2.622618,1.494872,-0.134496,0.300923,-0.145720,-44.568749,-73.158070,-4.030109
13195,,8.713939,-2.729136,1.469540,-0.104885,0.279823,-0.140498,-44.087822,-73.097466,-4.480847
13196,,8.806718,-2.743589,1.461626,-0.068227,0.260599,-0.140675,-43.616530,-73.043542,-5.014791
13197,,8.948330,-2.733443,1.444992,-0.032011,0.254169,-0.145940,-43.123406,-72.992698,-5.455194
13198,,9.076859,-2.738496,1.378655,-0.009868,0.238764,-0.151562,-42.637744,-72.949558,-5.969489
13199,,9.228725,-2.766127,1.302580,0.006151,0.230615,-0.169693,-42.152571,-72.912501,-6.367616
13200,,9.368976,-2.823302,1.275937,0.024952,0.217037,-0.177779,-41.642346,-72.886075,-6.886951
13201,,9.485554,-2.849178,1.056159,0.031317,0.206820,-0.187085,-41.150270,-72.866619,-7.343619
13202,,9.586920,-2.853678,0.867931,0.011911,0.179568,-0.191347,-40.676766,-72.858890,-7.832462
13203,,9.824502,-3.012144,0.515579,-0.008600,0.142756,-0.191586,-40.303901,-72.863393,-8.174571
13204,,10.005970,-3.302146,0.229505,-0.015224,0.095558,-0.178943,-39.964399,-72.885920,-8.539457
13205,,10.146532,-3.448240,-0.028437,0.000186,0.026210,-0.161485,-39.725579,-72.932127,-8.666606
13206,,10.125313,-3.318317,-0.131340,0.049334,-0.048846,-0.133230,-39.584641,-73.000741,-8.784965
13207,,9.976798,-3.093151,-0.040479,0.094620,-0.131074,-0.111196,-39.576395,-73.099622,-8.691767
13208,,9.789127,-2.777755,0.094007,0.154195,-0.201221,-0.086942,-39.625195,-73.218571,-8.549007
13209,,9.627942,-2.458678,0.522986,0.214772,-0.268570,-0.079571,-39.773612,-73.364622,-8.309504
13210,,9.573903,-2.193233,0.962264,0.253609,-0.318670,-0.074328,-39.933571,-73.530413,-7.991611
13211,,9.623515,-1.866018,1.303361,0.244575,-0.331953,-0.083368,-40.157169,-73.709856,-7.653833
13212,,9.591233,-1.626484,1.422160,0.194284,-0.308746,-0.102894,-40.306259,-73.881285,-7.383240
13213,,9.468880,-1.535339,1.391233,0.109293,-0.285764,-0.116238,-40.511616,-74.048664,-7.104504
13214,,9.307644,-1.510338,1.311619,0.047337,-0.269089,-0.129916,-40.661153,-74.212440,-6.921459
13215,,9.209033,-1.481039,1.370389,0.007867,-0.248383,-0.137026,-40.833725,-74.372374,-6.711976
13216,,9.162186,-1.393037,1.526797,-0.004271,-0.243086,-0.124193,-40.993868,-74.522460,-6.548920
13217,,9.207174,-1.267738,1.740403,-0.022847,-0.232206,-0.102349,-41.243427,-74.661667,-6.303912
13218,,9.357367,-1.112985,2.057453,-0.056113,-0.217754,-0.064289,-41.499868,-74.777825,-6.072057
13219,,9.451766,-1.056624,2.352790,-0.107070,-0.187418,-0.031866,-41.830056,-74.871105,-5.790888
13220,,9.465612,-0.988763,2.547572,-0.165144,-0.158154,-0.006165,-42.163631,-74.938933,-5.544072
13221,,9.530998,-1.110162,2.650722,-0.214863,-0.137010,0.002400,-42.563899,-74.994704,-5.225782
13222,,9.650201,-1.321855,2.674472,-0.227561,-0.113645,-0.000294,-42.882985,-75.040695,-5.031138
13223,,9.724939,-1.522824,2.636924,-0.207313,-0.085193,-0.010409,-43.187082,-75.080743,-4.905427
13224,,9.794987,-1.621409,2.591889,-0.164744,-0.070264,-0.026263,-43.368273,-75.118352,-4.816331
13225,,9.878650,-1.724489,2.594752,-0.120048,-0.058700,-0.038042,-43.551393,-75.156711,-4.824724
13226,,10.035574,-1.703395,2.596518,-0.074857,-0.042723,-0.046478,-43.609608,-75.190749,-4.809627
13227,,10.165823,-1.692531,2.684270,-0.043564,-0.015126,-0.044298,-43.661186,-75.212640,-4.863942
13228,,10.159295,-1.600763,2.751016,-0.027623,0.011644,-0.030673,-43.635986,-75.217880,-4.907160
13229,,10.044440,-1.504940,2.801409,-0.042746,0.029252,-0.017870,-43.651269,-75.211282,-4.981718
13230,,10.023026,-1.386081,2.829090,-0.081894,0.044156,0.010582,-43.673324,-75.186727,-5.008251
13231,,10.015488,-1.339416,2.817246,-0.143907,0.067446,0.030610,-43.782304,-75.143997,-5.006140
13232,,9.927535,-1.390956,2.789575,-0.206620,0.087153,0.056644,-43.883244,-75.083411,-5.025021
13233,,9.777055,-1.487538,2.722453,-0.247357,0.101244,0.074431,-44.068103,-75.006718,-5.029827
13234,,9.681537,-1.785046,2.657513,-0.242787,0.104988,0.084897,-44.205621,-74.927541,-5.032329
13235,,9.626445,-1.944665,2.654126,-0.189822,0.101504,0.087876,-44.349977,-74.849756,-4.970560
13236,,9.506726,-1.995306,2.610565,-0.115860,0.096803,0.086246,-44.427682,-74.773396,-4.959694
13237,,9.351147,-1.903585,2.627655,-0.045794,0.091026,0.078930,-44.509010,-74.701166,-4.943825
13238,,9.253115,-1.800269,2.578293,0.004226,0.075969,0.072166,-44.526820,-74.638962,-4.923728
13239,,9.181768,-1.734829,2.617159,0.031859,0.069150,0.059979,-44.551864,-74.585812,-4.929198
13240,,9.156377,-1.714972,2.634422,0.050164,0.060839,0.047446,-44.528647,-74.539720,-4.924358
13241,,9.140087,-1.733410,2.590661,0.062077,0.058865,0.033247,-44.510884,-74.499452,-4.908142
13242,,9.125639,-1.702332,2.554390,0.068278,0.051984,0.022541,-44.453622,-74.466977,-4.927873
13243,,9.102076,-1.762354,2.479038,0.071941,0.047243,0.004640,-44.419461,-74.439950,-4.962422
13244,,9.076752,-1.784756,2.487325,0.081017,0.043570,-0.007742,-44.322864,-74.423035,-5.015429
13245,,9.029735,-1.866460,2.414583,0.104369,0.039619,-0.017491,-44.233947,-74.411413,-5.154662
13246,,8.903787,-1.907834,2.422159,0.129747,0.027626,-0.023525,-44.109344,-74.407297,-5.207783
13247,,8.895777,-1.946471,2.395976,0.156804,0.012444,-0.028488,-44.004158,-74.414457,-5.253285
13248,,9.010239,-2.058745,2.347849,0.197125,-0.011062,-0.026661,-43.891544,-74.427498,-5.253875
13249,,9.171974,-2.060340,2.380663,0.238487,-0.023462,-0.028729,-43.785448,-74.446651,-5.271662
13250,,9.338999,-2.001320,2.344331,0.268054,-0.026857,-0.026912,-43.654145,-74.466329,-5.249485
13251,,9.502964,-1.929273,2.387655,0.275134,-0.027442,-0.020215,-43.547580,-74.485570,-5.263981
13252,,9.756975,-1.866422,2.301268,0.257701,-0.017184,-0.012396,-43.430006,-74.495528,-5.233721
13253,,9.916371,-1.806869,2.242223,0.218370,0.006465,0.004063,-43.353246,-74.486758,-5.223291
13254,,9.956726,-1.775966,2.214438,0.172330,0.031212,0.027682,-43.276168,-74.460807,-5.201773
13255,,9.894146,-1.794629,2.184819,0.133172,0.054062,0.056357,-43.252651,-74.414238,-5.137468
13256,,9.832024,-1.768622,2.163217,0.098724,0.073787,0.085677,-43.244555,-74.347758,-5.088099
13257,,9.769731,-1.722086,2.146224,0.064527,0.096507,0.116690,-43.298359,-74.257912,-5.037825
13258,,9.642279,-1.597062,2.083525,0.019670,0.116142,0.148931,-43.369019,-74.148886,-4.953636
13259,,9.624871,-1.582040,2.052084,-0.025477,0.131298,0.179327,-43.512911,-74.016736,-4.842039
13260,,9.660433,-1.573558,2.031696,-0.067321,0.147121,0.200027,-43.661577,-73.874558,-4.728444
13261,,9.664663,-1.588666,1.992254,-0.100079,0.162969,0.219471,-43.849554,-73.716079,-4.603131
13262,,9.709124,-1.602888,1.917663,-0.131128,0.178715,0.240203,-44.043212,-73.544694,-4.480571
13263,,9.652828,-1.615181,1.846303,-0.145347,0.187429,0.248906,-44.252383,-73.367182,-4.391194
13264,,9.652058,-1.583491,1.792744,-0.158283,0.194717,0.255786,-44.454835,-73.182759,-4.275479
13265,,9.583047,-1.503334,1.765471,-0.177024,0.199632,0.253990,-44.668373,-72.994324,-4.122329
13266,,9.472489,-1.449897,1.770576,-0.203107,0.200679,0.243592,-44.865699,-72.812156,-4.038626
13267,,9.417514,-1.461003,1.698939,-0.229562,0.194211,0.231104,-45.073022,-72.641664,-3.976063
13268,,9.353968,-1.553848,1.691492,-0.249231,0.186684,0.211457,-45.267808,-72.478045,-3.922565
13269,,9.261029,-1.640190,1.665190,-0.252837,0.176396,0.184889,-45.450693,-72.331238,-3.901994
13270,,9.155519,-1.755217,1.685954,-0.236175,0.156324,0.161134,-45.609556,-72.200286,-3.878272
13271,,9.081805,-1.932223,1.634500,-0.202893,0.139352,0.133985,-45.745318,-72.085771,-3.821292
13272,,9.099987,-2.071091,1.640628,-0.147505,0.110747,0.112382,-45.848878,-71.993015,-3.802277
13273,,9.093447,-2.130532,1.639286,-0.088653,0.083402,0.093546,-45.945831,-71.919400,-3.779363
13274,,9.178894,-2.153218,1.696374,-0.036469,0.055474,0.083214,-46.018855,-71.860650,-3.725517
13275,,9.264833,-2.174614,1.752267,-0.002113,0.035232,0.077278,-46.103930,-71.813871,-3.641144
13276,,9.394137,-2.167887,1.775786,0.020036,0.019821,0.071714,-46.174728,-71.773982,-3.555521
13277,,9.455634,-2.211448,1.831814,0.030254,0.005925,0.069293,-46.261698,-71.743874,-3.457134
13278,,9.497886,-2.282461,1.912685,0.042633,0.000939,0.070439,-46.341065,-71.711917,-3.348819
13279,,9.469689,-2.335669,1.911753,0.052847,-0.006708,0.067002,-46.428933,-71.685058,-3.206197
13280,,9.531440,-2.378826,1.966182,0.058347,-0.018394,0.076154,-46.529729,-71.658250,-3.065792
13281,,9.563680,-2.417918,2.002609,0.060315,-0.021869,0.080254,-46.648078,-71.634425,-2.914372
13282,,9.516370,-2.399456,2.017534,0.057905,-0.025419,0.086430,-46.769387,-71.605922,-2.752571
13283,,9.381802,-2.358939,2.083098,0.050388,-0.028523,0.088645,-46.912036,-71.577716,-2.598107
13284,,9.363593,-2.445854,2.122219,0.040448,-0.041941,0.085682,-47.062363,-71.555735,-2.416222
13285,,9.398737,-2.537556,2.171917,0.051658,-0.047727,0.077651,-47.212022,-71.540575,-2.210848
13286,,9.425763,-2.571612,2.182802,0.080984,-0.045858,0.064920,-47.319255,-71.528578,-2.049881
13287,,9.389705,-2.581766,2.239209,0.103863,-0.054644,0.052112,-47.415824,-71.528924,-1.890710
13288,,9.416677,-2.536122,2.238661,0.125691,-0.049634,0.040552,-47.473790,-71.528522,-1.754678
13289,,9.453876,-2.521256,2.281705,0.137094,-0.049327,0.032990,-47.531636,-71.526717,-1.590854
13290,,9.489454,-2.529675,2.321706,0.143110,-0.039990,0.029902,-47.555100,-71.527004,-1.480680
13291,,9.547822,-2.462449,2.343782,0.132318,-0.033457,0.028682,-47.583646,-71.523642,-1.327017
13292,,9.580638,-2.418834,2.368830,0.112742,-0.017577,0.029288,-47.595400,-71.515497,-1.247541
13293,,9.574194,-2.415767,2.346960,0.083156,-0.000349,0.035870,-47.616803,-71.499949,-1.176560
13294,,9.581378,-2.473727,2.388954,0.053280,0.013948,0.040710,-47.635802,-71.474783,-1.125363
13295,,9.552724,-2.524236,2.390866,0.031075,0.024939,0.045874,-47.665553,-71.446892,-1.086816
13296,,9.531193,-2.555220,2.420638,0.021053,0.041979,0.048437,-47.676336,-71.407632,-1.063751
13297,,9.417353,-2.620677,2.392103,0.018310,0.044973,0.050553,-47.694659,-71.369108,-1.076279
13298,,9.345697,-2.598320,2.418793,0.020105,0.052605,0.050918,-47.695340,-71.324700,-1.064441
13299,,9.285995,-2.568863,2.393101,0.024346,0.054295,0.047438,-47.696175,-71.279477,-1.011727
13300,,9.244718,-2.611948,2.351112,0.029741,0.056197,0.040748,-47.675268,-71.237991,-1.016856
13301,,9.252235,-2.646217,2.400462,0.044077,0.053331,0.032592,-47.651318,-71.202290,-1.024482
13302,,9.290105,-2.669212,2.367814,0.058657,0.051278,0.013676,-47.589441,-71.174162,-1.055389
13303,,9.310497,-2.693365,2.365085,0.080576,0.052977,0.003405,-47.507562,-71.153298,-1.117064
13304,,9.396206,-2.638533,2.308533,0.107560,0.047370,-0.014202,-47.391191,-71.138427,-1.175957
13305,,9.424337,-2.724960,2.243327,0.123485,0.041269,-0.021231,-47.276622,-71.128034,-1.221188
13306,,9.504457,-2.677562,2.263325,0.144986,0.041647,-0.034616,-47.122872,-71.123889,-1.296927
13307,,9.579115,-2.624895,2.260323,0.159256,0.041925,-0.044038,-46.954454,-71.127460,-1.396790
13308,,9.725724,-2.560602,2.140034,0.155904,0.043729,-0.046579,-46.778266,-71.127366,-1.489634
13309,,9.805102,-2.521867,2.058155,0.147824,0.057336,-0.039987,-46.605269,-71.121977,-1.586939
13310,,9.824058,-2.575360,1.952837,0.140029,0.073899,-0.031690,-46.418767,-71.103618,-1.700304
13311,,9.707841,-2.604522,1.910859,0.141323,0.086249,-0.010931,-46.247770,-71.077265,-1.832817
13312,,9.600072,-2.677412,1.810774,0.159713,0.092686,-0.000355,-46.064285,-71.038282,-1.931104
13313,,9.628616,-2.666859,1.742124,0.185550,0.091889,0.022701,-45.902861,-70.990715,-1.988019
13314,,9.731657,-2.688666,1.677488,0.217430,0.095687,0.043824,-45.735042,-70.932196,-2.034811
13315,,9.707949,-2.652470,1.602357,0.252613,0.102383,0.066303,-45.571205,-70.866164,-2.044705
13316,,9.720081,-2.526056,1.557816,0.266010,0.105135,0.088022,-45.416798,-70.785714,-2.047870
13317,,9.666290,-2.390003,1.657311,0.263424,0.123482,0.114172,-45.281883,-70.690819,-2.040477
13318,,9.562399,-2.202090,1.750929,0.230831,0.144751,0.133201,-45.154815,-70.576009,-2.036033
13319,,9.346620,-2.077837,1.811595,0.166076,0.173244,0.151736,-45.067360,-70.442643,-2.007192
13320,,9.252181,-2.064530,1.880582,0.097952,0.202079,0.167516,-44.991261,-70.290717,-2.029457
13321,,9.218858,-2.102172,1.904758,0.027531,0.233039,0.175906,-44.938588,-70.128193,-2.067121
13322,,9.280366,-2.159966,1.805439,-0.037943,0.260573,0.188062,-44.899343,-69.944219,-2.133065
13323,,9.408680,-2.183825,1.773102,-0.100896,0.283670,0.196509,-44.889092,-69.752491,-2.261005
13324,,9.579988,-2.133827,1.692739,-0.173291,0.307255,0.202872,-44.894245,-69.543576,-2.362477
13325,,9.525780,-2.054539,1.716822,-0.269155,0.327238,0.206848,-44.949271,-69.329132,-2.464544
13326,,9.462441,-2.021695,1.710976,-0.372388,0.340416,0.201818,-45.033184,-69.107276,-2.604074
13327,,9.463059,-2.106010,1.798854,-0.468273,0.327801,0.188001,-45.178523,-68.900134,-2.724075
13328,,9.450001,-2.284001,1.846496,-0.539775,0.312880,0.172873,-45.357206,-68.701413,-2.865220
13329,,9.296605,-2.463249,1.816372,-0.566089,0.290635,0.150937,-45.563147,-68.523980,-2.978060
13330,,9.122817,-2.718044,1.822209,-0.540824,0.246427,0.129761,-45.766585,-68.369901,-3.093577
13331,,8.940831,-2.961302,1.774032,-0.458102,0.185009,0.104512,-45.972617,-68.253857,-3.154915
13332,,8.889060,-3.162813,1.727076,-0.307017,0.104268,0.077048,-46.135046,-68.178345,-3.170519
13333,,8.826634,-3.289441,1.717328,-0.102464,0.028458,0.058537,-46.251817,-68.142607,-3.095640
13334,,8.786521,-3.194670,1.741505,0.120799,-0.048330,0.042716,-46.292089,-68.141773,-2.978767
13335,,8.775675,-2.962970,1.859073,0.323053,-0.116910,0.029635,-46.283817,-68.183868,-2.768505
13336,,8.780347,-2.634641,2.013279,0.465769,-0.165869,0.030176,-46.236096,-68.234816,-2.533589
13337,,8.868110,-2.297159,2.073485,0.557972,-0.195633,0.026478,-46.175901,-68.309011,-2.284571
13338,,8.946856,-2.019349,2.222265,0.576164,-0.204422,0.028691,-46.104785,-68.376077,-2.006990
13339,,9.064541,-1.736561,2.310080,0.535342,-0.195558,0.033518,-46.069026,-68.444795,-1.719631
13340,,9.192112,-1.600821,2.370893,0.438484,-0.180546,0.029074,-46.053724,-68.502365,-1.467099
13341,,9.450709,-1.824576,2.226039,0.339326,-0.166392,0.017139,-46.080192,-68.565728,-1.198976
13342,,9.780300,-2.070604,2.190434,0.279853,-0.145235,0.013919,-46.104754,-68.615485,-1.001458
13343,,10.049884,-2.139794,2.167912,0.250405,-0.126474,0.004353,-46.126492,-68.670094,-0.817236
13344,,10.209672,-2.051818,2.165231,0.208419,-0.102266,-0.009727,-46.123450,-68.712529,-0.693419
13345,,10.314303,-1.980999,2.147173,0.138784,-0.076851,-0.023923,-46.129416,-68.757473,-0.592480
13346,,10.266050,-1.945052,2.132247,0.051300,-0.043116,-0.035729,-46.127421,-68.787170,-0.564188
13347,,10.141152,-1.953234,2.128850,-0.043460,-0.015629,-0.040989,-46.150998,-68.816210,-0.581027
13348,,9.865341,-2.062431,2.043276,-0.132359,-0.002457,-0.043109,-46.203428,-68.832831,-0.607237
13349,,9.568174,-2.198769,1.983196,-0.180834,0.005500,-0.039033,-46.296038,-68.852625,-0.630563
13350,,9.311949,-2.463308,1.920742,-0.189174,-0.012711,-0.037747,-46.397606,-68.871122,-0.638983
13351,,9.149513,-2.670009,1.920118,-0.145472,-0.031417,-0.038934,-46.511550,-68.902798,-0.604620
13352,,9.020981,-2.780315,1.924719,-0.067801,-0.061721,-0.049106,-46.585032,-68.945351,-0.568610
13353,,8.988645,-2.755256,1.977683,0.016351,-0.094051,-0.055517,-46.656377,-69.008402,-0.494289
13354,,8.949484,-2.697098,1.985885,0.089447,-0.117828,-0.067928,-46.681971,-69.080840,-0.413110
13355,,8.885525,-2.570717,2.083831,0.139506,-0.139087,-0.080810,-46.701858,-69.166459,-0.275390
13356,,8.907709,-2.494016,2.130574,0.156487,-0.148403,-0.090918,-46.699628,-69.260481,-0.182986
13357,,8.925152,-2.413094,2.152886,0.160346,-0.156038,-0.094880,-46.718397,-69.362306,-0.101412
13358,,8.966522,-2.473586,2.099945,0.145710,-0.158179,-0.101092,-46.723595,-69.464405,-0.007794
13359,,8.975317,-2.488757,2.110272,0.126962,-0.154153,-0.104925,-46.743623,-69.569622,0.080268
13360,,9.077123,-2.534282,2.095527,0.113890,-0.162682,-0.108590,-46.765352,-69.676603,0.171936
13361,,9.215567,-2.563327,2.124305,0.103581,-0.162560,-0.104341,-46.814945,-69.789496,0.284410
13362,,9.275437,-2.609022,2.143041,0.089778,-0.157366,-0.105549,-46.849117,-69.893093,0.374485
13363,,9.381714,-2.606702,2.131982,0.073477,-0.155523,-0.100503,-46.906694,-70.000288,0.461978
13364,,9.447003,-2.656181,2.173745,0.058358,-0.153543,-0.098652,-46.963381,-70.099457,0.556724
13365,,9.479930,-2.674524,2.176123,0.051274,-0.153611,-0.093215,-47.044122,-70.201895,0.638348
13366,,9.503145,-2.738899,2.149667,0.037913,-0.150246,-0.089928,-47.119852,-70.296043,0.740755
13367,,9.539370,-2.785240,2.173134,0.039790,-0.145803,-0.088350,-47.211430,-70.391426,0.876822
13368,,9.537350,-2.797473,2.134119,0.043385,-0.149343,-0.082807,-47.292567,-70.482130,0.988171
13369,,9.506567,-2.791832,2.180046,0.050275,-0.146836,-0.077317,-47.393232,-70.573789,1.094481
13370,,9.479727,-2.738135,2.231540,0.054085,-0.141079,-0.072824,-47.471212,-70.656967,1.208855
13371,,9.510488,-2.707391,2.216105,0.049821,-0.142680,-0.069317,-47.569247,-70.738874,1.336840
13372,,9.550393,-2.706895,2.245682,0.053824,-0.132314,-0.064603,-47.647578,-70.815068,1.451304
13373,,9.539056,-2.676881,2.266706,0.049581,-0.124532,-0.063658,-47.744711,-70.893058,1.577741
13374,,9.474387,-2.641905,2.276810,0.044670,-0.113994,-0.056321,-47.816635,-70.958580,1.679773
13375,,9.442488,-2.639015,2.326784,0.038551,-0.100429,-0.047132,-47.898065,-71.019296,1.786225
13376,,9.387012,-2.550420,2.267083,0.027155,-0.091077,-0.042144,-47.968664,-71.069909,1.876164
13377,,9.379821,-2.526527,2.315200,0.016679,-0.077470,-0.030874,-48.060288,-71.115415,2.009084
13378,,9.340695,-2.524172,2.344344,-0.003072,-0.063529,-0.019977,-48.139525,-71.145959,2.089797
13379,,9.298993,-2.472059,2.355622,-0.016573,-0.049838,-0.008322,-48.231000,-71.167031,2.212966
13380,,9.315955,-2.495121,2.318782,-0.031830,-0.042245,0.003228,-48.326445,-71.179456,2.293365
13381,,9.365865,-2.550505,2.321072,-0.041086,-0.031660,0.012656,-48.441119,-71.187546,2.376344
13382,,9.407477,-2.552848,2.281486,-0.044583,-0.028911,0.020945,-48.547047,-71.187215,2.460085
13383,,9.442698,-2.563336,2.319198,-0.047278,-0.015599,0.032792,-48.669354,-71.179703,2.559505
13384,,9.444074,-2.619032,2.335480,-0.040102,-0.011605,0.039818,-48.771739,-71.164602,2.642219
13385,,9.431304,-2.618389,2.286743,-0.016839,-0.008471,0.052491,-48.884482,-71.145857,2.716916
13386,,9.473379,-2.533872,2.336392,0.003792,-0.009459,0.057562,-48.978235,-71.122190,2.817099
13387,,9.529082,-2.561844,2.268173,0.024672,-0.009008,0.064221,-49.081725,-71.093354,2.947370
13388,,9.549395,-2.451972,2.327450,0.040573,-0.005100,0.067070,-49.158795,-71.063824,3.052224
13389,,9.536178,-2.385986,2.365276,0.052827,0.002315,0.064403,-49.227344,-71.029282,3.203094
13390,,9.532818,-2.339171,2.348280,0.054932,0.007362,0.055170,-49.266995,-71.000175,3.277113
13391,,9.439306,-2.237423,2.360779,0.052307,0.012628,0.044998,-49.299602,-70.974838,3.346634
13392,,9.438578,-2.098768,2.430784,0.025727,0.025406,0.025896,-49.301303,-70.951686,3.362820
13393,,9.425170,-2.235804,2.319455,-0.006483,0.035032,0.011944,-49.304122,-70.930748,3.377585
13394,,9.335866,-2.157850,2.354723,-0.005211,0.051435,-0.007360,-49.254930,-70.912310,3.321162
13395,,9.276246,-2.073155,2.308047,-0.054761,0.063440,-0.025203,-49.210329,-70.892697,3.246425
13396,,9.286893,-2.143101,2.276409,-0.099135,0.081262,-0.040300,-49.142262,-70.877327,3.113055
13397,,9.291256,-2.426231,2.170316,-0.116595,0.089941,-0.046906,-49.082147,-70.864435,2.996002
13398,,9.268756,-2.398696,2.184757,-0.127618,0.102952,-0.052526,-48.990482,-70.846107,2.820350
13399,,9.370333,-2.446313,2.109176,-0.158186,0.107036,-0.051620,-48.919133,-70.827865,2.619319
13400,,9.326008,-2.535012,2.064341,-0.175223,0.117883,-0.042752,-48.847344,-70.799541,2.435780
13401,,9.297690,-2.571525,1.971593,-0.181970,0.120755,-0.035595,-48.794071,-70.770508,2.276634
13402,,9.355487,-2.645989,1.928559,-0.195958,0.114241,-0.021949,-48.761911,-70.734489,2.122412
13403,,9.362046,-2.691821,1.876015,-0.200477,0.121364,-0.010187,-48.743347,-70.688792,2.037899
13404,,9.306857,-2.689783,1.869964,-0.195442,0.117015,0.007440,-48.739923,-70.639033,1.914355
13405,,9.269330,-2.762419,1.849150,-0.189049,0.107233,0.012244,-48.755449,-70.589810,1.835633
13406,,9.273898,-2.758982,1.777112,-0.177575,0.097032,0.021032,-48.781318,-70.541758,1.753926
13407,,9.298910,-2.792990,1.795606,-0.158587,0.080400,0.030057,-48.837969,-70.496047,1.758291
13408,,9.287549,-2.767958,1.754101,-0.140003,0.067139,0.034717,-48.893408,-70.453404,1.730749
13409,,9.245629,-2.750235,1.794002,-0.121832,0.052554,0.036254,-48.961936,-70.415582,1.734767
13410,,9.249261,-2.759187,1.818675,-0.104768,0.039330,0.041086,-49.037511,-70.380659,1.750007
13411,,9.200609,-2.686637,1.815531,-0.097412,0.020422,0.043596,-49.144792,-70.349887,1.812099
13412,,9.204794,-2.695523,1.837644,-0.090866,0.003580,0.038626,-49.252854,-70.329395,1.870296
13413,,9.224307,-2.662762,1.911757,-0.086410,-0.007484,0.040444,-49.384303,-70.314837,1.973548
13414,,9.243661,-2.705628,1.999124,-0.077070,-0.025826,0.033487,-49.514566,-70.307455,2.063722
13415,,9.299901,-2.743343,2.026743,-0.066134,-0.037968,0.025216,-49.657130,-70.309479,2.202476
13416,,9.369694,-2.762943,2.103634,-0.050473,-0.050337,0.017906,-49.785899,-70.317846,2.307243
13417,,9.364843,-2.825838,2.191307,-0.025732,-0.055065,0.006961,-49.903851,-70.333722,2.415815
13418,,9.385245,-2.737019,2.244935,-0.001812,-0.060191,0.002242,-50.000938,-70.352451,2.516517
13419,,9.394224,-2.716278,2.265926,0.009915,-0.061824,-0.002342,-50.100435,-70.374401,2.650637
13420,,9.445736,-2.682890,2.354835,0.007118,-0.060324,-0.000365,-50.190294,-70.394213,2.749067
13421,,9.439233,-2.703750,2.323432,0.007127,-0.045513,0.008357,-50.279554,-70.407200,2.872391
13422,,9.398095,-2.705858,2.354770,0.002439,-0.038353,0.018655,-50.364729,-70.410490,2.962979
13423,,9.364927,-2.751448,2.327619,0.017756,-0.038172,0.030708,-50.459388,-70.409981,3.086479
13424,,9.370981,-2.820931,2.262972,0.039341,-0.033558,0.042312,-50.541704,-70.400973,3.196468
13425,,9.341305,-2.818888,2.243528,0.076276,-0.039575,0.043641,-50.619247,-70.391151,3.346848
13426,,9.374526,-2.777306,2.265899,0.109817,-0.045305,0.042310,-50.675638,-70.386314,3.472188
13427,,9.462108,-2.728354,2.200283,0.138023,-0.052023,0.035388,-50.723340,-70.383330,3.580335
13428,,9.499546,-2.711945,2.243313,0.161379,-0.056884,0.026090,-50.748070,-70.389815,3.703422
13429,,9.502475,-2.685937,2.245060,0.176652,-0.064400,0.014510,-50.773407,-70.402329,3.854902
13430,,9.515776,-2.613527,2.275832,0.185871,-0.067056,0.002440,-50.772905,-70.422967,3.966080
13431,,9.501450,-2.587163,2.306545,0.182466,-0.066785,-0.000205,-50.783054,-70.442542,4.110779
13432,,9.508783,-2.585831,2.328491,0.172227,-0.062761,-0.009488,-50.773095,-70.466912,4.203593
13433,,9.423869,-2.618645,2.292331,0.162709,-0.059146,-0.012720,-50.770532,-70.489154,4.324324
13434,,9.404018,-2.652617,2.215326,0.169148,-0.054842,-0.011695,-50.750369,-70.511641,4.404412
13435,,9.304643,-2.714575,2.230640,0.184779,-0.057138,-0.009117,-50.734997,-70.535946,4.501812
13436,,9.278276,-2.756260,2.231503,0.214188,-0.056775,-0.008070,-50.695332,-70.557551,4.588557
13437,,9.271988,-2.771300,2.206280,0.250356,-0.062497,-0.012838,-50.643996,-70.582942,4.706799
13438,,9.240143,-2.743016,2.269633,0.287649,-0.059411,-0.011074,-50.562562,-70.606891,4.793850
13439,,9.240274,-2.683563,2.253849,0.313041,-0.055375,-0.018586,-50.466734,-70.635028,4.913555
13440,,9.252030,-2.629057,2.285637,0.327154,-0.052969,-0.017098,-50.348329,-70.659388,4.985380
13441,,9.322832,-2.573315,2.252549,0.325759,-0.045231,-0.018038,-50.229269,-70.681282,5.085885
13442,,9.375591,-2.518901,2.249609,0.309060,-0.027556,-0.021211,-50.084886,-70.698227,5.119175
13443,,9.425858,-2.489001,2.245445,0.277162,-0.006245,-0.023888,-49.944756,-70.708737,5.127277
13444,,9.503412,-2.412894,2.240523,0.235047,0.019939,-0.023559,-49.780673,-70.709226,5.094762
13445,,9.520866,-2.405464,2.219270,0.177025,0.051042,-0.016450,-49.632069,-70.698705,5.080188
13446,,9.535760,-2.349474,2.179906,0.110349,0.083838,-0.005162,-49.479509,-70.667373,4.984164
13447,,9.516087,-2.341076,2.120293,0.039912,0.113346,0.014091,-49.359727,-70.614987,4.934229
13448,,9.448248,-2.332981,2.073519,-0.038358,0.141647,0.032662,-49.262116,-70.545491,4.806062
13449,,9.422568,-2.379901,2.011810,-0.100581,0.169074,0.056891,-49.206086,-70.457363,4.704427
13450,,9.346722,-2.450959,1.960262,-0.148448,0.182261,0.077154,-49.170483,-70.353278,4.574984
13451,,9.305225,-2.530916,1.949782,-0.178103,0.191690,0.096565,-49.177359,-70.241425,4.490409
13452,,9.275515,-2.609333,1.886060,-0.188207,0.197385,0.113451,-49.185623,-70.115940,4.383195
13453,,9.244284,-2.637823,1.802775,-0.177443,0.194687,0.127460,-49.212993,-69.986849,4.347078
13454,,9.165763,-2.663515,1.730533,-0.165907,0.187569,0.136546,-49.244901,-69.855049,4.278462
13455,,9.158853,-2.679130,1.742972,-0.148526,0.175634,0.144712,-49.293564,-69.723034,4.274318
13456,,9.176638,-2.747581,1.768040,-0.126230,0.157772,0.144311,-49.345828,-69.599025,4.251534
13457,,9.143361,-2.733746,1.762814,-0.094077,0.138344,0.136545,-49.408270,-69.487332,4.283474
13458,,9.121434,-2.723900,1.804097,-0.057639,0.120452,0.125303,-49.445303,-69.385522,4.286360
13459,,9.060555,-2.701995,1.779057,-0.026571,0.100005,0.108389,-49.483632,-69.299904,4.333392
13460,,9.074608,-2.695196,1.859964,0.003533,0.073778,0.085128,-49.499518,-69.232967,4.351144
13461,,9.047198,-2.648635,1.852709,0.018584,0.057480,0.061021,-49.513685,-69.180806,4.444050
13462,,9.039016,-2.583764,1.917487,0.027088,0.038521,0.034430,-49.506755,-69.149075,4.451839
13463,,9.074458,-2.568544,1.965155,0.025291,0.022938,0.010713,-49.506792,-69.131764,4.487470
13464,,9.139706,-2.555933,2.029689,0.020779,0.010443,-0.010995,-49.491246,-69.130270,4.482168
13465,,9.116778,-2.603112,2.055357,0.012425,0.005602,-0.028789,-49.480162,-69.141474,4.478397
13466,,9.148953,-2.580302,2.076329,0.006506,-0.001358,-0.037732,-49.460164,-69.156022,4.459576
13467,,9.203228,-2.634137,2.107938,-0.003409,-0.003729,-0.042907,-49.453068,-69.175534,4.461388
13468,,9.209799,-2.632899,2.130854,-0.008756,-0.009424,-0.047230,-49.441707,-69.197222,4.442452
13469,,9.256846,-2.707786,2.135518,-0.003783,-0.011389,-0.043272,-49.443197,-69.221334,4.446376
13470,,9.340570,-2.765933,2.184053,0.002246,-0.019449,-0.041295,-49.442837,-69.244179,4.445946
13471,,9.476494,-2.779478,2.225801,0.023091,-0.028623,-0.030261,-49.463797,-69.267024,4.497738
13472,,9.520478,-2.828323,2.208947,0.037052,-0.015894,-0.020377,-49.460024,-69.279439,4.514978
13473,,9.525122,-2.711051,2.296588,0.052648,-0.018244,-0.017631,-49.467073,-69.296978,4.559580
13474,,9.483645,-2.707870,2.331196,0.058748,-0.014509,-0.005807,-49.463675,-69.302542,4.590502
13475,,9.501815,-2.654057,2.283449,0.065773,-0.008950,-0.000149,-49.472425,-69.307594,4.660223
13476,,9.501464,-2.638143,2.387136,0.058441,-0.000111,0.013444,-49.471608,-69.299419,4.693713
13477,,9.433181,-2.482505,2.371507,0.040916,0.011198,0.017532,-49.480753,-69.286991,4.756412
13478,,9.374263,-2.474912,2.337362,0.011422,0.022873,0.024515,-49.491268,-69.265440,4.773215
13479,,9.353776,-2.427417,2.350249,-0.028748,0.044393,0.028579,-49.513105,-69.233179,4.803093
13480,,9.302000,-2.452020,2.362658,-0.064495,0.059532,0.033354,-49.533612,-69.194137,4.784060
13481,,9.318751,-2.506799,2.356845,-0.086285,0.070024,0.027096,-49.558262,-69.156616,4.769331
13482,,9.318682,-2.487221,2.363814,-0.104635,0.081763,0.023597,-49.566836,-69.113576,4.712901
13483,,9.348479,-2.538466,2.305959,-0.126153,0.087401,0.021665,-49.588469,-69.072136,4.685783
13484,,9.370135,-2.596087,2.324691,-0.137628,0.094526,0.012547,-49.590874,-69.029192,4.602469
13485,,9.350572,-2.718592,2.294509,-0.132608,0.097226,0.015225,-49.599464,-68.985411,4.552777
13486,,9.361508,-2.718657,2.247411,-0.119441,0.096976,0.009160,-49.585757,-68.943038,4.463311
13487,,9.363813,-2.673670,2.258335,-0.116586,0.100095,0.005950,-49.575255,-68.903096,4.420864
13488,,9.382433,-2.651521,2.238089,-0.107237,0.098031,0.007903,-49.552579,-68.860868,4.329228
13489,,9.341061,-2.644159,2.178575,-0.111638,0.098095,0.009925,-49.545249,-68.815286,4.338852
13490,,9.338658,-2.647522,2.184782,-0.111645,0.098083,0.009930,-49.527441,-68.772138,4.249671
13491,,9.362423,-2.628339,2.188350,-0.115088,0.099996,0.005798,-49.511681,-68.731468,4.219709
13492,,9.304820,-2.597881,2.160402,-0.120706,0.103076,0.009659,-49.493659,-68.686564,4.124670
13493,,9.276265,-2.623723,2.169182,-0.130444,0.100623,0.005937,-49.488510,-68.648456,4.043024
13494,,9.240231,-2.619289,2.132804,-0.134853,0.100676,0.007950,-49.480061,-68.605186,3.949502
13495,,9.228271,-2.668106,2.109272,-0.138048,0.097711,0.008113,-49.481834,-68.562803,3.897012
13496,,9.202256,-2.669837,2.119691,-0.130764,0.094462,0.005619,-49.476112,-68.522859,3.808880
13497,,9.157079,-2.709922,2.053087,-0.122028,0.086471,0.004220,-49.487412,-68.486401,3.762773
13498,,9.155203,-2.661044,2.039264,-0.115189,0.077211,-0.000141,-49.486687,-68.455392,3.689560
13499,,9.160982,-2.642103,2.069572,-0.113215,0.071485,-0.008394,-49.485223,-68.430974,3.648897
13500,,9.183707,-2.645218,2.067549,-0.121871,0.062981,-0.014193,-49.490949,-68.411385,3.578472
13501,,9.180690,-2.670023,2.066791,-0.125052,0.054679,-0.026702,-49.505395,-68.400384,3.570336
13502,,9.228075,-2.673340,2.057948,-0.132110,0.047654,-0.032584,-49.516648,-68.394522,3.499531
13503,,9.197211,-2.691795,2.036834,-0.134757,0.040578,-0.040464,-49.537373,-68.396594,3.473546
13504,,9.235917,-2.738980,1.996352,-0.138607,0.023851,-0.041174,-49.570488,-68.403349,3.422249
13505,,9.246298,-2.744461,2.041770,-0.136612,0.014991,-0.048120,-49.614891,-68.418121,3.352185
13506,,9.235889,-2.811351,2.006028,-0.126928,0.001077,-0.053121,-49.655217,-68.438570,3.315842
13507,,9.259111,-2.834399,1.993977,-0.118688,-0.011251,-0.057877,-49.708094,-68.466295,3.325111
13508,,9.227797,-2.838490,2.070423,-0.102470,-0.022515,-0.060306,-49.753819,-68.498646,3.309647
13509,,9.285212,-2.869014,2.098934,-0.089723,-0.039677,-0.064335,-49.817952,-68.537917,3.369932
13510,,9.245136,-2.865255,2.126170,-0.074714,-0.051099,-0.063591,-49.876686,-68.582278,3.385532
13511,,9.207510,-2.837039,2.156343,-0.067641,-0.052540,-0.069034,-49.939889,-68.629673,3.405339
13512,,9.200953,-2.789583,2.207899,-0.066461,-0.063411,-0.068378,-50.003536,-68.680659,3.431277
13513,,9.182647,-2.759232,2.208326,-0.071165,-0.066335,-0.068094,-50.081300,-68.734394,3.430998
13514,,9.164884,-2.780769,2.225745,-0.079079,-0.065884,-0.070315,-50.153620,-68.787117,3.458461
13515,,9.178062,-2.783416,2.264739,-0.089814,-0.063929,-0.070591,-50.242544,-68.840553,3.500940
13516,,9.210201,-2.783973,2.274885,-0.099270,-0.060266,-0.073953,-50.317127,-68.892796,3.518403
13517,,9.225702,-2.762429,2.316948,-0.109243,-0.060965,-0.080648,-50.396447,-68.950271,3.574142
13518,,9.204101,-2.832341,2.327045,-0.115089,-0.062563,-0.077064,-50.480254,-69.004713,3.591759
13519,,9.253214,-2.854702,2.304500,-0.125878,-0.054280,-0.079931,-50.566576,-69.055673,3.651354
13520,,9.240868,-2.880169,2.345013,-0.123316,-0.054026,-0.084799,-50.638358,-69.110415,3.651034
13521,,9.274254,-2.932143,2.371688,-0.120284,-0.054122,-0.085124,-50.714542,-69.161951,3.713922
13522,,9.228401,-2.948414,2.370414,-0.106607,-0.054498,-0.086609,-50.775939,-69.217663,3.712731
13523,,9.263126,-2.923735,2.384059,-0.097555,-0.056276,-0.087709,-50.839518,-69.273476,3.757620
13524,,9.288805,-2.943136,2.367473,-0.091353,-0.053383,-0.088153,-50.889694,-69.329471,3.753773
13525,,9.302593,-2.945082,2.407259,-0.084134,-0.049678,-0.079407,-50.951286,-69.384632,3.748845
13526,,9.311188,-2.943241,2.424133,-0.076766,-0.043392,-0.084340,-50.985195,-69.435333,3.736548
13527,,9.314557,-2.937574,2.418055,-0.074266,-0.039454,-0.076606,-51.018018,-69.477713,3.778279
13528,,9.322675,-2.936319,2.436170,-0.068761,-0.032407,-0.070498,-51.047686,-69.518291,3.766351
13529,,9.358086,-2.888621,2.456675,-0.072442,-0.026678,-0.063491,-51.088932,-69.552981,3.778644
13530,,9.385418,-2.938010,2.463664,-0.069537,-0.016746,-0.053793,-51.116536,-69.580479,3.764041
13531,,9.371247,-2.999539,2.402670,-0.057144,-0.010448,-0.040790,-51.152483,-69.600707,3.725899
13532,,9.379520,-2.977275,2.427471,-0.038845,-0.008872,-0.028801,-51.177267,-69.614227,3.727050
13533,,9.398346,-3.049360,2.410227,-0.014921,0.002819,-0.010471,-51.194475,-69.612290,3.770418
13534,,9.397134,-2.996650,2.394085,0.015107,0.001321,-0.003087,-51.200966,-69.610664,3.785024
13535,,9.397370,-2.920311,2.382654,0.037068,0.010235,0.012158,-51.203371,-69.597418,3.817593
13536,,9.388180,-2.889071,2.341665,0.049300,0.016661,0.023649,-51.197645,-69.578345,3.840067
13537,,9.456967,-2.841557,2.312720,0.061208,0.023333,0.032114,-51.197334,-69.551851,3.881931
13538,,9.408275,-2.765357,2.314775,0.060949,0.030275,0.041924,-51.186196,-69.519728,3.905757
13539,,9.405538,-2.640204,2.290236,0.040295,0.042868,0.046687,-51.181017,-69.483530,3.949104
13540,,9.396198,-2.664349,2.268235,0.017881,0.049383,0.051164,-51.180579,-69.440426,3.958013
13541,,9.330713,-2.655091,2.213854,0.009359,0.064886,0.053285,-51.177691,-69.390225,3.960260
13542,,9.306037,-2.634796,2.228568,-0.014057,0.062724,0.051025,-51.179579,-69.342391,3.952103
13543,,9.349902,-2.752156,2.129738,-0.029465,0.066383,0.049886,-51.190817,-69.292913,3.940273
13544,,9.351126,-2.871166,2.065063,-0.013844,0.064119,0.052658,-51.192504,-69.243848,3.932023
13545,,9.333481,-2.830567,2.106710,0.005646,0.060703,0.048771,-51.194141,-69.201317,3.958151
13546,,9.369536,-2.753243,2.041917,0.014427,0.056013,0.045932,-51.182853,-69.158171,3.953342
13547,,9.296692,-2.677429,2.050217,0.009392,0.056491,0.041886,-51.178797,-69.114416,4.004932
13548,,9.323187,-2.686230,2.074081,0.000013,0.058489,0.039955,-51.167317,-69.073046,3.991069
13549,,9.263436,-2.679654,2.042578,-0.012782,0.059282,0.035210,-51.169254,-69.034138,3.977748
13550,,9.256433,-2.679392,2.023662,-0.022227,0.051865,0.035628,-51.174242,-68.997080,3.967867
13551,,9.290297,-2.701882,1.966634,-0.030053,0.050649,0.034816,-51.187781,-68.961180,3.964303
13552,,9.293384,-2.709227,1.994035,-0.027911,0.048129,0.026697,-51.192036,-68.929451,3.950137
13553,,9.327383,-2.697204,2.043185,-0.028258,0.043665,0.024845,-51.204817,-68.902223,3.936853
13554,,9.330783,-2.703833,2.069921,-0.025714,0.039247,0.021155,-51.212952,-68.876163,3.928187
13555,,9.339213,-2.713850,2.120123,-0.024961,0.039827,0.013424,-51.215279,-68.853533,3.947625
13556,,9.288440,-2.736710,2.129759,-0.016725,0.037155,0.004660,-51.205398,-68.835591,3.925156
13557,,9.291701,-2.689073,2.139810,-0.020660,0.034798,-0.002815,-51.203818,-68.821389,3.912131
13558,,9.304714,-2.648976,2.197132,-0.028472,0.041480,-0.006098,-51.185777,-68.806694,3.873686
13559,,9.261080,-2.650490,2.234077,-0.034737,0.044942,-0.008256,-51.169347,-68.792480,3.830805
13560,,9.260298,-2.650517,2.237287,-0.044109,0.046952,-0.010209,-51.150252,-68.777646,3.781606
13561,,9.221345,-2.656113,2.298005,-0.050095,0.053343,-0.010624,-51.134158,-68.758959,3.758811
13562,,9.232639,-2.673665,2.245712,-0.059254,0.056754,-0.010951,-51.111927,-68.740917,3.696923
13563,,9.220073,-2.708838,2.321716,-0.062262,0.061538,-0.011799,-51.092875,-68.717411,3.659992
13564,,9.237982,-2.706286,2.297531,-0.054339,0.068983,-0.012008,-51.053047,-68.695413,3.582216
13565,,9.212792,-2.705158,2.307759,-0.057372,0.076949,-0.014136,-51.012774,-68.670990,3.481530
13566,,9.160890,-2.674706,2.303465,-0.061967,0.080241,-0.014942,-50.962055,-68.646194,3.387342
13567,,9.229013,-2.702485,2.290699,-0.058504,0.082960,-0.011990,-50.920663,-68.618494,3.316028
13568,,9.266517,-2.749100,2.255941,-0.061515,0.087741,-0.012835,-50.863483,-68.589994,3.215142
13569,,9.282068,-2.770533,2.230244,-0.058055,0.090459,-0.009879,-50.807905,-68.558666,3.156027
13570,,9.288339,-2.783773,2.157463,-0.055076,0.088851,-0.010306,-50.748555,-68.528567,3.056727
13571,,9.359125,-2.839605,2.165554,-0.049051,0.087170,-0.011041,-50.704038,-68.504932,2.967298
13572,,9.383443,-2.816638,2.171227,-0.041564,0.083927,-0.012047,-50.641291,-68.477334,2.872633
13573,,9.372815,-2.808009,2.130751,-0.037143,0.083942,-0.014019,-50.584419,-68.452917,2.780015
13574,,9.323702,-2.805064,2.146956,-0.036012,0.077924,-0.016167,-50.521803,-68.429258,2.688875
13575,,9.315993,-2.824390,2.125547,-0.038896,0.074677,-0.013076,-50.474783,-68.403334,2.616800
13576,,9.292843,-2.798763,2.139874,-0.036035,0.070020,-0.013742,-50.423557,-68.381423,2.537864
13577,,9.228457,-2.807575,2.079962,-0.040728,0.067071,-0.013532,-50.388598,-68.361339,2.492773
13578,,9.208058,-2.810243,2.113197,-0.039246,0.062320,-0.012534,-50.349130,-68.341669,2.424482
13579,,9.183224,-2.808774,2.122362,-0.039429,0.057737,-0.012900,-50.323574,-68.322959,2.375153
13580,,9.163021,-2.811297,2.154699,-0.041559,0.053586,-0.017661,-50.290577,-68.308718,2.312380
13581,,9.140347,-2.785529,2.166869,-0.039934,0.048704,-0.015150,-50.274408,-68.295544,2.263417
13582,,9.159316,-2.781636,2.141688,-0.045329,0.046416,-0.022522,-50.247149,-68.286052,2.204482
13583,,9.166111,-2.812625,2.187838,-0.044687,0.042463,-0.030613,-50.228279,-68.284341,2.164538
13584,,9.188164,-2.835873,2.181647,-0.043342,0.037846,-0.031133,-50.201485,-68.281769,2.107324
13585,,9.190890,-2.862094,2.203298,-0.037543,0.030075,-0.032345,-50.189112,-68.280824,2.093761
13586,,9.215163,-2.860804,2.200297,-0.028657,0.026949,-0.034993,-50.162406,-68.283932,2.045695
13587,,9.233344,-2.878975,2.169373,-0.025901,0.019248,-0.035913,-50.146129,-68.290884,2.024145
13588,,9.266765,-2.885719,2.212958,-0.018259,0.015893,-0.035384,-50.125292,-68.298213,1.988809
13589,,9.278172,-2.867262,2.264903,-0.015442,0.009720,-0.036180,-50.130339,-68.308710,2.001618
13590,,9.273772,-2.807755,2.226085,-0.013780,0.009553,-0.034812,-50.114468,-68.318115,1.974392
13591,,9.253281,-2.832010,2.250640,-0.010960,0.003381,-0.035608,-50.108161,-68.331288,1.948909
13592,,9.284430,-2.810141,2.273467,-0.011214,0.000462,-0.037373,-50.098479,-68.345157,1.929924
13593,,9.259772,-2.829821,2.273849,-0.013017,0.000761,-0.040255,-50.088150,-68.360357,1.952369
13594,,9.232533,-2.821147,2.254544,-0.009887,-0.000964,-0.039160,-50.077591,-68.375533,1.933261
13595,,9.209740,-2.816687,2.258825,-0.005371,-0.002585,-0.039726,-50.072671,-68.393670,1.939407
13596,,9.189673,-2.840438,2.282584,-0.005483,-0.005639,-0.039978,-50.063986,-68.410927,1.925030
13597,,9.192720,-2.812680,2.286014,0.001998,-0.005659,-0.042226,-50.063530,-68.430176,1.933575
13598,,9.170072,-2.807798,2.290284,0.002052,-0.004133,-0.042100,-50.046864,-68.447812,1.915258
13599,,9.217583,-2.829752,2.276407,0.000223,-0.008550,-0.043845,-50.040955,-68.467641,1.942741
13600,,9.199441,-2.829192,2.303977,-0.005626,-0.005512,-0.041491,-50.030752,-68.485515,1.926645
13601,,9.194608,-2.845272,2.275612,-0.005681,-0.007040,-0.041616,-50.027535,-68.499957,1.950671
13602,,9.219901,-2.842406,2.270229,-0.004244,-0.005409,-0.043151,-50.014842,-68.518515,1.932750
13603,,9.187868,-2.905261,2.238522,0.001552,-0.009971,-0.045632,-50.002324,-68.539944,1.928474
13604,,9.243418,-2.883056,2.256013,0.014111,-0.012128,-0.042394,-49.987273,-68.560641,1.919320
13605,,9.229955,-2.886184,2.307214,0.023009,-0.015218,-0.045044,-49.977795,-68.582296,1.938189
13606,,9.227131,-2.877299,2.282849,0.029333,-0.017124,-0.042731,-49.959266,-68.604978,1.934667
13607,,9.254308,-2.849701,2.281345,0.031226,-0.019079,-0.038461,-49.956943,-68.625333,1.975306
13608,,9.251345,-2.841223,2.256911,0.031276,-0.017554,-0.038336,-49.941913,-68.646244,1.976734
13609,,9.251114,-2.861215,2.252269,0.031750,-0.016426,-0.033668,-49.943456,-68.666076,1.977541
13610,,9.256947,-2.861725,2.275044,0.030354,-0.021245,-0.030866,-49.940172,-68.685075,1.991007
13611,,9.234258,-2.857505,2.278889,0.033979,-0.017115,-0.026246,-49.938364,-68.701081,2.031851
13612,,9.256439,-2.827000,2.253880,0.034119,-0.017248,-0.024732,-49.934250,-68.715917,2.046736
13613,,9.275188,-2.845248,2.220903,0.032205,-0.018248,-0.012322,-49.960497,-68.724925,2.115429
13614,,9.258111,-2.822375,2.252808,0.034939,-0.010141,-0.018056,-49.954277,-68.734210,2.128554
13615,,9.234834,-2.819475,2.257388,0.040352,-0.015718,-0.008273,-49.972042,-68.740253,2.175769
13616,,9.229230,-2.838031,2.229421,0.033159,-0.015980,-0.002988,-49.987732,-68.745075,2.211304
13617,,9.252305,-2.785584,2.208382,0.031543,-0.014297,-0.004230,-50.008635,-68.750061,2.271098
13618,,9.234827,-2.764000,2.240277,0.029023,-0.011580,0.000856,-50.025398,-68.751567,2.305236
13619,,9.214026,-2.790780,2.264525,0.032213,-0.011764,0.002072,-50.049901,-68.754372,2.375738
13620,,9.209729,-2.786268,2.240448,0.035484,-0.018315,0.005828,-50.075296,-68.756164,2.423108
13621,,9.304176,-2.813258,2.216889,0.041334,-0.021347,0.003474,-50.100395,-68.760790,2.481972
13622,,9.316916,-2.772334,2.271272,0.045291,-0.017728,-0.004302,-50.109953,-68.766807,2.518373
13623,,9.347487,-2.751824,2.293702,0.047007,-0.016357,-0.002815,-50.125151,-68.770794,2.554313
13624,,9.325743,-2.725385,2.301766,0.040188,-0.020320,-0.008637,-50.136504,-68.779662,2.589496
13625,,9.320248,-2.743664,2.273647,0.040288,-0.017266,-0.008395,-50.157524,-68.788322,2.660799
13626,,9.327031,-2.721979,2.300576,0.038764,-0.017240,-0.008245,-50.166629,-68.795883,2.692690
13627,,9.327623,-2.720422,2.300017,0.032720,-0.015607,-0.007525,-50.182915,-68.805357,2.763582
13628,,9.305781,-2.694190,2.308180,0.029969,-0.011099,-0.005352,-50.192863,-68.809391,2.790969
13629,,9.282182,-2.692356,2.312761,0.022597,-0.008038,-0.002848,-50.208636,-68.811193,2.834117
13630,,9.276215,-2.711589,2.285467,0.021132,-0.001774,-0.003735,-50.214598,-68.811092,2.851795
13631,,9.258521,-2.690136,2.318047,0.021707,-0.002281,0.002322,-50.232404,-68.811084,2.832075
13632,,9.252323,-2.709694,2.291318,0.023001,0.004182,-0.001895,-50.232276,-68.807990,2.844366
13633,,9.303346,-2.662489,2.290413,0.022907,0.005835,-0.003290,-50.241161,-68.804222,2.855547
13634,,9.319476,-2.706561,2.255673,0.019623,0.007669,-0.005900,-50.235234,-68.801612,2.859541
13635,,9.298743,-2.656481,2.269273,0.013200,0.011208,-0.009607,-50.231676,-68.798124,2.893213
13636,,9.321089,-2.680208,2.262101,0.008486,0.011414,-0.010671,-50.223378,-68.796240,2.887816
13637,,9.338911,-2.699820,2.231332,0.003586,0.014926,-0.014528,-50.213702,-68.794683,2.877772
13638,,9.297252,-2.676763,2.269540,-0.005604,0.013558,-0.013748,-50.208143,-68.793368,2.866650
13639,,9.313521,-2.720558,2.234795,-0.007220,0.015237,-0.014995,-50.201986,-68.790721,2.893238
13640,,9.261158,-2.713687,2.221884,-0.004031,0.015059,-0.013779,-50.193798,-68.788867,2.880259
13641,,9.286634,-2.765307,2.234285,-0.004516,0.009200,-0.017282,-50.191935,-68.793298,2.867120
13642,,9.290006,-2.715643,2.242754,0.001819,0.012025,-0.016128,-50.181618,-68.793592,2.855452
13643,,9.239227,-2.760393,2.245864,0.006053,0.010671,-0.019722,-50.171362,-68.798944,2.842745
13644,,9.260479,-2.731314,2.222294,0.010953,0.007161,-0.015863,-50.161581,-68.800909,2.837263
13645,,9.259247,-2.753517,2.219472,0.007478,0.007589,-0.020108,-50.153680,-68.805811,2.809631
13646,,9.313579,-2.733106,2.238311,0.006097,0.007489,-0.018445,-50.143866,-68.808792,2.801128
13647,,9.289935,-2.730378,2.244157,0.002960,0.013900,-0.020703,-50.133478,-68.810786,2.804927
13648,,9.291744,-2.704445,2.249076,-0.001565,0.010795,-0.018978,-50.123801,-68.812787,2.791861
13649,,9.318903,-2.731583,2.265381,-0.006132,0.015578,-0.019692,-50.120753,-68.814109,2.779553
13650,,9.266649,-2.724366,2.252507,-0.012272,0.018858,-0.020375,-50.106752,-68.813760,2.755267
13651,,9.265207,-2.746910,2.250244,-0.016746,0.021987,-0.019693,-50.102540,-68.810657,2.769057
13652,,9.247320,-2.724850,2.283773,-0.024127,0.020331,-0.016041,-50.097789,-68.807858,2.747404
13653,,9.260575,-2.740874,2.229559,-0.023746,0.027843,-0.013932,-50.088354,-68.801735,2.730293
13654,,9.211020,-2.762710,2.236645,-0.025414,0.018575,-0.012983,-50.089241,-68.798237,2.713891
13655,,9.231860,-2.810866,2.225672,-0.020843,0.023211,-0.014584,-50.086691,-68.793980,2.696909
13656,,9.209327,-2.784985,2.235844,-0.010179,0.023042,-0.015617,-50.071309,-68.789996,2.672417
13657,,9.207813,-2.807712,2.233780,-0.002703,0.018340,-0.016713,-50.063507,-68.788554,2.675360
13658,,9.214016,-2.785688,2.262808,0.008777,0.014072,-0.024308,-50.039196,-68.791684,2.652937
13659,,9.232371,-2.803991,2.232217,0.013301,0.012473,-0.024869,-50.020103,-68.797197,2.624024
13660,,9.285266,-2.806616,2.248046,0.015876,0.011276,-0.029825,-49.989640,-68.803773,2.599364
13661,,9.267740,-2.782917,2.281832,0.014916,0.015504,-0.024777,-49.968157,-68.806862,2.625207
13662,,9.289140,-2.829242,2.271170,0.008682,0.011013,-0.024547,-49.947118,-68.811214,2.606234
13663,,9.289468,-2.826922,2.272717,0.009149,0.016872,-0.021042,-49.923891,-68.811425,2.598787
13664,,9.312172,-2.849667,2.265997,0.006197,0.015264,-0.019352,-49.904403,-68.811925,2.579948
13665,,9.283789,-2.843365,2.248795,0.008563,0.019197,-0.011570,-49.892513,-68.808990,2.574898
13666,,9.285030,-2.818309,2.254662,0.004506,0.021943,-0.006349,-49.878839,-68.801325,2.561252
13667,,9.277188,-2.785727,2.213249,0.004787,0.021692,-0.003320,-49.869707,-68.792726,2.548588
13668,,9.257222,-2.788705,2.243872,0.002017,0.026194,-0.001156,-49.857623,-68.781216,2.535114
13669,,9.250681,-2.808938,2.218908,-0.002088,0.027413,0.003944,-49.854893,-68.768632,2.562180
13670,,9.207982,-2.787812,2.257877,-0.006890,0.024550,0.002629,-49.853388,-68.756073,2.554577
13671,,9.231245,-2.789189,2.255299,-0.001665,0.022329,0.009647,-49.862769,-68.741893,2.572923
13672,,9.226099,-2.785824,2.233765,0.000869,0.024312,0.003417,-49.857845,-68.729078,2.566418
13673,,9.225561,-2.785921,2.235867,0.003500,0.019935,-0.000260,-49.865495,-68.719872,2.622459
13674,,9.254988,-2.766334,2.260661,0.009549,0.018317,-0.000959,-49.858211,-68.711189,2.618757
13675,,9.245811,-2.758004,2.215124,0.009319,0.015388,-0.002711,-49.857456,-68.703464,2.623828
13676,,9.268133,-2.782193,2.208363,0.013660,0.012390,-0.004897,-49.850756,-68.698694,2.623275
13677,,9.249893,-2.760538,2.241988,0.018231,0.012322,-0.005331,-49.860405,-68.696173,2.610416
13678,,9.245363,-2.755716,2.219838,0.015138,0.010840,-0.005160,-49.854373,-68.692092,2.611489
13679,,9.245256,-2.755037,2.221122,0.010660,0.009255,-0.003331,-49.861275,-68.690580,2.639839
13680,,9.270516,-2.731090,2.221625,0.013798,0.012265,-0.003383,-49.856102,-68.685198,2.641008
13681,,9.263085,-2.774764,2.191728,0.007613,0.009300,-0.003042,-49.865881,-68.681511,2.673978
13682,,9.240463,-2.749596,2.200892,0.006092,0.004616,-0.001737,-49.875272,-68.678234,2.686039
13683,,9.211963,-2.744736,2.182551,0.009507,0.007377,0.001240,-49.883265,-68.673753,2.760128
13684,,9.195265,-2.775793,2.231435,0.010712,0.001370,-0.000891,-49.894446,-68.671305,2.776953
13685,,9.234479,-2.768815,2.175223,0.018056,-0.003201,-0.003480,-49.906885,-68.672903,2.809478
13686,,9.239105,-2.771985,2.198956,0.016303,-0.006109,-0.005086,-49.919295,-68.675052,2.831059
13687,,9.263436,-2.771671,2.194155,0.023648,-0.010680,-0.007675,-49.939594,-68.678506,2.877733
13688,,9.241406,-2.745390,2.202182,0.026279,-0.010354,-0.012508,-49.944069,-68.685470,2.896927
13689,,9.209142,-2.735237,2.159143,0.026556,-0.010602,-0.009478,-49.952984,-68.692924,2.916716
13690,,9.215624,-2.789964,2.198583,0.023652,-0.015386,-0.006511,-49.970314,-68.699110,2.948088
13691,,9.242997,-2.741328,2.200565,0.021944,-0.016768,-0.007998,-49.995439,-68.708052,3.017011
13692,,9.242106,-2.764314,2.195997,0.023790,-0.015510,-0.004996,-50.014302,-68.713614,3.050110
13693,,9.200498,-2.741891,2.231615,0.020932,-0.018766,-0.001910,-50.044483,-68.718406,3.088852
13694,,9.220433,-2.738261,2.202209,0.013543,-0.015722,0.000562,-50.074738,-68.721592,3.127869
13695,,9.167014,-2.756775,2.182805,0.018119,-0.020495,0.001294,-50.112265,-68.729160,3.179709
13696,,9.167472,-2.756230,2.181568,0.022314,-0.018668,-0.003570,-50.136958,-68.735232,3.218146
13697,,9.208649,-2.801214,2.139930,0.030127,-0.026785,-0.000331,-50.173897,-68.743018,3.302383
13698,,9.292959,-2.762044,2.179064,0.032803,-0.029642,-0.003883,-50.204756,-68.753238,3.353879
13699,,9.299619,-2.740563,2.204701,0.030947,-0.026200,-0.008051,-50.231896,-68.766246,3.427802
13700,,9.306353,-2.718891,2.230274,0.021480,-0.027350,-0.010321,-50.260661,-68.778447,3.470081
13701,,9.337097,-2.698024,2.250894,0.006009,-0.025356,-0.011775,-50.304541,-68.790998,3.530007
13702,,9.334996,-2.745420,2.241471,-0.002432,-0.021124,-0.004493,-50.345525,-68.798331,3.570688
13703,,9.329595,-2.765590,2.212111,-0.011201,-0.018177,-0.000355,-50.395379,-68.804348,3.621923
13704,,9.285064,-2.792582,2.239561,-0.012211,-0.015464,0.004567,-50.444104,-68.805592,3.664893
13705,,9.291040,-2.773513,2.265207,-0.014319,-0.013093,0.014179,-50.507558,-68.801626,3.724094
13706,,9.316191,-2.752022,2.262847,-0.015238,-0.007325,0.019331,-50.562597,-68.793343,3.771975
13707,,9.345644,-2.734812,2.284509,-0.019577,-0.004324,0.021518,-50.630054,-68.782659,3.843344
13708,,9.328465,-2.692496,2.319402,-0.029918,0.001824,0.024523,-50.687839,-68.768716,3.885152
13709,,9.350198,-2.720329,2.310675,-0.039114,0.009843,0.022953,-50.754336,-68.752531,3.930417
13710,,9.320886,-2.718797,2.291527,-0.037450,0.009696,0.024322,-50.807143,-68.735792,3.962260
13711,,9.296042,-2.720942,2.296389,-0.042499,0.018017,0.017770,-50.852956,-68.720635,4.004561
13712,,9.284634,-2.734512,2.372653,-0.037929,0.017947,0.017330,-50.890029,-68.704005,4.019228
13713,,9.298748,-2.729640,2.321563,-0.033645,0.022829,0.012698,-50.920165,-68.689337,3.973122
13714,,9.275357,-2.706746,2.331264,-0.035218,0.026031,0.011564,-50.941075,-68.672348,3.972108
13715,,9.298392,-2.709276,2.328219,-0.036931,0.029356,0.008916,-50.961982,-68.656373,3.944344
13716,,9.301915,-2.714904,2.353660,-0.040073,0.031053,0.007811,-50.976470,-68.639243,3.933446
13717,,9.298031,-2.764589,2.348137,-0.043404,0.036055,0.003913,-50.995196,-68.622214,3.910984
13718,,9.318052,-2.738449,2.326084,-0.042116,0.042514,-0.000302,-50.990368,-68.604564,3.878080
13719,,9.240712,-2.733347,2.319017,-0.041838,0.042262,0.002728,-50.988819,-68.584632,3.888730
13720,,9.233833,-2.754470,2.294305,-0.043781,0.042660,-0.001671,-50.983584,-68.567537,3.854353
13721,,9.297462,-2.801574,2.252180,-0.042306,0.045816,-0.003091,-50.972274,-68.551304,3.833483
13722,,9.250059,-2.776571,2.268273,-0.037874,0.045871,-0.005038,-50.956998,-68.534546,3.791944
13723,,9.244794,-2.772811,2.247865,-0.038106,0.047650,-0.007947,-50.939039,-68.520345,3.758932
13724,,9.290497,-2.798390,2.238124,-0.039861,0.044744,-0.009559,-50.922114,-68.505999,3.714388
13725,,9.258517,-2.841825,2.214320,-0.047575,0.046509,-0.010236,-50.919243,-68.490914,3.707138
13726,,9.301412,-2.839208,2.184547,-0.041526,0.044890,-0.010928,-50.901942,-68.477118,3.661152
13727,,9.249901,-2.885850,2.188803,-0.039912,0.043211,-0.009677,-50.891602,-68.464064,3.636967
13728,,9.271749,-2.834490,2.171032,-0.041255,0.039922,-0.006749,-50.883644,-68.450200,3.601185
13729,,9.235599,-2.873973,2.122910,-0.038252,0.038350,-0.007154,-50.876820,-68.435913,3.562496
13730,,9.237894,-2.902307,2.145015,-0.036683,0.035145,-0.006026,-50.872332,-68.423449,3.533251
13731,,9.214770,-2.877860,2.155403,-0.033499,0.030262,-0.003647,-50.889596,-68.409868,3.562354
13732,,9.243986,-2.858819,2.180354,-0.027582,0.028776,-0.005849,-50.887254,-68.399629,3.541018
13733,,9.213891,-2.878076,2.158871,-0.029377,0.024347,-0.007592,-50.892999,-68.391170,3.537669
13734,,9.209321,-2.873800,2.136602,-0.023324,0.022733,-0.008278,-50.892802,-68.384195,3.521260
13735,,9.213403,-2.877513,2.161701,-0.018930,0.021271,-0.010338,-50.896809,-68.380853,3.475710
13736,,9.209069,-2.872816,2.139011,-0.019198,0.012111,-0.011081,-50.903622,-68.378964,3.469381
13737,,9.217697,-2.880304,2.187092,-0.013190,0.013682,-0.013033,-50.904797,-68.377553,3.477545
13738,,9.220703,-2.907534,2.207521,-0.011798,0.009081,-0.013545,-50.908524,-68.377856,3.472455
13739,,9.246275,-2.883207,2.207526,-0.010139,0.008930,-0.012171,-50.924843,-68.378272,3.468759
13740,,9.274665,-2.887171,2.227346,-0.005296,0.008606,-0.009562,-50.929023,-68.376975,3.468161
13741,,9.270494,-2.882288,2.204220,-0.006865,0.007101,-0.009546,-50.948134,-68.375067,3.477639
13742,,9.284757,-2.870174,2.279578,-0.006371,0.005053,-0.003611,-50.962347,-68.372403,3.487169
13743,,9.277560,-2.837631,2.236653,-0.007898,0.009784,-0.004613,-50.964540,-68.369393,3.476192
13744,,9.308570,-2.870528,2.276275,-0.009154,0.009544,-0.001444,-50.977267,-68.364144,3.482406
13745,,9.282931,-2.817655,2.265551,-0.010813,0.009695,-0.002818,-50.998130,-68.358699,3.476381
13746,,9.256037,-2.864968,2.262713,-0.007898,0.009784,-0.004613,-51.006988,-68.354771,3.479204
13747,,9.234670,-2.816056,2.275847,-0.004537,0.011008,-0.001738,-51.020291,-68.346639,3.546872
13748,,9.238771,-2.819959,2.300465,-0.001755,0.011227,-0.005046,-51.023618,-68.342381,3.547527
13749,,9.264050,-2.796040,2.301067,0.004344,0.011145,-0.005604,-51.037242,-68.339799,3.548935
13750,,9.244139,-2.798975,2.330500,0.001425,0.015765,-0.004951,-51.033758,-68.333866,3.544221
13751,,9.269337,-2.774898,2.331584,0.004207,0.015985,-0.008259,-51.027771,-68.331856,3.541425
13752,,9.267793,-2.798116,2.329276,0.002725,0.017531,-0.007996,-51.018807,-68.326645,3.531616
13753,,9.298629,-2.753813,2.358283,0.005551,0.019278,-0.011178,-51.003137,-68.322649,3.530152
13754,,9.318240,-2.749184,2.332132,-0.000639,0.021015,-0.012013,-50.988564,-68.317969,3.512231
13755,,9.316629,-2.772138,2.330438,-0.003607,0.028818,-0.012627,-50.975221,-68.310879,3.474477
13756,,9.292296,-2.770455,2.337376,-0.006657,0.028857,-0.012350,-50.955045,-68.303516,3.446811
13757,,9.282146,-2.785178,2.288684,-0.006704,0.032040,-0.013615,-50.940146,-68.293815,3.440470
13758,,9.287294,-2.764308,2.319201,-0.011062,0.035021,-0.011437,-50.916485,-68.283810,3.406329
13759,,9.312162,-2.740119,2.321688,-0.009447,0.033344,-0.010184,-50.900204,-68.276665,3.371012
