// Start Time: Unknown
// Update Rate: 100.0Hz
// Filter Profile: human (46.1)
// Firmware Version: 4.3.5
PacketCounter,SampleTimeFine,Acc_X,Acc_Y,Acc_Z,Gyr_X,Gyr_Y,Gyr_Z,Roll,Pitch,Yaw
04576,,9.706742,-1.389885,1.973267,-0.022812,-0.018741,-0.030870,-35.169335,-76.026881,27.046774
04577,,9.659758,-1.423014,2.019578,0.004535,-0.022473,-0.039361,-35.191723,-75.641921,26.996278
04578,,9.592959,-1.394149,2.030332,0.039516,-0.025581,-0.044495,-35.118576,-75.851899,26.978049
04579,,9.591236,-1.394246,2.069876,0.071138,-0.036784,-0.052667,-35.027825,-75.886488,26.926497
04580,,9.635932,-1.418578,2.123236,0.099151,-0.038672,-0.057940,-34.912242,-75.923388,26.865548
04581,,9.647718,-1.483160,2.125941,0.132165,-0.041808,-0.052688,-34.792252,-75.960297,26.819915
04582,,9.649623,-1.440957,2.014722,0.162224,-0.039395,-0.061276,-34.634864,-75.998414,26.753518
04583,,9.602267,-1.379013,1.931129,0.180972,-0.048602,-0.049715,-34.500427,-76.037506,26.721830
04584,,9.657317,-1.356448,1.906085,0.185274,-0.048979,-0.051861,-34.359913,-76.076926,26.686402
04585,,9.625566,-1.305431,1.878847,0.182881,-0.045489,-0.045277,-34.227877,-76.113075,26.658326
04586,,9.658703,-1.284921,1.880592,0.170101,-0.046790,-0.040194,-34.115548,-76.148187,26.642932
04587,,9.699254,-1.342692,1.929766,0.161272,-0.042477,-0.035913,-34.009280,-76.179874,26.628652
04588,,9.691815,-1.319711,1.943563,0.160740,-0.042090,-0.033746,-33.908729,-76.211288,26.619830
04589,,9.629639,-1.339802,1.934009,0.157188,-0.042038,-0.029955,-33.815276,-76.240851,26.616338
04590,,9.626670,-1.368016,1.927488,0.158144,-0.044035,-0.026462,-33.733396,-76.271052,26.625156
04591,,9.610439,-1.329173,1.956891,0.179547,-0.044223,-0.024601,-33.640052,-76.299953,26.634965
04592,,9.591037,-1.263391,1.918155,0.186551,-0.045577,-0.024335,-33.549839,-76.330033,26.651833
04593,,9.616626,-1.198872,1.981418,0.187744,-0.049349,-0.018879,-33.469399,-76.359580,26.679752
04594,,9.695355,-1.173937,1.886722,0.173792,-0.046915,-0.019179,-33.395061,-76.389058,26.705608
04595,,9.700172,-1.050371,1.912354,0.154287,-0.043511,-0.016684,-33.330334,-76.415136,26.729964
04596,,9.705695,-1.096939,1.890004,0.126809,-0.041999,-0.013533,-33.280189,-76.442595,26.753428
04597,,9.718680,-1.135867,1.940266,0.116175,-0.037914,-0.019549,-33.224189,-76.466904,26.764295
04598,,9.696615,-1.161693,1.918980,0.105225,-0.035091,-0.021535,-33.153456,-76.495442,26.754284
04599,,9.667323,-1.141497,1.959351,0.102703,-0.033846,-0.020322,-33.098135,-76.518045,26.757907
04600,,9.626269,-1.163844,1.923497,0.097829,-0.030986,-0.014329,-33.035143,-76.543335,26.751882
04601,,9.612656,-1.207468,1.887500,0.102732,-0.027336,-0.011705,-32.988452,-76.560129,26.764398
04602,,9.585273,-1.099098,1.909841,0.102607,-0.028290,-0.004041,-32.936032,-76.581532,26.772188
04603,,9.567562,-1.033544,1.828474,0.085045,-0.030662,0.003627,-32.934675,-76.595152,26.820885
04604,,9.608376,-1.036645,1.814263,0.054166,-0.028527,0.014034,-32.938638,-76.613249,26.858477
04605,,9.638790,-1.053872,1.769774,0.018123,-0.021143,0.017204,-32.990718,-76.618049,26.922686
04606,,9.622623,-1.047357,1.710760,-0.001919,-0.024276,0.024386,-33.032183,-76.634589,26.966008
04607,,9.656459,-1.091670,1.734387,-0.028751,-0.022211,0.017735,-33.113724,-76.639690,27.032879
04608,,9.689792,-1.195617,1.822236,-0.040357,-0.028440,0.015245,-33.168650,-76.663901,27.067602
04609,,9.689571,-1.257450,1.883626,-0.034088,-0.029577,0.013947,-33.255574,-76.673673,27.136855
04610,,9.721770,-1.245700,1.883429,-0.024159,-0.035062,0.005623,-33.295618,-76.703387,27.165518
04611,,9.719829,-1.251090,1.921915,-0.014975,-0.031722,0.005995,-33.358672,-76.716633,27.221490
04612,,9.720408,-1.251663,1.918611,-0.008891,-0.033191,0.001091,-33.383603,-76.749471,27.242670
04613,,9.775777,-1.208741,1.937639,-0.012476,-0.025841,0.002129,-33.429845,-76.761098,27.282854
04614,,9.740031,-1.171313,1.951565,-0.006525,-0.015970,-0.002163,-33.418564,-76.785340,27.268796
04615,,9.708306,-1.099797,1.970204,-0.024583,-0.007645,-0.001067,-33.440916,-76.789263,27.277315
04616,,9.661365,-1.135587,2.019978,-0.040751,0.004047,0.004248,-33.420425,-76.802436,27.234756
04617,,9.669792,-1.153675,2.004610,-0.053753,0.009794,0.002983,-33.444224,-76.796763,27.227583
04618,,9.684964,-1.218250,1.928434,-0.061851,0.019216,0.004310,-33.393029,-76.798486,27.142205
04619,,9.665569,-1.215884,1.914839,-0.067136,0.023519,0.004748,-33.409531,-76.785662,27.119616
04620,,9.665041,-1.217711,1.916341,-0.069660,0.024788,0.005948,-33.371024,-76.784701,27.041340
04621,,9.666460,-1.275120,1.940122,-0.074375,0.021424,0.006971,-33.399024,-76.772164,27.026289
04622,,9.704605,-1.309847,1.883333,-0.069347,0.026025,0.001934,-33.355847,-76.769279,26.944035
04623,,9.706066,-1.366848,1.906991,-0.059851,0.018359,0.005268,-33.376135,-76.758756,26.929594
04624,,9.705668,-1.368136,1.908095,-0.047062,0.019460,0.000259,-33.332056,-76.758214,26.859226
04625,,9.712008,-1.330306,1.871463,-0.033624,0.017388,0.002732,-33.333378,-76.748968,26.840709
04626,,9.692761,-1.326950,1.857809,-0.021633,0.015634,0.002197,-33.312576,-76.750135,26.807444
04627,,9.660436,-1.255998,1.879502,-0.010957,0.016597,0.003916,-33.304471,-76.740934,26.792615
04628,,9.691799,-1.243228,1.884455,-0.004201,0.017075,0.002161,-33.275583,-76.735923,26.761434
04629,,9.681211,-1.256295,1.855345,0.001499,0.011339,0.007263,-33.274282,-76.728163,26.760946
04630,,9.670407,-1.184560,1.849799,0.003071,0.011972,0.002629,-33.241916,-76.728367,26.729299
04631,,9.642632,-1.163751,1.851719,-0.002345,0.013878,-0.002191,-33.220302,-76.722325,26.705682
04632,,9.659747,-1.196947,1.821584,-0.000025,0.007177,-0.002661,-33.186680,-76.730276,26.671570
04633,,9.674447,-1.234354,1.832931,0.006653,0.003180,-0.011334,-33.155537,-76.732264,26.643466
04634,,9.687422,-1.215452,1.821715,0.007065,0.000298,-0.018691,-33.094583,-76.745176,26.586130
04635,,9.697259,-1.260948,1.916434,0.012120,-0.002257,-0.021070,-33.047541,-76.752822,26.544894
04636,,9.708789,-1.270625,1.858888,0.010134,-0.001463,-0.021976,-32.993076,-76.771763,26.495469
04637,,9.674823,-1.286017,1.897535,0.016658,0.000767,-0.025669,-32.929944,-76.779420,26.440416
04638,,9.692427,-1.316914,1.866671,0.021533,-0.000656,-0.018748,-32.875908,-76.791108,26.398264
04639,,9.669252,-1.259821,1.871713,0.020037,0.001732,-0.020094,-32.820909,-76.796530,26.353568
04640,,9.671048,-1.228207,1.918059,0.013823,0.000767,-0.020437,-32.777383,-76.815559,26.318858
04641,,9.671693,-1.310805,1.894647,0.006834,0.002035,-0.020625,-32.728362,-76.821126,26.272588
04642,,9.657149,-1.270445,1.884143,0.007865,0.003146,-0.023159,-32.681587,-76.828796,26.229560
04643,,9.631735,-1.302891,1.907777,0.010233,0.008102,-0.019373,-32.625287,-76.830966,26.177850
04644,,9.581236,-1.309990,1.890462,0.014461,0.009859,-0.019935,-32.573976,-76.839552,26.134398
04645,,9.623229,-1.281936,1.925295,0.015471,0.005874,-0.018147,-32.520223,-76.842421,26.088434
04646,,9.629906,-1.386615,1.928802,0.023233,0.003844,-0.005217,-32.505237,-76.840421,26.086931
04647,,9.697799,-1.409824,1.917113,0.038081,0.008654,-0.002395,-32.467550,-76.837018,26.070784
04648,,9.665931,-1.422453,1.915134,0.055618,0.007420,0.007167,-32.458314,-76.830839,26.093221
04649,,9.688588,-1.392114,1.935958,0.073666,0.012866,0.011973,-32.424531,-76.820913,26.102032
04650,,9.717130,-1.383535,1.983963,0.089599,0.018165,0.023513,-32.435311,-76.806897,26.168563
04651,,9.748468,-1.455920,1.967484,0.111028,0.024565,0.033913,-32.410243,-76.784630,26.208393
04652,,9.719697,-1.436782,1.972719,0.135552,0.035751,0.049617,-32.428905,-76.743571,26.307590
04653,,9.743703,-1.405071,1.955616,0.141147,0.047877,0.063982,-32.417862,-76.700691,26.379608
04654,,9.720937,-1.350214,1.924903,0.139726,0.056202,0.082480,-32.483152,-76.639000,26.530315
04655,,9.680574,-1.263296,1.925511,0.125955,0.065634,0.094264,-32.518779,-76.578076,26.641449
04656,,9.625013,-1.109833,1.804482,0.100114,0.072370,0.099610,-32.594560,-76.505085,26.773885
04657,,9.548593,-0.901918,1.842888,0.052180,0.063692,0.094032,-32.672715,-76.445036,26.885301
04658,,9.552731,-1.015890,1.852514,0.000968,0.049921,0.079526,-32.786430,-76.398810,27.002736
04659,,9.588889,-1.200580,1.841543,-0.012954,0.042327,0.055973,-32.852039,-76.360842,27.062900
04660,,9.534385,-1.302994,1.845665,0.005196,0.028824,0.027531,-32.892868,-76.339568,27.110790
04661,,9.523752,-1.316774,1.817259,0.026198,0.008127,-0.003435,-32.862016,-76.336517,27.094825
04662,,9.560016,-1.267624,1.824794,0.048214,-0.009967,-0.024027,-32.820940,-76.349078,27.080388
04663,,9.598211,-1.186711,1.876725,0.045594,-0.019776,-0.038305,-32.745456,-76.370256,27.029935
04664,,9.653954,-1.224162,1.874825,0.034368,-0.020203,-0.037983,-32.687910,-76.398525,26.989758
04665,,9.664964,-1.292235,1.881289,0.027996,-0.014887,-0.033407,-32.625554,-76.415884,26.942442
04666,,9.707407,-1.262975,1.914263,0.018721,-0.007429,-0.021970,-32.603748,-76.435410,26.935018
04667,,9.695938,-1.218953,1.860686,0.007461,0.000832,-0.011461,-32.576856,-76.438499,26.912139
04668,,9.672747,-1.163379,1.864799,-0.017455,0.005799,-0.002767,-32.599394,-76.442792,26.928567
04669,,9.715994,-1.193041,1.922396,-0.033948,0.016304,0.006478,-32.612433,-76.432918,26.922402
04670,,9.733011,-1.228102,1.892761,-0.043312,0.012649,0.002470,-32.615343,-76.429147,26.888545
04671,,9.761617,-1.219750,1.939376,-0.043218,0.022777,-0.006228,-32.599617,-76.420073,26.847206
04672,,9.728079,-1.262870,1.892090,-0.047406,0.026108,-0.010023,-32.584211,-76.408713,26.798408
04673,,9.701700,-1.211757,1.939860,-0.049507,0.024474,-0.016192,-32.550043,-76.401790,26.734334
04674,,9.672584,-1.219923,1.896051,-0.060355,0.023198,-0.021565,-32.543194,-76.405388,26.699862
04675,,9.640676,-1.232091,1.894138,-0.072025,0.026232,-0.025141,-32.502114,-76.400414,26.615495
04676,,9.633389,-1.269507,1.933939,-0.080770,0.026568,-0.024330,-32.480639,-76.404810,26.549127
04677,,9.597276,-1.315726,1.928176,-0.079175,0.027153,-0.028941,-32.434945,-76.400607,26.455827
04678,,9.611673,-1.352916,1.940889,-0.081803,0.025427,-0.021760,-32.420224,-76.399535,26.393521
04679,,9.588454,-1.382339,1.923604,-0.079824,0.031762,-0.023501,-32.379997,-76.391398,26.305457
04680,,9.638627,-1.372748,1.944076,-0.079923,0.028745,-0.017496,-32.355812,-76.387316,26.227957
04681,,9.667080,-1.363952,1.991307,-0.079202,0.028571,-0.015972,-32.334210,-76.378409,26.159358
04682,,9.659658,-1.372261,1.920531,-0.077216,0.027757,-0.015036,-32.347384,-76.377170,26.135598
04683,,9.689787,-1.418711,1.990248,-0.069125,0.025487,-0.018984,-32.318183,-76.370734,26.065205
04684,,9.679547,-1.431030,1.961264,-0.058228,0.024679,-0.015251,-32.298957,-76.364690,26.003595
04685,,9.690975,-1.472878,2.015927,-0.035891,0.023201,-0.021136,-32.249231,-76.360007,25.931627
04686,,9.679196,-1.428760,1.964649,-0.017460,0.020643,-0.019280,-32.215589,-76.350424,25.880245
04687,,9.628166,-1.351624,1.970831,-0.005515,0.013803,-0.015428,-32.171714,-76.348437,25.832158
04688,,9.617641,-1.277971,1.965042,-0.006944,0.014112,-0.018440,-32.158469,-76.350140,25.819574
04689,,9.645737,-1.381882,1.942355,-0.003638,0.010604,-0.019769,-32.109041,-76.351038,25.766936
04690,,9.649964,-1.345800,1.947302,0.005169,0.008207,-0.022224,-32.084968,-76.353882,25.746340
04691,,9.613732,-1.305983,1.963929,0.003188,0.008998,-0.023141,-32.026986,-76.356562,25.688956
04692,,9.559373,-1.346799,1.941943,0.005007,0.007874,-0.025822,-31.991962,-76.363422,25.657813
04693,,9.590141,-1.360350,1.900519,0.017717,0.005967,-0.024778,-31.926159,-76.368077,25.600973
04694,,9.647841,-1.309871,1.882213,0.014692,0.005652,-0.023166,-31.907200,-76.365727,25.590725
04695,,9.620485,-1.286638,1.883090,0.013708,0.002470,-0.022295,-31.853203,-76.371219,25.543698
04696,,9.664028,-1.313789,1.940264,0.008148,0.003432,-0.019510,-31.879549,-76.376544,25.597041
04697,,9.660152,-1.345772,1.936720,0.006167,0.004222,-0.020428,-31.832015,-76.380608,25.552398
04698,,9.671451,-1.270881,1.903400,0.003963,0.006754,-0.023287,-31.764949,-76.380568,25.462854
04699,,9.668656,-1.273304,1.945725,-0.010714,0.002290,-0.022594,-31.724590,-76.386155,25.415480
04700,,9.666654,-1.360906,1.964293,-0.015007,0.002612,-0.020396,-31.739805,-76.389104,25.430872
04701,,9.684550,-1.392363,1.933973,0.001205,0.009771,-0.024048,-31.680641,-76.391435,25.371248
04702,,9.639417,-1.335727,1.965830,0.009748,0.004050,-0.024123,-31.677720,-76.382523,25.374051
04703,,9.646550,-1.325101,2.038706,0.011239,0.001669,-0.022768,-31.625778,-76.388218,25.327804
04704,,9.649770,-1.318018,1.997380,0.015184,0.007237,-0.023584,-31.593717,-76.388988,25.304038
04705,,9.621291,-1.324346,1.952675,0.019085,0.007733,-0.020086,-31.535174,-76.390861,25.255623
04706,,9.631230,-1.309399,1.984319,0.017754,0.010444,-0.017839,-31.512315,-76.399436,25.253138
04707,,9.615514,-1.298887,1.928485,0.012746,0.010915,-0.017150,-31.459468,-76.398961,25.206915
04708,,9.634271,-1.300995,1.944801,0.009006,0.010750,-0.017048,-31.439737,-76.396710,25.192928
04709,,9.675653,-1.387648,1.911179,0.006341,0.016176,-0.012560,-31.393414,-76.392253,25.149643
04710,,9.629249,-1.361291,1.897642,0.018535,0.008212,-0.017984,-31.379168,-76.389888,25.146504
04711,,9.600722,-1.253784,1.922145,0.015018,0.006306,-0.015942,-31.333394,-76.391215,25.108931
04712,,9.658060,-1.348692,1.944799,0.007113,0.002310,-0.016964,-31.330893,-76.403485,25.121095
04713,,9.667130,-1.363611,1.929883,0.015798,0.004078,-0.016091,-31.287204,-76.406042,25.086199
04714,,9.662308,-1.310726,1.949955,0.024324,0.005508,-0.018814,-31.294401,-76.406848,25.122861
04715,,9.649560,-1.325829,1.962332,0.029981,0.006960,-0.016333,-31.238961,-76.408035,25.084348
04716,,9.662467,-1.306466,1.952027,0.033881,0.007461,-0.012832,-31.232658,-76.400407,25.097379
04717,,9.651565,-1.232558,1.946077,0.034304,0.011124,-0.011608,-31.179420,-76.398053,25.063703
04718,,9.641671,-1.243942,1.916911,0.022751,0.009378,-0.007280,-31.204048,-76.391784,25.114687
04719,,9.641553,-1.242702,1.918308,0.019765,0.014126,-0.009993,-31.159155,-76.387434,25.081124
04720,,9.626611,-1.203427,1.908524,0.011081,0.012355,-0.010869,-31.159936,-76.378962,25.082421
04721,,9.641336,-1.240155,1.921045,0.002887,0.012173,-0.012181,-31.122903,-76.376154,25.047023
04722,,9.646272,-1.289752,1.903081,-0.002347,0.014381,-0.013441,-31.094551,-76.382054,25.015358
04723,,9.631372,-1.250650,1.892962,-0.005083,0.010252,-0.011551,-31.065575,-76.380094,24.983546
04724,,9.692521,-1.312257,1.920262,-0.012144,0.013587,-0.010138,-31.088137,-76.371380,25.008533
04725,,9.667789,-1.286485,1.879586,-0.019625,0.013254,-0.009945,-31.067362,-76.367411,24.976633
04726,,9.642786,-1.290856,1.949347,-0.016596,0.013566,-0.011546,-31.085365,-76.360530,24.992176
04727,,9.629823,-1.307488,1.961789,-0.024077,0.013231,-0.011353,-31.064550,-76.356942,24.957649
04728,,9.694115,-1.364569,1.946959,-0.012718,0.009576,-0.014950,-31.098916,-76.358426,25.014709
04729,,9.640720,-1.377332,1.970897,-0.002277,0.012302,-0.015086,-31.059626,-76.356410,24.974149
04730,,9.632067,-1.328915,1.876809,0.007479,0.008039,-0.014069,-31.064733,-76.361130,24.997920
04731,,9.645680,-1.280498,1.912307,0.009169,0.011067,-0.013430,-31.023939,-76.359273,24.962634
04732,,9.627689,-1.245824,1.943948,0.002135,0.007259,-0.009360,-31.016117,-76.352092,24.934889
04733,,9.638725,-1.316752,1.951803,-0.005430,0.004503,-0.014422,-30.989589,-76.353677,24.905619
04734,,9.655517,-1.263923,1.944792,0.000069,0.005623,-0.015533,-30.993074,-76.354741,24.909659
04735,,9.683268,-1.283049,1.945388,-0.001495,0.010071,-0.015233,-30.956016,-76.353816,24.871905
04736,,9.668381,-1.243667,1.935143,-0.004747,0.011490,-0.015571,-30.976863,-76.361285,24.917018
04737,,9.614961,-1.256559,1.959047,-0.009534,0.010220,-0.012953,-30.949209,-76.359700,24.884338
04738,,9.658555,-1.254286,1.906611,-0.014840,0.014497,-0.012558,-30.963098,-76.361204,24.903219
04739,,9.626856,-1.266914,1.904142,-0.016892,0.017355,-0.011823,-30.933506,-76.355825,24.864281
04740,,9.595833,-1.250172,1.947504,-0.022879,0.014641,-0.010279,-30.971987,-76.340729,24.901719
04741,,9.629660,-1.261447,1.864540,-0.039670,0.015078,-0.007229,-30.967858,-76.334999,24.875600
04742,,9.645098,-1.269649,1.922451,-0.036496,0.011239,-0.012139,-31.026325,-76.331702,24.926807
04743,,9.677964,-1.340476,1.903659,-0.037989,0.013605,-0.013489,-31.010877,-76.328533,24.890164
04744,,9.656038,-1.340595,1.931120,-0.027032,0.010795,-0.011398,-31.038175,-76.333023,24.922186
04745,,9.665707,-1.327035,1.962235,-0.018696,0.006841,-0.013394,-31.020266,-76.333206,24.894461
04746,,9.672726,-1.287320,1.924739,-0.018135,0.006353,-0.015482,-31.047078,-76.327633,24.920391
04747,,9.682405,-1.273512,1.955922,-0.020262,0.011283,-0.013085,-31.025537,-76.325470,24.888038
04748,,9.650851,-1.286064,1.952808,-0.022171,0.009987,-0.015663,-31.040659,-76.326330,24.906763
04749,,9.610248,-1.282022,1.965056,-0.019551,0.011131,-0.011576,-31.022094,-76.323799,24.877935
04750,,9.597390,-1.298524,1.977135,-0.016448,0.009378,-0.014833,-31.006885,-76.331965,24.848589
04751,,9.625149,-1.317965,1.977651,-0.016448,0.009377,-0.014832,-30.982000,-76.331330,24.815084
04752,,9.659785,-1.299029,1.940459,-0.016933,0.012273,-0.007487,-31.011941,-76.331593,24.854820
04753,,9.594514,-1.270229,1.911150,-0.016372,0.011786,-0.009575,-30.994911,-76.328260,24.829513
04754,,9.631795,-1.277578,1.942402,-0.026881,0.011106,-0.007790,-31.015226,-76.335393,24.844912
04755,,9.651936,-1.366009,1.934740,-0.031330,0.011074,-0.009199,-31.008463,-76.332394,24.821403
04756,,9.692433,-1.368535,1.924098,-0.021043,0.013489,-0.012915,-31.028199,-76.333123,24.842106
04757,,9.646460,-1.313869,1.955994,-0.014537,0.010666,-0.012242,-31.006372,-76.331254,24.813063
04758,,9.655479,-1.329891,1.941290,-0.014653,0.007675,-0.006285,-31.051304,-76.339995,24.881578
04759,,9.686894,-1.315910,1.945984,-0.017642,0.012410,-0.008981,-31.035993,-76.336405,24.857524
04760,,9.661092,-1.350442,1.969589,-0.009306,0.012956,-0.004067,-31.045530,-76.322177,24.839873
04761,,9.680698,-1.293836,1.921628,-0.007472,0.011841,-0.006740,-31.029609,-76.318118,24.821143
04762,,9.677362,-1.297930,1.964509,-0.003656,0.009947,-0.008494,-31.046021,-76.318132,24.840896
04763,,9.631281,-1.243395,1.996603,-0.005936,0.014534,-0.009684,-31.020158,-76.313639,24.812879
04764,,9.630654,-1.271887,1.951767,-0.009599,0.012281,-0.011253,-31.038586,-76.303794,24.822808
04765,,9.602815,-1.250275,1.952957,-0.008473,0.011314,-0.015431,-31.006711,-76.302512,24.787127
04766,,9.671184,-1.272601,1.942199,-0.016438,0.009362,-0.014819,-31.005169,-76.304279,24.784503
04767,,9.654610,-1.323060,1.950261,-0.015541,0.014611,-0.014010,-30.976224,-76.300968,24.747670
04768,,9.648669,-1.300532,1.924967,-0.009257,0.013531,-0.015269,-30.969022,-76.295553,24.728155
04769,,9.644933,-1.333297,1.921894,-0.008471,0.011310,-0.015426,-30.937240,-76.294244,24.692569
04770,,9.691362,-1.356536,1.937942,-0.006345,0.010867,-0.010911,-30.952578,-76.278756,24.696275
04771,,9.650658,-1.352640,1.950447,-0.002684,0.013121,-0.009339,-30.927719,-76.274643,24.671213
04772,,9.657523,-1.312789,1.913862,0.002406,0.010602,-0.011676,-30.941363,-76.267538,24.691490
04773,,9.620539,-1.274520,1.930499,0.000425,0.011378,-0.012596,-30.910476,-76.265192,24.662084
04774,,9.679776,-1.280270,1.935313,-0.007539,0.009421,-0.011988,-30.942639,-76.268974,24.729964
04775,,9.651999,-1.258576,1.936131,-0.011343,0.006830,-0.017153,-30.915084,-76.270244,24.697140
04776,,9.664779,-1.239975,1.925758,-0.014125,0.014302,-0.010996,-30.926078,-76.263450,24.699873
04777,,9.673825,-1.255623,1.911464,-0.014753,0.012376,-0.014162,-30.899938,-76.261082,24.666509
04778,,9.651796,-1.255424,1.939185,-0.014267,0.013964,-0.014586,-30.884850,-76.256572,24.636286
04779,,9.657522,-1.275762,1.966977,-0.017600,0.017437,-0.013258,-30.856048,-76.251423,24.598470
04780,,9.673468,-1.252471,1.915336,-0.024026,0.018172,-0.015590,-30.877091,-76.242538,24.627640
04781,,9.679157,-1.272806,1.943317,-0.021560,0.018983,-0.015093,-30.845304,-76.237125,24.584464
04782,,9.647564,-1.285114,1.940794,-0.028834,0.019528,-0.022522,-30.821816,-76.248687,24.562010
04783,,9.665817,-1.316745,1.911470,-0.027419,0.019230,-0.019510,-30.784240,-76.244554,24.509467
04784,,9.660184,-1.264611,1.932469,-0.030509,0.016487,-0.023171,-30.772689,-76.243497,24.498141
04785,,9.675216,-1.300979,1.944589,-0.034732,0.014705,-0.022654,-30.738478,-76.242499,24.444758
04786,,9.684417,-1.315882,1.930239,-0.036933,0.017209,-0.025496,-30.728973,-76.229277,24.394538
04787,,9.662424,-1.315170,1.957988,-0.034951,0.016430,-0.024572,-30.689121,-76.227876,24.335192
04788,,9.656333,-1.321315,1.886556,-0.035518,0.016904,-0.022479,-30.677124,-76.220714,24.287023
04789,,9.665939,-1.277999,1.964633,-0.031778,0.017091,-0.022563,-30.638785,-76.218341,24.231088
04790,,9.653119,-1.294033,1.976935,-0.032262,0.015496,-0.022137,-30.644443,-76.211490,24.223153
04791,,9.634453,-1.288521,1.962846,-0.028744,0.017422,-0.024147,-30.600994,-76.209357,24.163766
04792,,9.634401,-1.287022,1.964089,-0.028384,0.016012,-0.018627,-30.573264,-76.209939,24.097146
04793,,9.621571,-1.303156,1.976397,-0.024782,0.015872,-0.022304,-30.533000,-76.208036,24.043344
04794,,9.628494,-1.262490,1.939937,-0.025749,0.012688,-0.021459,-30.498344,-76.216570,23.981919
04795,,9.640080,-1.333065,1.947473,-0.029572,0.014556,-0.019701,-30.467476,-76.214606,23.934945
04796,,9.662057,-1.330585,1.922116,-0.024161,0.017783,-0.019123,-30.444937,-76.211455,23.889938
04797,,9.630587,-1.343145,1.919052,-0.029918,0.013288,-0.015685,-30.423840,-76.208939,23.852798
04798,,9.624693,-1.320608,1.893590,-0.026884,0.013629,-0.017272,-30.419808,-76.202456,23.825856
04799,,9.643343,-1.323258,1.909632,-0.031723,0.009918,-0.019934,-30.395214,-76.202792,23.784030
04800,,9.627177,-1.344998,1.963089,-0.029473,0.009802,-0.011833,-30.401711,-76.207210,23.773187
04801,,9.649197,-1.343078,1.937189,-0.024682,0.011114,-0.014425,-30.382733,-76.205395,23.741301
04802,,9.617882,-1.326856,1.979786,-0.019360,0.006887,-0.014845,-30.390292,-76.209375,23.743165
04803,,9.627221,-1.342241,1.964761,-0.016897,0.007707,-0.014346,-30.371075,-76.209237,23.715639
04804,,9.667955,-1.314948,2.000393,-0.015709,0.009150,-0.013260,-30.387065,-76.216268,23.746767
04805,,9.645839,-1.344195,1.981403,-0.014522,0.010592,-0.012175,-30.367563,-76.214128,23.720398
04806,,9.634102,-1.271316,1.975746,-0.015004,0.009000,-0.011756,-30.382341,-76.216108,23.731649
04807,,9.652648,-1.303342,1.945585,-0.019051,0.012599,-0.011917,-30.363678,-76.212919,23.703497
04808,,9.667797,-1.311290,2.003553,-0.017820,0.009586,-0.017762,-30.381279,-76.202046,23.723690
04809,,9.655056,-1.356509,1.969143,-0.010434,0.012054,-0.016264,-30.349759,-76.200299,23.687386
04810,,9.677164,-1.353761,1.943466,0.001881,0.006649,-0.016445,-30.360221,-76.196360,23.696691
04811,,9.643433,-1.310329,1.918072,0.008784,0.007528,-0.014530,-30.326696,-76.196303,23.669684
04812,,9.624879,-1.304969,1.903464,0.006545,0.004966,-0.013109,-30.331531,-76.202151,23.674788
04813,,9.643530,-1.307566,1.919470,0.010896,0.007087,-0.010022,-30.306485,-76.201035,23.657790
04814,,9.637605,-1.227187,1.986235,0.008396,0.001197,-0.006266,-30.303023,-76.200650,23.646360
04815,,9.609760,-1.234720,1.940556,0.002586,0.006497,-0.014941,-30.273426,-76.201230,23.619727
04816,,9.591194,-1.229643,1.925768,-0.005238,0.004825,-0.010762,-30.270844,-76.200645,23.607136
04817,,9.647176,-1.269167,1.925670,-0.007609,0.001936,-0.012932,-30.256445,-76.202887,23.590106
04818,,9.697256,-1.258013,1.945531,-0.007349,0.005263,-0.015267,-30.268868,-76.196627,23.585765
04819,,9.706633,-1.273144,1.930686,-0.010214,0.010303,-0.014343,-30.243406,-76.195076,23.555804
04820,,9.699849,-1.340110,1.922535,-0.010695,0.008711,-0.013926,-30.244927,-76.200254,23.549282
04821,,9.678618,-1.250569,1.932649,-0.006086,0.014162,-0.013172,-30.214974,-76.196485,23.517151
04822,,9.685338,-1.181481,1.942433,-0.015967,0.005795,-0.010919,-30.247501,-76.185995,23.540090
04823,,9.644630,-1.178202,1.954081,-0.022478,0.008562,-0.011580,-30.236895,-76.184462,23.518211
04824,,9.659883,-1.215298,1.965338,-0.033246,0.007139,-0.016997,-30.274177,-76.186563,23.551456
04825,,9.647199,-1.231864,1.976807,-0.034965,0.011227,-0.020242,-30.250385,-76.186215,23.508688
