// Start Time: Unknown
// Update Rate: 100.0Hz
// Filter Profile: human (46.1)
// Firmware Version: 4.3.5
PacketCounter,SampleTimeFine,Acc_X,Acc_Y,Acc_Z,Gyr_X,Gyr_Y,Gyr_Z,Roll,Pitch,Yaw
58107,,9.096390,-3.123583,2.276269,0.010620,0.007030,-0.015047,-53.930659,-66.977401,11.203365
58108,,9.124520,-3.094873,2.315804,0.012417,0.009566,-0.016498,-53.695396,-67.017905,10.815157
58109,,9.093509,-3.120652,2.312715,0.010179,0.004943,-0.024913,-53.664242,-67.027729,10.787653
58110,,9.094019,-3.118453,2.313677,0.012547,0.008417,-0.017673,-53.634075,-67.033731,10.763189
58111,,9.079360,-3.117489,2.295578,0.011335,0.003909,-0.027988,-53.600872,-67.045313,10.734183
58112,,9.082722,-3.139040,2.296141,0.013867,0.007551,-0.025456,-53.564188,-67.054410,10.702985
58113,,9.082467,-3.161305,2.331105,0.015276,0.004212,-0.030884,-53.526005,-67.067209,10.671027
58114,,9.080689,-3.133964,2.332122,0.007711,0.002630,-0.030966,-53.493831,-67.080225,10.640882
58115,,9.093364,-3.202697,2.297336,0.011649,0.002933,-0.033863,-53.456642,-67.094816,10.607754
58116,,9.093460,-3.224406,2.331839,0.008018,0.001649,-0.036844,-53.420964,-67.110351,10.573930
58117,,9.093631,-3.245911,2.366392,0.013712,0.003175,-0.037660,-53.379164,-67.126589,10.537088
58118,,9.068086,-3.244179,2.294420,0.011285,-0.002934,-0.037830,-53.346636,-67.142876,10.508572
58119,,9.080947,-3.239929,2.347785,0.012406,-0.005283,-0.037372,-53.314941,-67.161859,10.481892
58120,,9.051757,-3.239223,2.309865,0.018827,-0.002650,-0.034208,-53.282575,-67.174875,10.457931
58121,,9.086093,-3.257144,2.347849,0.015028,-0.004104,-0.032482,-53.251987,-67.191197,10.434088
58122,,9.059500,-3.281115,2.309668,0.016786,-0.002879,-0.030401,-53.226318,-67.200651,10.415763
58123,,9.057737,-3.253931,2.310262,0.016618,-0.003044,-0.025694,-53.199140,-67.213485,10.396611
58124,,9.038821,-3.278799,2.359752,0.018593,-0.005442,-0.022433,-53.185200,-67.217949,10.391563
58125,,9.092682,-3.270135,2.348331,0.022493,-0.006450,-0.021798,-53.161528,-67.230161,10.379866
58126,,9.059264,-3.271849,2.344887,0.021929,-0.003158,-0.013570,-53.153057,-67.227007,10.382388
58127,,9.081532,-3.291870,2.329559,0.018430,-0.005603,-0.017724,-53.134105,-67.237057,10.373287
58128,,9.078417,-3.291007,2.364156,0.025658,-0.004329,-0.008230,-53.132774,-67.229004,10.385256
58129,,9.082397,-3.288923,2.330350,0.023515,-0.002095,-0.006786,-53.116030,-67.232833,10.381708
58130,,9.061032,-3.265832,2.346441,0.028534,-0.005451,-0.005693,-53.119116,-67.221402,10.399975
58131,,9.076498,-3.263332,2.365891,0.028363,-0.005614,-0.000988,-53.108183,-67.223788,10.405745
58132,,9.067831,-3.287623,2.312748,0.028235,-0.004459,0.000187,-53.118916,-67.206025,10.431158
58133,,9.076653,-3.262129,2.366954,0.032862,-0.004355,0.004800,-53.108763,-67.205323,10.440567
58134,,9.061339,-3.263449,2.348572,0.027937,-0.003465,0.006067,-53.124622,-67.183074,10.471553
58135,,9.073699,-3.237545,2.368343,0.029060,-0.005812,0.006528,-53.119636,-67.182087,10.484208
58136,,9.073490,-3.237641,2.369012,0.025533,0.001078,0.009854,-53.138956,-67.151550,10.517268
58137,,9.092027,-3.235673,2.354555,0.024639,-0.000190,0.010583,-53.133696,-67.146761,10.526883
58138,,9.095311,-3.235446,2.320933,0.026618,-0.002581,0.013850,-53.161890,-67.113198,10.569530
58139,,9.075138,-3.263305,2.371139,0.026401,0.001041,0.012663,-53.155964,-67.107023,10.579522
58140,,9.090787,-3.237345,2.357047,0.026273,0.002197,0.013836,-53.178879,-67.073924,10.615212
58141,,9.087551,-3.213734,2.358214,0.027397,-0.000149,0.014299,-53.174975,-67.067398,10.628016
58142,,9.093467,-3.238031,2.324551,0.030277,-0.001267,0.016840,-53.201786,-67.030160,10.672466
58143,,9.071381,-3.216664,2.340965,0.032341,-0.001033,0.013042,-53.194991,-67.024497,10.685216
58144,,9.102212,-3.189280,2.345957,0.032813,0.002394,0.019363,-53.214510,-66.988958,10.724201
58145,,9.067514,-3.193849,2.343516,0.035009,0.001472,0.014395,-53.204578,-66.981808,10.735215
58146,,9.084077,-3.142991,2.295370,0.030210,0.001210,0.014487,-53.223012,-66.948795,10.771215
58147,,9.082738,-3.168374,2.330553,0.027468,0.001175,0.010778,-53.214791,-66.943421,10.779407
58148,,9.051847,-3.171847,2.293804,0.031929,0.006216,0.010668,-53.221138,-66.915323,10.802784
58149,,9.091077,-3.216697,2.298372,0.029755,-0.002211,0.008178,-53.213146,-66.912314,10.812657
58150,,9.171598,-3.183218,2.325740,0.030660,-0.000940,0.007450,-53.225570,-66.888408,10.843117
58151,,9.189434,-3.205723,2.345308,0.019326,-0.001398,0.002015,-53.217687,-66.888007,10.846631
58152,,9.191870,-3.230142,2.346098,0.022198,0.006852,0.012017,-53.237353,-66.855325,10.877142
58153,,9.143713,-3.285566,2.358579,0.021351,0.001821,0.018652,-53.238199,-66.846179,10.891412
58154,,9.135805,-3.361606,2.340125,0.026817,0.000605,0.029616,-53.272181,-66.809101,10.944330
58155,,9.099496,-3.392853,2.371715,0.038953,-0.001565,0.044941,-53.287606,-66.789018,10.985457
58156,,9.096853,-3.421226,2.407304,0.040309,0.001850,0.054071,-53.340617,-66.738633,11.060431
58157,,9.072871,-3.331021,2.511864,0.019129,0.002446,0.077496,-53.388758,-66.702171,11.124820
58158,,9.081476,-3.264099,2.653721,-0.014559,0.008705,0.089106,-53.480714,-66.640523,11.211496
58159,,9.094266,-3.493453,2.721666,-0.061483,0.022540,0.105371,-53.575050,-66.584297,11.275946
58160,,9.075203,-3.727951,2.751835,-0.059984,0.036669,0.118458,-53.692334,-66.482520,11.356842
58161,,9.101228,-3.787046,2.825711,-0.053553,0.048604,0.133844,-53.775667,-66.404180,11.414300
58162,,9.046509,-3.929560,2.908350,-0.043301,0.060692,0.151067,-53.867245,-66.276073,11.489894
58163,,9.004450,-3.949367,3.065489,-0.028076,0.071875,0.167057,-53.935968,-66.174448,11.547461
58164,,8.955741,-4.068869,3.204485,-0.019740,0.085080,0.184593,-54.011583,-66.010969,11.615145
58165,,8.951109,-4.308217,3.348230,-0.009182,0.102858,0.215305,-54.072383,-65.876502,11.676018
58166,,8.927363,-4.625648,3.543137,0.013024,0.116174,0.256297,-54.136715,-65.655963,11.759911
58167,,8.932479,-4.770292,3.608861,0.060660,0.136450,0.308529,-54.190412,-65.466888,11.857144
58168,,8.948395,-4.916759,3.853913,0.110566,0.146427,0.348426,-54.222826,-65.182202,11.966490
58169,,8.894599,-5.070147,4.218341,0.193338,0.174587,0.395067,-54.222307,-64.940073,12.088163
58170,,8.898819,-5.389490,4.456771,0.276092,0.203700,0.462135,-54.182535,-64.540948,12.223600
58171,,8.903442,-5.635739,4.723565,0.354182,0.248631,0.526048,-54.107164,-64.213220,12.365169
58172,,9.214421,-5.467764,5.161311,0.401068,0.298729,0.592819,-53.970866,-63.702463,12.477229
58173,,9.641016,-5.151000,5.779367,0.333879,0.424316,0.671953,-53.840642,-63.248075,12.545585
58174,,9.709173,-4.923696,6.274691,0.133906,0.597942,0.766325,-53.666154,-62.532644,12.457474
58175,,9.556406,-5.004371,6.576684,-0.148427,0.803446,0.890208,-53.621792,-61.848956,12.311297
58176,,9.273984,-5.367313,6.603607,-0.451253,0.968417,1.028906,-53.594280,-60.851945,12.014809
58177,,9.117135,-5.948272,6.489166,-0.696924,1.105079,1.170966,-53.794935,-59.936359,11.786472
58178,,9.212054,-6.668708,6.498582,-0.859486,1.207211,1.312183,-53.956942,-58.719935,11.443860
58179,,9.254873,-7.534753,6.516457,-0.888506,1.300129,1.458108,-54.282704,-57.606471,11.228243
58180,,9.361399,-8.417921,6.642336,-0.790959,1.370081,1.588457,-54.421407,-56.214190,10.972678
58181,,9.420504,-8.968334,6.770087,-0.584013,1.456005,1.715474,-54.597681,-54.929866,10.781035
58182,,9.312512,-9.242945,6.793574,-0.354737,1.527581,1.826107,-54.531394,-53.318017,10.547768
58183,,9.207591,-9.263903,6.675585,-0.141084,1.588370,1.929168,-54.482506,-51.890120,10.384951
58184,,9.044187,-9.128684,6.570745,0.050727,1.640369,2.012244,-54.233254,-50.157094,10.200708
58185,,8.833636,-8.958827,6.488836,0.202081,1.685030,2.081599,-54.020135,-48.625457,10.073077
58186,,8.508154,-8.821069,6.509168,0.323251,1.722295,2.137593,-53.669993,-46.811319,9.986031
58187,,8.097134,-8.715662,6.742033,0.435772,1.747859,2.167500,-53.351123,-45.218155,9.890628
58188,,7.854249,-8.715651,6.852151,0.525897,1.762361,2.175230,-52.937850,-43.366737,9.856403
58189,,7.860432,-8.751288,6.929187,0.620295,1.771228,2.176805,-52.533855,-41.760844,9.785524
58190,,7.907155,-8.690970,6.827465,0.690979,1.808646,2.156533,-52.036579,-39.941194,9.805500
58191,,7.791434,-8.620700,6.706552,0.735503,1.840466,2.139493,-51.557108,-38.327441,9.714736
58192,,7.600712,-8.603823,6.539538,0.742594,1.886595,2.104644,-51.024902,-36.544923,9.793550
58193,,7.301828,-8.653864,6.383652,0.755640,1.904269,2.066592,-50.521573,-34.940122,9.674688
58194,,7.078471,-8.769575,6.376968,0.796353,1.898748,2.025945,-49.959167,-33.162527,9.662825
58195,,7.001339,-8.870327,6.303256,0.856613,1.879155,1.978175,-49.411594,-31.604454,9.558760
58196,,7.105001,-8.796595,6.335651,0.939007,1.862787,1.930492,-48.789637,-29.873060,9.466525
58197,,7.137990,-8.617803,6.338657,1.004773,1.860641,1.884405,-48.166814,-28.360775,9.371823
58198,,7.021691,-8.274397,6.304191,1.014608,1.871391,1.844022,-47.519458,-26.679584,9.265595
58199,,6.912262,-8.083839,6.126478,0.981395,1.875881,1.794426,-46.911935,-25.197733,9.164592
58200,,6.832852,-8.009041,6.056366,0.932048,1.879771,1.752375,-46.325652,-23.577631,9.058522
58201,,6.719732,-7.998634,5.886412,0.882184,1.870674,1.712599,-45.780748,-22.130052,8.959617
58202,,6.761702,-8.031665,5.960483,0.868602,1.861554,1.680625,-45.251172,-20.574862,8.868317
58203,,6.669999,-7.947821,6.018246,0.865734,1.860715,1.647138,-44.722788,-19.156376,8.776148
58204,,6.654351,-7.789858,6.095554,0.851975,1.858941,1.627587,-44.220850,-17.653220,8.696103
58205,,6.442170,-7.473074,6.079261,0.806478,1.885183,1.606444,-43.730881,-16.239516,8.603948
58206,,5.804196,-7.276448,5.934288,0.752006,1.888273,1.590660,-43.298154,-14.768912,8.523532
58207,,5.336684,-7.352347,5.788181,0.682971,1.844455,1.561197,-42.888423,-13.388761,8.452029
58208,,5.153036,-7.496796,5.682682,0.667673,1.779601,1.525266,-42.523906,-12.014311,8.408976
58209,,5.184859,-7.679393,5.615924,0.705065,1.703005,1.486725,-42.113350,-10.721999,8.380750
58210,,5.227473,-7.493618,5.687967,0.768126,1.657592,1.447008,-41.709296,-9.452935,8.371276
58211,,5.003212,-7.241463,5.689446,0.818933,1.623133,1.410123,-41.237326,-8.223711,8.359966
58212,,4.626041,-6.876083,5.875841,0.838636,1.601024,1.369302,-40.802930,-7.032356,8.357522
58213,,4.198868,-6.599996,5.848124,0.816722,1.579828,1.319121,-40.332250,-5.855869,8.342219
58214,,3.808412,-6.331144,5.778721,0.765211,1.546108,1.269558,-39.944262,-4.745383,8.333395
58215,,3.352731,-6.210222,5.712026,0.700087,1.497951,1.204156,-39.540746,-3.646989,8.314434
58216,,3.087222,-6.247051,5.695485,0.648258,1.436108,1.139752,-39.223086,-2.647536,8.301375
58217,,3.082335,-6.471184,5.701959,0.654685,1.355841,1.060437,-38.846298,-1.664107,8.283350
58218,,3.138083,-6.704174,5.696207,0.728325,1.307275,0.987839,-38.486950,-0.789076,8.259733
58219,,2.927227,-6.785054,5.760163,0.855457,1.286518,0.922301,-37.995562,0.114311,8.217774
58220,,2.734033,-6.825629,5.707746,1.026387,1.232148,0.858202,-37.472010,0.897629,8.175155
58221,,2.460747,-6.752932,5.718393,1.229394,1.195150,0.800315,-36.767726,1.717727,8.126746
58222,,2.257039,-6.550843,5.610166,1.424494,1.106375,0.742782,-36.023018,2.394409,8.091653
58223,,2.056746,-6.077323,5.523798,1.577358,1.034954,0.693991,-35.119340,3.105401,8.069268
58224,,1.984468,-5.603172,5.597253,1.657596,0.968746,0.639717,-34.245756,3.676586,8.051183
58225,,1.842306,-5.180776,5.549853,1.686422,0.919745,0.593191,-33.279305,4.300936,8.039933
58226,,1.779954,-4.886162,5.748665,1.693922,0.868325,0.542835,-32.386439,4.787529,8.025945
58227,,1.778314,-4.634810,6.034555,1.696264,0.842807,0.501599,-31.414653,5.346736,8.013723
58228,,1.728822,-4.365841,6.199219,1.679579,0.846164,0.461617,-30.530632,5.792913,7.983726
58229,,1.787287,-4.161383,6.036364,1.651011,0.879958,0.433230,-29.587824,6.351001,7.944755
58230,,1.566907,-4.038433,5.896776,1.624359,0.890530,0.409719,-28.735742,6.799904,7.892289
58231,,1.351664,-3.952063,5.836613,1.610275,0.899252,0.392169,-27.818035,7.357493,7.844605
58232,,0.961909,-3.938219,5.719948,1.626444,0.885349,0.361463,-26.964520,7.788327,7.784765
58233,,0.814211,-4.042167,5.617771,1.698329,0.840112,0.336776,-25.996586,8.302616,7.741229
58234,,0.620798,-4.033660,5.473423,1.805253,0.783205,0.320369,-25.037966,8.670727,7.701928
58235,,0.559406,-3.769175,5.388362,1.916849,0.700348,0.304968,-23.940088,9.105744,7.693232
58236,,0.617348,-3.542595,5.291880,2.042118,0.670452,0.288198,-22.842808,9.408197,7.679489
58237,,0.301320,-3.115050,5.273916,2.131009,0.607566,0.267896,-21.619368,9.785939,7.688629
58238,,0.114703,-2.651254,5.372067,2.183394,0.537816,0.250833,-20.436815,10.010377,7.698652
58239,,-0.091326,-2.049551,5.496523,2.196374,0.471278,0.226353,-19.172249,10.305836,7.728181
58240,,-0.232574,-1.371023,5.551598,2.128583,0.386529,0.199881,-18.015059,10.440320,7.752482
58241,,-0.258215,-1.002798,5.623453,2.032669,0.347928,0.172865,-16.843322,10.657681,7.786274
58242,,-0.485506,-0.822121,5.650645,1.898207,0.274521,0.152426,-15.810712,10.724994,7.812896
58243,,-0.651636,-0.720037,5.758734,1.792187,0.182055,0.125547,-14.775298,10.842113,7.853837
58244,,-0.787082,-0.755671,6.155019,1.721492,0.091181,0.099208,-13.836122,10.803283,7.884048
58245,,-0.779604,-0.881857,6.424157,1.656516,-0.006100,0.077998,-12.877989,10.807765,7.927365
58246,,-0.726629,-0.868222,6.691110,1.626402,-0.088542,0.061824,-11.986483,10.667066,7.961970
58247,,-0.791368,-0.580592,6.957773,1.593246,-0.163850,0.036573,-11.065701,10.576854,8.000096
58248,,-0.775124,-0.137759,7.266368,1.504527,-0.221025,0.009245,-10.241588,10.358566,8.018538
58249,,-0.898406,0.086643,7.537613,1.356515,-0.242709,-0.006111,-9.460128,10.218568,8.037290
58250,,-0.910008,0.079217,7.784158,1.188295,-0.269253,-0.019677,-8.812494,9.973458,8.041637
58251,,-0.839556,-0.122546,8.037951,1.050980,-0.286675,-0.018344,-8.207364,9.807088,8.053777
58252,,-0.853718,-0.397876,8.253888,0.960063,-0.294922,-0.002511,-7.682513,9.552043,8.068009
58253,,-0.848250,-0.628739,8.449651,0.948623,-0.299004,0.014296,-7.133417,9.380855,8.096604
58254,,-0.896490,-0.663601,8.615465,1.002538,-0.313785,0.040672,-6.576804,9.120743,8.134453
58255,,-0.951510,-0.382061,8.703964,1.062553,-0.340848,0.051381,-5.959432,8.927491,8.183587
58256,,-1.006002,-0.035656,8.837161,1.076469,-0.360117,0.066325,-5.355678,8.644728,8.235613
58257,,-1.118694,0.144951,9.111046,1.064055,-0.362914,0.086143,-4.735343,8.439618,8.301679
58258,,-1.098954,0.330077,9.524788,1.026565,-0.366788,0.089158,-4.155145,8.156470,8.363453
58259,,-0.956035,0.568566,9.836645,0.956113,-0.354845,0.091594,-3.597426,7.954870,8.428018
58260,,-0.781133,0.896778,10.175459,0.839424,-0.304422,0.094628,-3.120659,7.709513,8.487487
58261,,-0.751450,1.180419,10.359036,0.667656,-0.243922,0.099360,-2.728980,7.570555,8.549802
58262,,-0.787557,1.105278,10.485442,0.494593,-0.166186,0.095094,-2.445092,7.405613,8.604283
58263,,-0.822377,0.760999,10.505624,0.371845,-0.115465,0.091485,-2.224355,7.339361,8.657532
58264,,-0.816894,0.470112,10.522597,0.319260,-0.090715,0.074328,-2.038269,7.218895,8.698153
58265,,-0.803938,0.383961,10.595407,0.298842,-0.068300,0.072609,-1.861062,7.178909,8.739097
58266,,-0.751822,0.414231,10.542945,0.272736,-0.048258,0.060636,-1.700311,7.084349,8.770945
58267,,-0.825751,0.400059,10.519844,0.242296,-0.027206,0.049687,-1.557333,7.067279,8.797735
58268,,-0.828454,0.402542,10.469128,0.207158,-0.010303,0.034368,-1.434027,6.995885,8.813868
58269,,-0.799767,0.380724,10.447985,0.174724,0.003797,0.024072,-1.331667,6.996085,8.825351
58270,,-0.804387,0.426598,10.351193,0.135359,0.009516,-0.000175,-1.250163,6.937550,8.821392
58271,,-0.793369,0.456544,10.269249,0.071126,0.020311,-0.007787,-1.209418,6.946769,8.814270
58272,,-0.834515,0.408393,10.235777,0.016467,0.024509,-0.011513,-1.195100,6.898631,8.803715
58273,,-0.874738,0.317004,10.135150,-0.034537,0.022264,-0.031747,-1.216555,6.908664,8.782735
58274,,-0.831061,0.246549,10.039117,-0.079794,0.027462,-0.046547,-1.258433,6.863822,8.752008
58275,,-0.911613,0.131153,9.972686,-0.116812,0.032323,-0.051264,-1.328381,6.879314,8.719608
58276,,-0.941848,0.008090,9.927271,-0.134293,0.024786,-0.065301,-1.401918,6.834658,8.678097
58277,,-0.949193,-0.053860,9.900184,-0.148872,0.019732,-0.074154,-1.491771,6.842503,8.632622
58278,,-0.945123,0.027931,9.880824,-0.176631,0.018104,-0.085386,-1.590615,6.795743,8.579569
58279,,-1.005106,0.241596,9.988194,-0.244877,0.015760,-0.092456,-1.736687,6.800820,8.523565
58280,,-0.996229,0.899669,10.016261,-0.426706,-0.013957,-0.087857,-1.978085,6.737497,8.469691
58281,,-0.925789,1.776193,10.360858,-0.775397,-0.019234,-0.084515,-2.427431,6.722173,8.418991
58282,,-0.860034,2.796955,10.589725,-1.376302,-0.020919,-0.072872,-3.207762,6.656391,8.374576
58283,,-0.594795,3.182731,10.545888,-2.107689,0.045917,-0.055171,-4.418674,6.678004,8.338713
58284,,-0.486418,2.821500,10.191809,-2.879756,0.157895,-0.041764,-6.050875,6.715378,8.304400
58285,,-0.590104,2.183546,9.944809,-3.588669,0.257929,-0.030921,-8.110677,6.857163,8.266140
58286,,-0.651138,1.676685,9.510267,-4.254614,0.314591,-0.010203,-10.523252,6.984349,8.230020
58287,,-0.684303,1.421224,9.017009,-4.982817,0.346996,0.013567,-13.381726,7.177570,8.194206
58288,,-0.540407,1.077431,8.940792,-5.692183,0.414806,0.038442,-16.612353,7.364278,8.153910
58289,,-0.471671,0.531254,8.407666,-6.408607,0.528872,0.050921,-20.292535,7.657809,8.083432
58290,,-0.506785,-0.169194,7.933666,-7.112148,0.642609,0.088197,-24.338153,7.969862,7.991204
58291,,-0.473370,-0.898616,6.956104,-7.807911,0.739918,0.127185,-28.828918,8.378178,7.864192
58292,,-0.413462,-1.685822,5.977525,-8.477766,0.884174,0.176404,-33.666482,8.816910,7.689135
58293,,-0.559741,-2.709590,5.022532,-8.949281,1.050289,0.174151,-38.837288,9.357529,7.409695
58294,,-0.724262,-3.862838,4.103784,-9.326489,1.190345,0.167618,-44.197607,9.886373,7.029065
58295,,-0.923539,-5.099046,3.055910,-9.428673,1.296362,0.150308,-49.685728,10.452637,6.537628
58296,,-0.947572,-5.790156,2.153073,-9.474881,1.361140,0.121014,-55.178139,10.939798,5.957622
58297,,-1.088188,-6.161357,0.909974,-9.368427,1.416361,0.102762,-60.674495,11.416920,5.289492
58298,,-1.238195,-6.417797,-0.084856,-9.354005,1.444513,0.104584,-66.140955,11.800175,4.567735
58299,,-1.318605,-7.306485,-1.362309,-9.285966,1.491267,0.130246,-71.623709,12.174152,3.782065
58300,,-1.786237,-8.451848,-2.302111,-9.162541,1.551096,0.152363,-77.023494,12.460194,2.936419
58301,,-2.296185,-10.759543,-3.807338,-8.790297,1.535467,0.166351,-82.247932,12.709095,2.069571
58302,,-2.757117,-12.459048,-4.661965,-8.228877,1.464415,0.199445,-87.129241,12.864993,1.228364
58303,,-2.874131,-13.273842,-5.168424,-7.368043,1.307295,0.212493,-91.520872,12.992837,0.464079
58304,,-2.756012,-12.506669,-4.812309,-6.642404,1.196064,0.271575,-95.477985,13.072522,-0.244968
58305,,-2.501362,-10.959838,-4.870580,-6.092817,1.107167,0.325081,-99.119468,13.174332,-0.912352
58306,,-2.363687,-9.580285,-4.856295,-5.828983,1.080312,0.335500,-102.608205,13.213903,-1.572188
58307,,-2.281867,-9.140449,-5.023001,-5.745327,1.068459,0.320671,-106.048400,13.238440,-2.224912
58308,,-2.352104,-10.176173,-5.235220,-5.530982,1.064896,0.256758,-109.367126,13.161809,-2.866761
58309,,-2.321086,-11.299856,-5.073615,-5.074714,1.039464,0.188038,-112.411435,13.048512,-3.474017
58310,,-2.370696,-11.243237,-4.937850,-4.392289,0.997018,0.126790,-115.059651,12.854493,-4.039565
58311,,-2.001403,-9.920101,-4.424048,-3.783849,0.951854,0.083825,-117.341431,12.655519,-4.559417
58312,,-1.589681,-8.125988,-4.368307,-3.496698,0.941403,0.075842,-119.458374,12.407158,-5.065154
58313,,-1.504248,-7.796576,-4.670047,-3.466533,0.958357,0.035464,-121.547980,12.144941,-5.556180
58314,,-1.768981,-8.595502,-5.122212,-3.323353,0.916828,-0.014319,-123.547979,11.825876,-6.002536
58315,,-1.932078,-9.026029,-5.659105,-2.942255,0.823225,-0.043308,-125.309571,11.537976,-6.381722
58316,,-2.067152,-9.038373,-6.314097,-2.506502,0.718951,-0.066768,-126.809785,11.235825,-6.696271
58317,,-2.454995,-9.534917,-6.716368,-2.096551,0.600718,-0.089426,-128.056871,10.985365,-6.939253
58318,,-2.363758,-9.438456,-6.910444,-1.565688,0.419382,-0.104415,-128.983503,10.761441,-7.090283
58319,,-1.957014,-8.651269,-6.869624,-1.091165,0.307964,-0.080704,-129.627254,10.613447,-7.195589
58320,,-1.753701,-7.812692,-6.686168,-0.812099,0.222519,-0.057160,-130.106721,10.480271,-7.271085
58321,,-1.633379,-7.434057,-6.891607,-0.698239,0.205672,-0.063699,-130.517313,10.375834,-7.334592
58322,,-1.956994,-7.982948,-7.003025,-0.634479,0.178295,-0.083094,-130.889561,10.247539,-7.379028
58323,,-1.951427,-8.635006,-7.233199,-0.431594,0.145131,-0.098373,-131.139836,10.150122,-7.401325
58324,,-1.947539,-8.747252,-7.232530,-0.118140,0.115648,-0.103900,-131.209537,10.037083,-7.409340
58325,,-1.742363,-8.157672,-7.101615,0.146038,0.091141,-0.099337,-131.124562,9.959559,-7.407327
58326,,-1.622994,-7.592135,-6.966615,0.254617,0.083879,-0.101165,-130.978128,9.860415,-7.402520
58327,,-1.644327,-7.119928,-6.772008,0.218318,0.081556,-0.074258,-130.852719,9.797344,-7.406177
58328,,-1.802236,-7.237616,-6.899746,0.060916,0.087086,-0.059631,-130.820821,9.715687,-7.418853
58329,,-1.872690,-7.919862,-7.091709,0.014144,0.068400,-0.059863,-130.812354,9.663796,-7.422283
58330,,-2.014260,-8.458225,-7.339188,0.116011,0.037443,-0.063923,-130.745453,9.599844,-7.411514
58331,,-2.096038,-8.792271,-7.512858,0.329819,-0.020462,-0.065463,-130.549262,9.578698,-7.373786
58332,,-2.065722,-8.815968,-7.485840,0.590751,-0.086288,-0.059124,-130.201562,9.563714,-7.310274
58333,,-1.946460,-8.491069,-7.356621,0.821124,-0.150125,-0.047223,-129.715447,9.597849,-7.221847
58334,,-1.886872,-8.178100,-7.241610,0.960306,-0.197935,-0.029732,-129.149510,9.636368,-7.118924
58335,,-1.860641,-8.276055,-7.215524,1.077512,-0.240930,-0.029646,-128.510411,9.709250,-6.995084
58336,,-1.920166,-8.733999,-7.242021,1.297572,-0.283168,-0.047423,-127.743803,9.768363,-6.845494
58337,,-2.046629,-8.723644,-7.070745,1.582293,-0.350399,-0.043194,-126.805383,9.869716,-6.664201
58338,,-1.946360,-8.679268,-7.101282,1.847003,-0.409542,-0.049182,-125.713290,9.966738,-6.452158
58339,,-2.063246,-9.083699,-7.179298,2.168856,-0.467093,-0.074773,-124.425954,10.084752,-6.200786
58340,,-2.055439,-9.721567,-7.322275,2.672496,-0.551225,-0.116616,-122.844298,10.185544,-5.893143
58341,,-2.133254,-10.375284,-7.517853,3.410445,-0.645630,-0.164481,-120.822884,10.299682,-5.519367
58342,,-2.237413,-10.803833,-7.389324,4.302140,-0.773575,-0.224811,-118.280526,10.387916,-5.060155
58343,,-2.267959,-10.995678,-7.190473,5.277780,-0.919098,-0.266669,-115.155677,10.486945,-4.508242
58344,,-2.315206,-11.018563,-7.013520,6.286986,-1.043586,-0.324328,-111.444688,10.534585,-3.872695
58345,,-2.438374,-10.830316,-6.358516,7.172506,-1.200711,-0.388982,-107.199021,10.550170,-3.133837
58346,,-2.176916,-10.269996,-5.699232,7.950578,-1.367720,-0.428753,-102.501658,10.495740,-2.297888
58347,,-1.932680,-9.555571,-5.061687,8.582288,-1.430103,-0.467875,-97.425701,10.371234,-1.427062
58348,,-2.010863,-8.911986,-4.388687,8.984023,-1.493568,-0.500591,-92.134909,10.139438,-0.535606
58349,,-1.994962,-8.550900,-3.477352,9.232758,-1.581352,-0.508444,-86.684484,9.836052,0.383819
58350,,-1.821604,-8.523216,-2.227875,9.372965,-1.672198,-0.505506,-81.178377,9.430716,1.318773
58351,,-1.289925,-8.606856,-1.002737,9.528624,-1.723658,-0.487727,-75.570154,8.954814,2.243540
58352,,-0.766490,-8.529106,0.198955,9.706417,-1.656736,-0.445674,-69.906774,8.414351,3.082978
58353,,-0.516414,-8.099327,0.892021,9.924296,-1.537347,-0.381010,-64.115672,7.865870,3.817232
58354,,-0.476232,-7.746966,1.396070,10.136413,-1.378419,-0.346666,-58.256518,7.296303,4.417504
58355,,-0.872802,-7.231971,2.321251,10.360881,-1.312418,-0.308029,-52.255643,6.719023,4.939230
58356,,-0.528632,-6.899017,2.785352,10.595338,-1.246134,-0.282091,-46.166830,6.115766,5.375449
58357,,-0.612646,-6.614344,3.805372,10.888636,-1.080525,-0.238580,-39.894313,5.566160,5.699415
58358,,-0.816366,-5.793494,4.728232,11.009259,-1.059588,-0.198108,-33.594692,4.997800,5.971115
58359,,-0.638197,-4.442167,5.714985,10.923825,-1.025027,-0.142426,-27.316333,4.446509,6.198142
58360,,-0.323752,-2.998705,6.285092,10.697058,-0.951142,-0.084753,-21.208709,3.916627,6.376489
58361,,-0.287158,-0.874859,6.613054,10.133757,-0.857637,-0.034542,-15.393175,3.440422,6.510445
58362,,-0.340738,1.291922,7.615300,9.249372,-0.776884,0.032380,-10.119915,2.997757,6.625112
58363,,-0.053637,2.814913,8.132258,8.110014,-0.631411,0.067579,-5.468362,2.641391,6.710204
58364,,-0.109315,3.663041,8.735933,6.927474,-0.419429,0.075590,-1.523811,2.391872,6.765986
58365,,-0.072648,3.796200,8.803197,5.771119,-0.266209,0.094996,1.785498,2.236311,6.817259
58366,,-0.280107,3.503802,8.967054,4.785724,-0.154901,0.120050,4.509039,2.131814,6.878529
58367,,-0.184407,3.516821,8.954645,3.963309,-0.113756,0.146574,6.783163,2.056040,6.952620
58368,,-0.119649,3.745934,9.031408,3.283400,-0.058509,0.170817,8.651176,1.997947,7.042231
58369,,-0.211470,3.889607,9.325663,2.699165,-0.007537,0.167179,10.201414,1.975548,7.132780
58370,,-0.059610,3.638911,9.511915,2.230053,0.026846,0.173572,11.469773,1.960458,7.230182
58371,,-0.021733,3.060757,9.464729,1.944555,0.085720,0.198547,12.588563,1.982477,7.348344
58372,,-0.331080,2.758985,9.415567,1.843605,0.094797,0.211825,13.638782,1.996369,7.475496
58373,,-0.178446,2.898185,9.519981,1.776230,0.055474,0.237229,14.661791,1.991773,7.611653
58374,,-0.026521,3.194137,9.460308,1.676082,0.065831,0.267466,15.617889,1.976996,7.765936
58375,,-0.194864,3.582958,9.376323,1.504987,0.083109,0.285712,16.486498,1.975415,7.932950
58376,,-0.157525,3.916534,9.240158,1.288269,0.101047,0.282259,17.222022,1.972876,8.100877
58377,,-0.161371,4.044933,9.205553,1.037118,0.115810,0.279845,17.822642,1.985886,8.270226
58378,,-0.204884,4.210630,9.311797,0.797385,0.118457,0.264773,18.278331,1.992476,8.431708
58379,,-0.258062,4.335606,9.356316,0.565049,0.128229,0.242844,18.607922,2.016217,8.583370
58380,,-0.333778,4.206183,9.363584,0.366579,0.126784,0.219796,18.817703,2.033834,8.722028
58381,,-0.360012,4.079265,9.367262,0.229446,0.108270,0.196163,18.954079,2.054235,8.844839
58382,,-0.371812,4.138743,9.382057,0.123426,0.095761,0.168267,19.024701,2.064210,8.949824
58383,,-0.490158,4.084518,9.446318,0.038419,0.082190,0.139703,19.050401,2.080708,9.037206
58384,,-0.472192,4.033399,9.553926,-0.018165,0.056400,0.098804,19.039449,2.082556,9.097139
58385,,-0.410880,4.062305,9.572102,-0.094193,0.046382,0.066390,18.987496,2.093373,9.138080
58386,,-0.383494,4.076766,9.591264,-0.182731,0.034973,0.043201,18.881998,2.094358,9.163800
58387,,-0.417962,3.984509,9.506072,-0.286208,0.028006,0.017812,18.718943,2.104325,9.174933
58388,,-0.411273,3.634406,9.485909,-0.362179,0.029851,-0.003887,18.510639,2.111517,9.174026
58389,,-0.490033,3.150908,9.513797,-0.339413,0.021170,-0.023260,18.316227,2.125273,9.161502
58390,,-0.453355,2.831497,9.501943,-0.238017,-0.010406,-0.052659,18.178097,2.119599,9.126700
58391,,-0.397117,2.795706,9.514358,-0.094579,-0.028762,-0.057751,18.122940,2.112264,9.086397
58392,,-0.383396,3.100510,9.526059,0.003552,-0.051978,-0.070733,18.122260,2.087362,9.034343
58393,,-0.300835,3.529457,9.501703,-0.007344,-0.055520,-0.070949,18.116677,2.067782,8.982077
58394,,-0.290162,3.651617,9.533637,-0.105928,-0.033736,-0.065443,18.053811,2.051994,8.936144
58395,,-0.310816,3.476118,9.511821,-0.212665,-0.010757,-0.063723,17.931035,2.055409,8.895783
58396,,-0.327163,3.147993,9.550379,-0.268602,-0.005448,-0.064210,17.775756,2.054752,8.855490
58397,,-0.279915,2.806215,9.481425,-0.256719,-0.007178,-0.058094,17.627869,2.058931,8.818805
58398,,-0.336544,2.651398,9.395983,-0.200956,-0.008491,-0.065999,17.511225,2.056839,8.776970
58399,,-0.392024,2.746201,9.384356,-0.127122,-0.023500,-0.073361,17.437190,2.054576,8.729104
58400,,-0.357766,2.850326,9.351187,-0.081826,-0.033411,-0.085183,17.387994,2.042224,8.672497
58401,,-0.316507,3.009409,9.327565,-0.093776,-0.040446,-0.085882,17.332733,2.032735,8.614879
58402,,-0.253738,3.155252,9.280115,-0.173823,-0.041505,-0.081475,17.230914,2.015348,8.558932
58403,,-0.240283,3.148629,9.315862,-0.299879,-0.034715,-0.078059,17.057775,2.007455,8.506600
58404,,-0.223308,2.991987,9.197417,-0.424853,-0.028599,-0.071856,16.812756,1.995252,8.458119
58405,,-0.230813,2.596585,9.069169,-0.514134,-0.032010,-0.058287,16.517272,1.985155,8.417154
58406,,-0.340519,2.147078,9.032068,-0.517604,-0.038840,-0.054127,16.219477,1.964028,8.376815
58407,,-0.290580,1.901433,8.961985,-0.439525,-0.074596,-0.049233,15.966715,1.928637,8.334168
58408,,-0.268027,1.895750,8.926474,-0.347372,-0.105445,-0.033981,15.765867,1.867458,8.294667
58409,,-0.238431,2.076658,8.835852,-0.289925,-0.129932,-0.023144,15.599097,1.797193,8.258096
58410,,-0.228445,2.268484,8.771853,-0.299725,-0.145368,-0.012390,15.425266,1.710533,8.224772
58411,,-0.264382,2.295131,8.814331,-0.334282,-0.145555,0.004926,15.233580,1.627154,8.201783
58412,,-0.347727,2.042881,8.812143,-0.341301,-0.158240,0.014809,15.036281,1.529211,8.182125
58413,,-0.332808,1.633409,8.867249,-0.261280,-0.166386,0.019074,14.886633,1.432060,8.164420
58414,,-0.248811,1.538065,8.880590,-0.128869,-0.200853,0.026416,14.810561,1.308969,8.145449
58415,,-0.155305,1.832104,8.760062,-0.024315,-0.228249,0.038933,14.796802,1.174590,8.129953
58416,,-0.173992,2.337101,8.689914,-0.004879,-0.240037,0.044525,14.791259,1.027261,8.115453
58417,,-0.082780,2.619662,8.682624,-0.093301,-0.249630,0.059092,14.738184,0.878077,8.108093
58418,,-0.032151,2.685107,8.572061,-0.228330,-0.244219,0.071483,14.605169,0.724584,8.108226
58419,,-0.079874,2.614511,8.718322,-0.351418,-0.239667,0.075660,14.404366,0.578514,8.112159
58420,,-0.050130,2.375621,8.681001,-0.440330,-0.247423,0.079258,14.150431,0.422217,8.117142
58421,,0.074622,2.150135,8.465195,-0.491197,-0.248946,0.088456,13.869561,0.269250,8.128158
58422,,0.026776,1.894146,8.279708,-0.488297,-0.265715,0.099960,13.588307,0.100063,8.143609
58423,,0.062478,1.776756,8.051031,-0.459231,-0.300334,0.115253,13.325686,-0.085003,8.164175
58424,,0.151686,1.719588,7.977748,-0.413868,-0.346761,0.117008,13.086855,-0.301412,8.180040
58425,,0.141323,1.739891,7.938211,-0.371383,-0.402866,0.121907,12.874468,-0.544406,8.192659
58426,,0.289313,1.762671,7.990831,-0.349379,-0.466757,0.119059,12.672506,-0.827977,8.196079
58427,,0.528522,1.791227,8.060035,-0.351754,-0.522927,0.106950,12.471610,-1.136154,8.187087
58428,,0.552602,1.787617,8.062404,-0.378416,-0.579626,0.102713,12.253470,-1.481025,8.169493
58429,,0.670339,1.695086,7.955502,-0.412803,-0.641393,0.083056,12.018437,-1.852746,8.135176
58430,,0.803989,1.541782,7.762637,-0.446580,-0.705743,0.082120,11.762376,-2.266300,8.093901
58431,,0.822106,1.448589,7.663614,-0.454050,-0.773479,0.078323,11.504837,-2.711891,8.044890
58432,,0.812327,1.329746,7.633489,-0.456289,-0.840531,0.072725,11.244660,-3.200814,7.986712
58433,,0.876589,1.315251,7.604007,-0.431478,-0.905301,0.078470,11.001520,-3.720954,7.927118
58434,,1.021752,1.163896,7.612322,-0.397810,-0.959212,0.087057,10.775801,-4.278946,7.868212
58435,,0.991167,1.137834,7.579834,-0.331385,-0.992503,0.101367,10.590550,-4.851062,7.816181
58436,,0.920580,1.076319,7.674470,-0.248273,-1.038450,0.117539,10.450307,-5.457519,7.769701
58437,,1.079312,0.996184,7.520786,-0.159568,-1.083847,0.134350,10.363397,-6.084773,7.729519
58438,,1.280521,1.016378,7.490540,-0.061878,-1.123351,0.176822,10.327650,-6.745431,7.709716
58439,,1.355401,1.090516,7.492762,0.022086,-1.147527,0.215779,10.340756,-7.417005,7.709882
58440,,1.584144,1.204527,7.469059,0.076927,-1.190286,0.254507,10.379683,-8.123589,7.727144
58441,,1.872736,1.446912,7.523295,0.108270,-1.223852,0.292610,10.437011,-8.846132,7.762213
58442,,2.088048,1.755250,7.594102,0.085355,-1.243504,0.326606,10.474790,-9.590618,7.813900
58443,,2.213058,1.892222,7.666781,0.013750,-1.266835,0.358352,10.471458,-10.344269,7.881343
58444,,2.465141,1.712592,7.630032,-0.054696,-1.276059,0.387910,10.422265,-11.114246,7.964955
58445,,2.675828,1.469923,7.620946,-0.068365,-1.269905,0.422901,10.362497,-11.876212,8.070613
58446,,2.749842,1.313451,7.487440,-0.046565,-1.280232,0.458791,10.306818,-12.656121,8.196428
58447,,2.697653,1.318228,7.262554,0.010449,-1.322437,0.498366,10.280329,-13.455255,8.342205
58448,,2.907498,1.329260,7.435873,0.073859,-1.423015,0.515940,10.285456,-14.322228,8.487770
58449,,3.359923,1.339284,7.600823,0.107761,-1.496883,0.530849,10.310104,-15.223047,8.635023
58450,,3.645741,1.589005,7.723352,0.105596,-1.557951,0.537480,10.329295,-16.169360,8.779454
58451,,4.074101,1.660130,7.773683,0.028275,-1.601313,0.534743,10.306007,-17.129503,8.918841
58452,,4.338851,1.792562,7.812203,-0.098948,-1.610622,0.551571,10.201993,-18.107974,9.068385
58453,,4.445548,1.814040,7.870269,-0.253013,-1.611280,0.572153,10.004580,-19.077004,9.234267
58454,,4.391502,1.811057,8.046967,-0.371804,-1.619569,0.594355,9.728624,-20.065020,9.416886
58455,,4.499868,1.273554,8.202980,-0.425678,-1.655841,0.581205,9.422521,-21.058610,9.595247
58456,,4.864586,0.683240,8.212136,-0.378857,-1.711571,0.560730,9.142703,-22.094669,9.761239
58457,,5.316640,0.586517,8.560363,-0.249190,-1.762504,0.516765,8.946153,-23.141231,9.902202
58458,,5.783251,0.882130,8.558429,-0.201819,-1.788444,0.471338,8.782152,-24.212867,10.016519
58459,,6.067946,1.352187,8.323763,-0.310067,-1.769835,0.466723,8.555178,-25.258397,10.135421
58460,,5.987979,1.784841,8.256839,-0.541635,-1.731204,0.481271,8.182133,-26.298862,10.273376
58461,,5.875029,1.710018,8.348093,-0.840799,-1.720243,0.483470,7.632459,-27.316055,10.424941
58462,,6.013458,0.957495,8.466367,-1.056172,-1.731238,0.482393,6.949088,-28.355149,10.587513
58463,,6.249696,0.054218,8.463389,-1.118107,-1.764205,0.479348,6.224265,-29.393720,10.762729
58464,,6.595136,-0.590411,8.475989,-1.007579,-1.809773,0.457189,5.557720,-30.473101,10.935799
58465,,6.908197,-0.756435,8.355386,-0.833921,-1.850084,0.418781,4.997356,-31.553721,11.096849
58466,,7.292605,-0.453927,8.285173,-0.726368,-1.875214,0.370601,4.502009,-32.664169,11.237839
58467,,7.684068,0.012455,7.940956,-0.831798,-1.885349,0.345393,3.950948,-33.759147,11.374562
58468,,7.996203,0.459838,7.208775,-1.154696,-1.871491,0.354327,3.193488,-34.865497,11.535783
58469,,7.977246,0.732508,6.651252,-1.614909,-1.838013,0.401527,2.142470,-35.931378,11.753537
58470,,7.355128,0.275959,6.942769,-2.006093,-1.805449,0.436588,0.825124,-36.997383,12.027798
58471,,6.870922,-1.120464,7.984324,-2.120679,-1.869325,0.397207,-0.560080,-38.072321,12.307685
58472,,7.320844,-2.667612,8.753692,-1.866298,-1.988208,0.294314,-1.786679,-39.233911,12.550833
58473,,8.351054,-3.269424,9.046062,-1.368195,-2.067352,0.196970,-2.700402,-40.416625,12.754104
58474,,8.957250,-2.517567,8.552499,-0.975775,-2.054442,0.124500,-3.383269,-41.614330,12.931577
58475,,9.043695,-1.124627,7.842932,-0.942066,-2.004363,0.066418,-4.021614,-42.761533,13.078940
58476,,8.786346,0.084801,7.171537,-1.251808,-1.910788,0.054481,-4.857566,-43.877307,13.240159
58477,,8.027051,0.365426,7.307024,-1.673705,-1.807502,0.093401,-5.961112,-44.907023,13.447354
58478,,7.328854,-0.535079,8.357837,-1.953167,-1.773978,0.113073,-7.272914,-45.936420,13.707528
58479,,7.672414,-2.328659,8.767818,-1.916758,-1.825635,0.109979,-8.585413,-46.967639,14.003644
58480,,8.521956,-3.525993,8.805048,-1.512451,-1.867143,0.114043,-9.717686,-48.039374,14.353975
58481,,9.184114,-3.470131,8.683974,-0.979917,-1.855036,0.088853,-10.544428,-49.080747,14.708327
58482,,9.422249,-2.550242,8.162141,-0.591063,-1.815684,0.044128,-11.155555,-50.122396,15.055135
58483,,9.354105,-1.446773,7.851877,-0.458639,-1.767630,0.010227,-11.666093,-51.118125,15.376116
58484,,9.192557,-0.728040,7.852770,-0.526273,-1.705243,-0.020769,-12.222580,-52.100452,15.690800
58485,,8.995159,-0.592145,8.058915,-0.697524,-1.642085,-0.050838,-12.848384,-53.029394,15.976031
58486,,8.832001,-1.094622,8.454483,-0.792591,-1.609568,-0.074467,-13.544247,-53.960046,16.267580
58487,,8.896994,-1.725825,8.512070,-0.753835,-1.607069,-0.099014,-14.204242,-54.871852,16.548425
58488,,9.248278,-2.116424,8.239118,-0.613710,-1.609596,-0.129214,-14.799314,-55.804491,16.836273
58489,,9.514318,-1.919902,8.116778,-0.437305,-1.588774,-0.172431,-15.256761,-56.713631,17.085449
58490,,9.692151,-1.428235,7.749407,-0.377259,-1.549140,-0.222166,-15.663044,-57.622547,17.304323
58491,,9.871811,-0.993108,7.428493,-0.445575,-1.485047,-0.264346,-16.053806,-58.486829,17.464329
58492,,9.895634,-0.686640,7.078976,-0.637226,-1.400333,-0.295572,-16.535223,-59.322695,17.593825
58493,,9.732456,-0.732096,6.687116,-0.878098,-1.302191,-0.314501,-17.108831,-60.093479,17.675810
58494,,9.256059,-1.024367,6.765418,-1.067858,-1.225544,-0.308486,-17.805513,-60.833711,17.768124
58495,,9.046589,-1.577325,6.726972,-1.170634,-1.204613,-0.317142,-18.549955,-61.550673,17.852581
58496,,9.103442,-2.045357,6.748484,-1.143456,-1.190352,-0.315384,-19.308987,-62.270396,17.965957
58497,,9.176002,-2.329210,6.635782,-1.021131,-1.173632,-0.322350,-19.990941,-62.970380,18.075385
58498,,9.423184,-2.458212,6.343785,-0.855032,-1.154763,-0.340689,-20.582938,-63.672832,18.185760
58499,,9.636304,-2.291475,6.046856,-0.706337,-1.110965,-0.375132,-21.035465,-64.348852,18.239274
58500,,9.789019,-1.900908,5.669935,-0.662021,-1.056053,-0.403680,-21.432892,-65.009258,18.255788
58501,,9.942990,-1.508096,5.373467,-0.744873,-0.988801,-0.431663,-21.809625,-65.631755,18.201007
58502,,9.953279,-1.172607,5.067245,-0.968155,-0.906467,-0.442613,-22.284634,-66.220038,18.110667
58503,,9.991721,-1.013053,4.708768,-1.276616,-0.822388,-0.448725,-22.882362,-66.758559,17.965129
58504,,9.967781,-1.177525,4.473340,-1.634377,-0.754414,-0.431707,-23.694504,-67.264644,17.827630
58505,,9.837861,-1.537230,4.330759,-1.926891,-0.698826,-0.395927,-24.691277,-67.727615,17.711812
58506,,9.594970,-2.017087,4.342362,-2.109684,-0.659033,-0.359263,-25.846023,-68.167866,17.651412
58507,,9.344179,-2.558807,4.308277,-2.143054,-0.640184,-0.340948,-27.041184,-68.588117,17.616486
58508,,9.198666,-3.091191,4.302081,-2.021962,-0.635433,-0.336858,-28.202692,-69.010242,17.617723
58509,,9.129890,-3.389334,4.317303,-1.783942,-0.650001,-0.345252,-29.236089,-69.436801,17.630042
58510,,9.170688,-3.439250,4.328202,-1.478779,-0.653818,-0.370114,-30.098081,-69.875925,17.643708
58511,,9.249782,-3.125835,4.261392,-1.218896,-0.636059,-0.401201,-30.755882,-70.311521,17.600809
58512,,9.298770,-2.618083,4.192662,-1.057701,-0.595106,-0.441328,-31.259925,-70.741176,17.490657
58513,,9.224838,-2.027112,4.055867,-1.043504,-0.536101,-0.466286,-31.659406,-71.147579,17.280997
58514,,9.214623,-1.657913,4.129301,-1.163842,-0.479405,-0.486747,-32.068605,-71.534149,17.007346
58515,,9.336866,-1.386190,4.208926,-1.378890,-0.416278,-0.503076,-32.504141,-71.894722,16.634217
58516,,9.571939,-1.300068,4.290121,-1.654118,-0.354176,-0.507561,-33.048259,-72.227983,16.208692
58517,,9.759957,-1.393103,4.144155,-1.929697,-0.266631,-0.508563,-33.649690,-72.520770,15.679878
58518,,9.839356,-1.580322,4.085145,-2.132592,-0.196994,-0.504226,-34.316195,-72.780278,15.097206
58519,,9.679603,-1.822040,3.878246,-2.285356,-0.126261,-0.506187,-34.981848,-73.009686,14.423873
58520,,9.449955,-2.250751,3.619155,-2.363150,-0.070950,-0.514163,-35.628862,-73.216749,13.684557
58521,,9.311581,-2.672730,3.440765,-2.365247,-0.063912,-0.526926,-36.238021,-73.428586,12.905983
58522,,9.360788,-3.123309,3.340753,-2.279915,-0.063986,-0.538915,-36.786461,-73.644420,12.115360
58523,,9.454831,-3.421964,3.330635,-2.127087,-0.065691,-0.547018,-37.222375,-73.868138,11.300202
58524,,9.526603,-3.513778,3.313938,-1.945581,-0.057419,-0.543884,-37.555374,-74.084902,10.486460
58525,,9.530397,-3.517312,3.080521,-1.791197,-0.044830,-0.530555,-37.785975,-74.296027,9.659700
58526,,9.585641,-3.435407,2.909828,-1.646928,-0.060779,-0.488949,-38.029065,-74.495748,8.931870
58527,,9.655289,-3.349933,2.835931,-1.510573,-0.057882,-0.462335,-38.211386,-74.690381,8.223425
58528,,9.636403,-3.282256,2.890393,-1.369039,-0.063357,-0.426496,-38.391634,-74.869410,7.596706
58529,,9.672192,-3.313269,3.042241,-1.212491,-0.066614,-0.389672,-38.523014,-75.043162,7.013574
58530,,9.659400,-3.226173,3.227653,-1.039645,-0.075312,-0.340238,-38.667696,-75.196493,6.546267
58531,,9.686458,-3.078634,3.289871,-0.881008,-0.081555,-0.293274,-38.783968,-75.343066,6.144731
58532,,9.726618,-2.840274,3.276883,-0.764939,-0.070264,-0.247554,-38.918131,-75.460153,5.829833
58533,,9.601540,-2.582096,3.170813,-0.692257,-0.050737,-0.200780,-39.038462,-75.560101,5.544616
58534,,9.595015,-2.524277,3.070002,-0.647092,-0.050350,-0.163257,-39.221113,-75.637214,5.349851
58535,,9.612395,-2.565503,2.951303,-0.607849,-0.023872,-0.132307,-39.372743,-75.700784,5.147047
58536,,9.610501,-2.609019,2.852222,-0.535523,-0.005771,-0.099509,-39.538745,-75.734379,5.001234
58537,,9.561912,-2.552407,2.828734,-0.456952,0.002055,-0.081560,-39.654979,-75.768216,4.851177
58538,,9.641260,-2.425482,2.704927,-0.391008,0.012501,-0.064377,-39.773337,-75.780260,4.741700
58539,,9.704118,-2.230246,2.543067,-0.353367,0.053051,-0.058697,-39.796261,-75.783366,4.556620
58540,,9.533110,-2.110058,2.448909,-0.338253,0.091381,-0.052209,-39.791691,-75.755711,4.351518
58541,,9.453917,-2.216271,2.386383,-0.326456,0.101758,-0.050633,-39.743376,-75.734380,4.108804
58542,,9.426201,-2.237143,2.285069,-0.290292,0.107360,-0.051238,-39.691058,-75.698877,3.882724
58543,,9.445171,-2.312367,2.262028,-0.247452,0.094791,-0.048814,-39.611719,-75.679814,3.654640
58544,,9.501389,-2.325421,2.253239,-0.193656,0.086133,-0.039043,-39.557219,-75.648744,3.483348
58545,,9.476467,-2.305107,2.271066,-0.146636,0.081187,-0.032268,-39.469028,-75.629508,3.305691
58546,,9.477896,-2.234860,2.217635,-0.105355,0.077729,-0.023261,-39.404676,-75.595945,3.176361
58547,,9.427911,-2.176009,2.179404,-0.072295,0.073026,-0.013165,-39.319213,-75.573247,3.045446
58548,,9.461640,-2.153133,2.080941,-0.051019,0.065385,-0.004800,-39.274178,-75.538100,2.968124
58549,,9.516866,-2.147988,2.002958,-0.021524,0.060157,-0.001062,-39.199206,-75.516636,2.878042
58550,,9.521009,-2.154030,1.938857,0.003561,0.038746,0.001806,-39.172655,-75.490734,2.852023
58551,,9.589511,-2.212986,1.935430,0.050860,0.026575,0.004023,-39.112239,-75.482296,2.819791
58552,,9.589795,-2.229441,2.010240,0.101399,0.016110,0.001745,-39.062078,-75.466370,2.827198
58553,,9.568199,-2.209383,1.993491,0.147736,0.005045,0.002340,-38.973325,-75.468084,2.823018
58554,,9.553797,-2.082919,2.002552,0.175717,-0.001526,0.004203,-38.910073,-75.458977,2.860813
58555,,9.518025,-2.011738,2.014360,0.188694,-0.009086,0.002859,-38.818308,-75.466786,2.877755
58556,,9.453270,-1.913244,2.107723,0.180981,-0.011348,0.002928,-38.763684,-75.462450,2.927532
58557,,9.432173,-1.892020,2.089250,0.178835,-0.015176,0.000736,-38.682248,-75.473732,2.949296
58558,,9.450429,-1.886263,2.074528,0.169510,-0.021276,0.010840,-38.661278,-75.470931,3.027033
58559,,9.516417,-1.923261,2.032253,0.160006,-0.020239,0.016086,-38.624072,-75.478973,3.083331
58560,,9.550692,-1.929576,2.106530,0.160363,-0.016544,0.015026,-38.608838,-75.472510,3.161561
58561,,9.581604,-1.842942,2.119515,0.154574,-0.007774,0.024319,-38.571732,-75.472019,3.214737
58562,,9.536099,-1.731046,2.089850,0.127725,0.006177,0.030071,-38.569460,-75.449947,3.287034
58563,,9.502090,-1.667574,2.066355,0.086647,0.019173,0.037773,-38.557296,-75.432562,3.325765
58564,,9.455393,-1.704596,2.087561,0.045916,0.033391,0.042039,-38.584241,-75.394055,3.379837
58565,,9.477379,-1.802188,2.103414,0.021219,0.044053,0.047571,-38.592095,-75.362000,3.400512
58566,,9.432667,-1.844582,2.091068,0.023217,0.038414,0.052083,-38.641482,-75.317647,3.464354
58567,,9.436802,-1.872434,2.097955,0.024947,0.036285,0.050483,-38.662509,-75.287998,3.500853
58568,,9.462264,-1.917654,2.125356,0.051384,0.024759,0.056508,-38.721100,-75.248108,3.590903
58569,,9.533418,-1.928179,2.134791,0.069978,0.017991,0.055383,-38.749183,-75.224844,3.661381
58570,,9.598849,-1.914486,2.141486,0.096529,0.019561,0.050627,-38.778234,-75.189287,3.747644
58571,,9.555555,-1.898352,2.175111,0.118457,0.021687,0.052140,-38.767703,-75.165502,3.806919
58572,,9.539865,-1.849737,2.207796,0.129812,0.023409,0.050072,-38.770824,-75.128361,3.886099
58573,,9.481854,-1.765884,2.198594,0.135043,0.023031,0.048839,-38.743192,-75.105142,3.937519
58574,,9.498509,-1.765297,2.186921,0.134065,0.024135,0.049565,-38.741125,-75.067821,4.013889
58575,,9.533157,-1.762610,2.159163,0.129135,0.028224,0.049670,-38.711116,-75.041968,4.059349
58576,,9.545822,-1.815311,2.136440,0.120400,0.034057,0.043254,-38.692134,-75.002479,4.110139
58577,,9.583009,-1.816729,2.075294,0.116226,0.038314,0.048474,-38.653927,-74.972530,4.139457
58578,,9.606024,-1.767640,2.042036,0.111699,0.037679,0.048814,-38.643850,-74.929471,4.194312
58579,,9.632163,-1.738409,2.045721,0.091938,0.034761,0.049468,-38.625847,-74.900740,4.230142
58580,,9.631881,-1.684192,2.096009,0.066342,0.034526,0.048644,-38.645042,-74.859265,4.288402
58581,,9.616249,-1.636637,2.127867,0.030472,0.036317,0.046729,-38.655466,-74.830794,4.317200
58582,,9.538008,-1.686889,2.114113,-0.009646,0.048149,0.039152,-38.683602,-74.786740,4.339639
58583,,9.471089,-1.784005,2.106860,-0.015596,0.044804,0.034114,-38.688313,-74.758965,4.335159
58584,,9.397487,-1.929686,2.121983,-0.011787,0.041694,0.027514,-38.706481,-74.722050,4.346000
58585,,9.397681,-1.993599,2.045641,0.017113,0.029247,0.026454,-38.700287,-74.703953,4.349632
58586,,9.385352,-1.932767,1.970278,0.042231,0.018528,0.018875,-38.703743,-74.680479,4.377275
58587,,9.446046,-1.893412,1.972707,0.059948,0.009193,0.017486,-38.684578,-74.674541,4.392897
58588,,9.507038,-1.868806,2.046249,0.067089,0.003032,0.013645,-38.685609,-74.659945,4.432751
58589,,9.513596,-1.819650,2.024864,0.057654,0.003996,0.011738,-38.665146,-74.658369,4.445655
58590,,9.496455,-1.748918,2.016184,0.042208,0.005193,0.005906,-38.664860,-74.645664,4.469341
58591,,9.474080,-1.819455,2.093753,0.028839,0.000910,0.011869,-38.665125,-74.645401,4.486610
58592,,9.469857,-1.872884,2.082939,0.016631,-0.001081,0.001582,-38.680363,-74.637147,4.511188
58593,,9.495263,-1.985991,2.133877,0.030072,-0.008617,0.003021,-38.677918,-74.644291,4.526369
58594,,9.576741,-2.184371,2.200151,0.073923,-0.011620,0.003823,-38.677671,-74.639955,4.568909
58595,,9.602442,-2.429939,2.199600,0.167289,-0.016700,0.007962,-38.615170,-74.648930,4.603331
58596,,9.562544,-2.736830,2.047847,0.321197,-0.028159,0.009707,-38.504836,-74.649733,4.678576
58597,,9.431899,-2.751990,1.942810,0.515486,-0.058406,0.004864,-38.291775,-74.678556,4.763734
58598,,9.424668,-2.563241,1.962184,0.684940,-0.088210,-0.000652,-38.035202,-74.709894,4.903277
58599,,9.461430,-2.196973,2.045807,0.794916,-0.111080,-0.013056,-37.699669,-74.769030,5.027397
58600,,9.531096,-1.754964,2.202901,0.819639,-0.116654,-0.017825,-37.373764,-74.819462,5.174923
58601,,9.594862,-1.410951,2.228336,0.751051,-0.104662,-0.023190,-37.036447,-74.879530,5.271080
58602,,9.559754,-1.182227,2.313421,0.619288,-0.081651,-0.028400,-36.760199,-74.917988,5.351129
58603,,9.545224,-1.108540,2.372056,0.467148,-0.056283,-0.027080,-36.515787,-74.957368,5.374993
58604,,9.521905,-1.282355,2.368247,0.330159,-0.034991,-0.027044,-36.345363,-74.974148,5.393186
58605,,9.559078,-1.544699,2.244946,0.240876,-0.029206,-0.032475,-36.186203,-75.002865,5.371074
58606,,9.537091,-1.799766,2.239927,0.215252,-0.019844,-0.026418,-36.061976,-75.012504,5.369001
58607,,9.543744,-1.952853,2.201979,0.227376,-0.017728,-0.025944,-35.906842,-75.033650,5.343042
58608,,9.543825,-2.015805,2.235591,0.267867,-0.026344,-0.023128,-35.765999,-75.045124,5.354957
58609,,9.515468,-1.961782,2.245470,0.314280,-0.030256,-0.019126,-35.588161,-75.069765,5.357030
58610,,9.495230,-1.799318,2.270241,0.333448,-0.032811,-0.018946,-35.424918,-75.082737,5.384615
58611,,9.511644,-1.644676,2.333691,0.322177,-0.029690,-0.019414,-35.240791,-75.107189,5.384852
58612,,9.533713,-1.513395,2.401092,0.282090,-0.027828,-0.019419,-35.099120,-75.117940,5.404323
