// Start Time: Unknown
// Update Rate: 100.0Hz
// Filter Profile: human (46.1)
// Firmware Version: 4.3.5
PacketCounter,Acc_X,Acc_Y,Acc_Z,Gyr_X,Gyr_Y,Gyr_Z
46092,9.162946,-2.544993,2.809063,-0.001409,0.005511,-0.038696
46093,9.159483,-2.540368,2.833666,0.001612,0.007310,-0.040664
46094,9.184331,-2.551380,2.814375,0.000188,0.006001,-0.041942
46095,9.165443,-2.533855,2.810985,-0.000247,0.009270,-0.038551
46096,9.185857,-2.544304,2.815802,-0.005327,0.008086,-0.036770
46097,9.177010,-2.562276,2.790986,-0.001067,0.011990,-0.032928
46098,9.201569,-2.574187,2.771924,-0.002618,0.007661,-0.030836
46099,9.213199,-2.583266,2.824870,-0.001453,0.011436,-0.030695
46100,9.184462,-2.587964,2.796158,0.000420,0.011607,-0.025974
46101,9.165023,-2.571965,2.793166,0.002294,0.011779,-0.021254
46102,9.178874,-2.550014,2.796082,0.004750,0.013842,-0.016463
46103,9.165118,-2.568683,2.795874,0.001674,0.015854,-0.013336
46104,9.216483,-2.542154,2.780631,-0.001729,0.013502,-0.009139
46105,9.214582,-2.508495,2.755547,-0.003842,0.017947,-0.008171
46106,9.191322,-2.549251,2.729184,-0.011828,0.007316,-0.006748
46107,9.244349,-2.556567,2.739671,-0.008792,0.011271,-0.001887
46108,9.190993,-2.548866,2.730653,-0.000638,0.010440,-0.006787
46109,9.161788,-2.555589,2.701760,0.009261,0.006769,-0.003598
46110,9.202873,-2.494561,2.707514,0.014849,0.003002,-0.003092
46111,9.165109,-2.499308,2.726268,0.015104,0.000527,-0.001952
46112,9.208941,-2.527269,2.710922,0.017997,-0.000684,-0.000549
46113,9.293930,-2.616051,2.729943,0.012210,-0.006771,0.004523
46114,9.472015,-2.838312,2.870664,0.026123,-0.001906,0.017244
46115,9.628706,-2.950847,2.905106,0.048501,0.008243,0.053516
46116,9.784791,-3.342227,3.027777,0.070395,0.021241,0.115883
46117,9.978312,-3.857497,3.141823,0.103696,0.049303,0.214695
46118,10.217650,-4.368112,3.345962,0.154233,0.092742,0.349478
46119,10.549971,-4.990522,3.459123,0.208122,0.147634,0.545192
46120,10.734935,-5.518734,3.580414,0.256735,0.219427,0.802539
46121,10.622897,-5.608084,3.712782,0.284489,0.292751,1.045204
46122,10.669639,-5.501153,3.672782,0.284203,0.336873,1.278258
46123,10.622367,-5.562673,3.530710,0.270600,0.387945,1.483965
46124,10.524966,-5.679812,3.438375,0.299791,0.423888,1.658007
46125,10.273871,-5.706281,3.488542,0.354674,0.431376,1.799830
46126,9.961897,-5.612950,3.768948,0.415649,0.442241,1.908217
46127,9.639284,-5.469726,3.993126,0.450202,0.455612,1.983689
46128,9.318233,-5.361314,4.320019,0.455522,0.480482,2.049727
46129,8.948119,-5.333086,4.644228,0.430269,0.514305,2.099973
46130,8.461297,-5.385813,4.927079,0.391068,0.549270,2.153882
46131,7.936755,-5.389455,5.194540,0.345615,0.593125,2.176826
46132,7.494760,-5.345728,5.319738,0.286264,0.633045,2.186429
46133,7.078934,-5.268041,5.340884,0.230318,0.675255,2.171511
46134,6.609293,-5.277418,5.206152,0.192494,0.691734,2.141586
46135,6.079353,-5.390948,5.145046,0.178119,0.693644,2.094597
46136,5.650811,-5.614545,5.122739,0.189081,0.677143,2.038025
46137,5.410299,-5.961600,5.193100,0.241673,0.661442,1.967851
46138,5.293181,-6.266785,5.266210,0.307345,0.635936,1.909271
46139,5.349120,-6.233133,5.427278,0.384976,0.622807,1.849501
46140,5.363347,-6.208362,5.558370,0.443216,0.623910,1.784393
46141,5.314958,-6.204339,5.655557,0.485478,0.624207,1.726003
46142,5.209288,-6.214102,5.640210,0.513045,0.627639,1.664353
46143,5.110249,-6.128131,5.630457,0.516064,0.622475,1.609149
46144,5.053791,-6.206316,5.667843,0.501823,0.620707,1.549770
46145,5.058273,-6.337530,5.708994,0.504259,0.620148,1.494119
46146,4.980857,-6.452283,5.674249,0.515947,0.618808,1.435886
46147,4.976969,-6.558491,5.712177,0.541059,0.625190,1.374346
46148,4.984596,-6.703797,5.637779,0.590761,0.619690,1.310395
46149,4.867623,-6.702387,5.569973,0.629807,0.612253,1.250318
46150,4.788133,-6.706036,5.514988,0.669767,0.587650,1.185764
46151,4.836308,-6.607928,5.439156,0.712767,0.566896,1.114729
46152,4.715578,-6.470757,5.353407,0.741945,0.536650,1.049787
46153,4.642822,-6.512353,5.203909,0.775001,0.495418,0.972820
46154,4.622086,-6.636829,5.017428,0.820218,0.443852,0.889857
46155,4.721748,-6.605212,4.893355,0.877288,0.396453,0.814721
46156,4.778835,-6.642491,4.781811,0.935132,0.340010,0.735126
46157,4.837551,-6.668631,4.695261,1.013535,0.277201,0.664407
46158,5.023832,-6.551183,4.865883,1.086266,0.235581,0.590863
46159,5.106094,-6.237145,5.088368,1.105290,0.215472,0.518346
46160,5.237724,-6.100892,5.148285,1.094768,0.217149,0.447294
46161,5.353530,-6.078614,5.111825,1.076347,0.222175,0.379857
46162,5.455030,-5.806056,5.065256,1.047000,0.220240,0.310725
46163,5.432604,-5.479220,5.027972,0.972737,0.220835,0.243471
46164,5.368885,-5.361357,4.952736,0.884963,0.210712,0.173646
46165,5.304965,-5.346233,4.804054,0.779618,0.192273,0.106524
46166,5.367707,-5.418602,4.788425,0.708372,0.178591,0.037506
46167,5.399745,-5.601806,4.560235,0.697214,0.163180,-0.042990
46168,5.502894,-5.661777,4.495142,0.768487,0.158260,-0.130001
46169,5.554365,-5.209965,4.781719,0.847116,0.159322,-0.233920
46170,5.614460,-4.609551,4.991723,0.853248,0.171116,-0.334869
46171,5.633274,-4.326755,4.862328,0.790427,0.181447,-0.428152
46172,5.644254,-4.299524,4.807241,0.696535,0.180278,-0.516827
46173,5.815456,-4.178306,4.896524,0.588752,0.179686,-0.606603
46174,6.125488,-3.922525,4.924093,0.456295,0.178192,-0.692711
46175,6.417294,-3.775510,5.061684,0.305185,0.178746,-0.766729
46176,6.595189,-3.609419,5.408274,0.143835,0.198112,-0.828187
46177,6.579441,-3.625847,5.336245,-0.008794,0.216550,-0.887829
46178,6.538398,-3.849372,4.949132,-0.105552,0.199925,-0.951264
46179,6.608880,-4.000619,4.557489,-0.157144,0.185095,-1.023171
46180,6.734792,-3.910749,4.374929,-0.207372,0.154456,-1.073067
46181,6.940755,-3.770826,4.252417,-0.307803,0.103482,-1.099755
46182,7.249844,-3.887422,4.367289,-0.403892,0.063039,-1.110107
46183,7.495548,-3.984441,4.496887,-0.470280,0.040953,-1.109761
46184,7.625274,-3.968890,4.629757,-0.512050,0.022651,-1.088174
46185,7.477493,-3.661137,4.545233,-0.604275,0.016660,-1.058808
46186,7.292333,-3.215854,4.281580,-0.779034,-0.021775,-1.006129
46187,7.317852,-3.225260,3.917047,-0.980957,-0.078587,-0.949654
46188,7.500849,-3.724672,3.838300,-1.107209,-0.143443,-0.887703
46189,7.765116,-4.283493,4.030675,-1.096146,-0.180140,-0.829292
46190,7.874027,-4.724194,4.230275,-0.946501,-0.203558,-0.776785
46191,7.799567,-4.867595,4.450156,-0.720928,-0.202870,-0.732632
46192,7.459610,-4.531209,4.307868,-0.536470,-0.212873,-0.694636
46193,7.255482,-4.043069,4.147957,-0.455886,-0.250657,-0.653233
46194,7.206352,-3.859650,4.180727,-0.462850,-0.295549,-0.604090
46195,7.497561,-4.399503,4.438710,-0.473453,-0.314803,-0.545179
46196,7.858099,-5.117763,4.811966,-0.419146,-0.305206,-0.472796
46197,8.145768,-5.592421,5.032947,-0.287428,-0.261427,-0.394220
46198,8.084273,-5.335692,4.958753,-0.144127,-0.215982,-0.322046
46199,7.858183,-4.449214,4.878950,-0.098090,-0.186009,-0.252510
46200,7.580385,-3.654976,4.702483,-0.195501,-0.188433,-0.193835
46201,7.626504,-3.500887,4.747601,-0.365967,-0.197488,-0.136669
46202,7.905170,-3.751529,4.967187,-0.539967,-0.185580,-0.074732
46203,8.023969,-4.403461,4.884704,-0.626936,-0.171783,-0.028031
46204,8.247954,-5.090542,5.126445,-0.584470,-0.152537,0.026019
46205,8.075493,-5.437600,4.649837,-0.395117,-0.166744,0.061420
46206,8.000018,-5.102322,4.553480,-0.207957,-0.191600,0.097197
46207,7.926075,-4.330432,4.792902,-0.146714,-0.196407,0.146332
46208,8.147146,-4.325146,4.931991,-0.194281,-0.201141,0.203602
46209,8.228367,-4.770001,4.855716,-0.162475,-0.181095,0.239665
46210,8.237058,-4.998848,4.850816,-0.052618,-0.173857,0.289898
46211,8.215325,-4.902612,4.792190,0.053188,-0.161585,0.356563
46212,8.313979,-4.881149,4.647242,0.128631,-0.143890,0.425033
46213,8.289144,-4.954434,4.516934,0.189657,-0.135933,0.494114
46214,8.314656,-5.049658,4.472388,0.223904,-0.118133,0.574884
46215,8.000712,-5.258087,4.394212,0.272504,-0.113724,0.650428
46216,7.712174,-5.470119,4.336594,0.412733,-0.123858,0.688186
46217,7.707324,-5.805390,4.444729,0.629044,-0.137833,0.707898
46218,7.779242,-6.017475,4.531039,0.879213,-0.158805,0.727052
46219,7.903344,-5.692302,4.647540,1.071095,-0.178040,0.739473
46220,7.989490,-5.221009,4.885819,1.149449,-0.193002,0.762701
46221,8.022658,-4.911378,4.991867,1.118288,-0.186253,0.794011
46222,7.861530,-4.674110,4.933592,1.007910,-0.178938,0.830986
46223,7.662489,-4.608612,4.781753,0.857168,-0.186393,0.867559
46224,7.295041,-4.855630,4.613491,0.709685,-0.214137,0.893575
46225,7.164606,-5.358472,4.499182,0.609796,-0.264806,0.908260
46226,7.229318,-5.728274,4.698445,0.555697,-0.314468,0.928483
46227,7.374391,-5.685794,4.951867,0.522091,-0.343537,0.939361
46228,7.456588,-5.510505,5.169029,0.474778,-0.350061,0.950146
46229,7.476989,-5.295266,5.252249,0.383708,-0.344589,0.950513
46230,7.347654,-5.160052,5.318205,0.256886,-0.323157,0.962004
46231,6.975539,-5.245474,5.300292,0.121820,-0.320521,0.968432
46232,6.763224,-5.739493,5.251107,0.043874,-0.324549,0.977922
46233,6.703016,-6.659657,5.240357,0.076780,-0.336158,0.979264
46234,6.507499,-7.130291,5.342902,0.212537,-0.341111,0.993101
46235,6.320998,-6.948720,5.551660,0.348434,-0.365326,1.010159
46236,6.431362,-6.561345,5.708711,0.408097,-0.369931,1.025607
46237,6.567244,-6.416403,5.854310,0.384535,-0.361134,1.038309
46238,6.676656,-6.462709,5.861711,0.310972,-0.341964,1.051317
46239,6.645570,-6.573928,5.948838,0.224181,-0.319611,1.075029
46240,6.555305,-6.680185,5.984774,0.115242,-0.288835,1.091081
46241,6.335122,-6.890625,6.214208,0.015090,-0.260815,1.126860
46242,6.092494,-7.204905,6.381617,-0.028713,-0.233338,1.141809
46243,6.052507,-7.288888,6.379313,-0.027282,-0.196953,1.156837
46244,5.939055,-7.237781,6.489230,-0.026238,-0.152824,1.164756
46245,5.780230,-7.372490,6.414394,-0.047307,-0.116285,1.177820
46246,5.518999,-7.341726,6.316476,-0.061999,-0.084404,1.181092
46247,5.362306,-7.418298,6.327528,-0.081870,-0.060450,1.181760
46248,5.218239,-7.355479,6.319017,-0.103071,-0.050995,1.187927
46249,4.958311,-7.227789,6.367176,-0.160121,-0.045311,1.195148
46250,4.824235,-7.094058,6.568120,-0.220635,-0.028459,1.189389
46251,4.819117,-7.186376,6.683540,-0.281275,-0.005147,1.170925
46252,4.720155,-7.304418,6.544899,-0.288425,0.014715,1.156233
46253,4.368616,-7.286274,6.471698,-0.263090,0.034786,1.134204
46254,3.967513,-7.233458,6.212404,-0.237281,0.020103,1.122279
46255,3.665820,-6.992333,5.838598,-0.212150,-0.016334,1.104377
46256,3.389010,-7.168691,5.758590,-0.204943,-0.057783,1.098638
46257,3.477332,-7.651549,5.830836,-0.147886,-0.102314,1.115722
46258,3.589112,-7.846122,6.058376,-0.052824,-0.129193,1.119902
46259,3.578064,-7.678662,6.307924,0.047060,-0.135741,1.129683
46260,3.441275,-7.434697,6.516273,0.146584,-0.129328,1.118517
46261,3.443455,-7.515878,6.813566,0.217149,-0.100212,1.103262
46262,3.441312,-7.561181,6.874047,0.248912,-0.059691,1.104989
46263,3.295280,-7.105404,6.898175,0.207673,-0.001567,1.113337
46264,2.986446,-7.020404,6.835605,0.079508,0.049496,1.115304
46265,2.803929,-7.449335,6.892159,-0.034272,0.096610,1.128259
46266,2.246311,-7.970827,6.813817,-0.075860,0.154026,1.136811
46267,2.114418,-7.899875,7.038855,0.004355,0.185964,1.119517
46268,2.349623,-7.970426,7.391604,0.056934,0.243038,1.130404
46269,2.489026,-7.316111,7.896469,0.084129,0.331214,1.142597
46270,2.175739,-7.811347,8.116769,0.001080,0.451104,1.175559
46271,1.405884,-8.280979,8.010410,0.102845,0.571018,1.189270
46272,1.140165,-8.186400,7.947936,0.254391,0.646596,1.205642
46273,1.023085,-7.680767,8.059473,0.317393,0.711935,1.252210
46274,0.993019,-7.800919,8.365265,0.265405,0.772320,1.323839
46275,0.898840,-8.632615,8.714173,0.216035,0.863331,1.405737
46276,0.854895,-8.953616,8.936858,0.227219,0.946091,1.492454
46277,0.535684,-9.460357,8.936439,0.349212,1.043636,1.575853
46278,-0.081742,-9.180737,8.966281,0.488547,1.132437,1.664892
46279,-0.140313,-8.574876,9.133792,0.519536,1.211516,1.772543
46280,-0.187601,-8.663066,8.974642,0.444703,1.322211,1.895997
46281,-0.313549,-9.328682,8.767999,0.489880,1.401675,2.008868
46282,-0.303313,-9.598907,8.710988,0.617921,1.475484,2.159970
46283,-0.323647,-9.712370,8.869338,0.782383,1.536570,2.307405
46284,-0.214704,-9.807093,8.726188,0.916168,1.611063,2.460401
46285,-0.363186,-9.624653,8.478579,1.145580,1.676394,2.584454
46286,-0.603721,-9.101447,8.496384,1.379764,1.756261,2.694251
46287,-0.773055,-8.537506,8.408578,1.471186,1.810557,2.792614
46288,-0.925474,-8.728636,8.172333,1.537743,1.858708,2.897219
46289,-1.360180,-8.399846,7.766182,1.670142,1.899627,2.981829
46290,-1.805336,-7.804664,7.521308,1.770561,1.905302,3.028894
46291,-1.934970,-7.408779,7.556667,1.821686,1.899989,3.070667
46292,-1.874273,-7.351451,7.618411,1.846605,1.898646,3.112598
46293,-2.011019,-7.173290,7.608557,1.868106,1.911496,3.162074
46294,-2.269473,-7.262386,7.314811,1.914300,1.911573,3.188173
46295,-2.555977,-7.062095,6.990279,2.024537,1.905563,3.182285
46296,-2.794447,-6.871717,6.777774,2.146805,1.901235,3.158772
46297,-2.948761,-6.655256,6.540619,2.309165,1.900708,3.108568
46298,-3.097016,-6.377751,6.349334,2.489170,1.886090,3.052665
46299,-3.279866,-5.963792,6.376808,2.643961,1.892398,2.983899
46300,-3.487048,-5.469607,6.387423,2.738692,1.897097,2.909453
46301,-3.845538,-4.843814,6.397065,2.799202,1.906418,2.825584
46302,-4.149529,-4.685325,6.391284,2.809166,1.916338,2.745628
46303,-4.270634,-4.327583,6.289489,2.837262,1.914953,2.659532
46304,-4.303616,-3.928930,6.308161,2.845210,1.909960,2.579505
46305,-4.399971,-3.398220,6.340710,2.817413,1.911221,2.490073
46306,-4.513737,-2.743222,6.332764,2.727460,1.916137,2.421305
46307,-4.747923,-2.439025,6.332250,2.596230,1.920588,2.356845
46308,-4.956331,-2.330289,6.145954,2.481956,1.907818,2.296896
46309,-5.175565,-2.238417,5.866629,2.436612,1.877078,2.232987
46310,-5.416608,-2.041750,5.642062,2.431113,1.838825,2.157741
46311,-5.546640,-1.698459,5.450752,2.442511,1.792943,2.077491
46312,-5.648019,-1.430003,5.389304,2.436416,1.751933,2.003823
46313,-5.728246,-1.067269,5.338805,2.453432,1.720486,1.921943
46314,-5.874109,-0.687955,5.404749,2.430680,1.683650,1.857578
46315,-5.904147,-0.489839,5.305251,2.366986,1.653653,1.785991
46316,-6.001874,-0.136182,5.162825,2.266519,1.625518,1.727682
46317,-6.106320,0.263472,4.930329,2.127586,1.598548,1.660740
46318,-6.014719,0.623909,4.764524,1.967892,1.564348,1.594723
46319,-5.888840,0.733487,4.636865,1.812568,1.537233,1.531298
46320,-5.729196,0.608795,4.773875,1.739386,1.552862,1.476192
46321,-5.850974,0.531216,4.942305,1.730655,1.545166,1.428269
46322,-5.856794,0.554781,4.913557,1.744675,1.530654,1.393111
46323,-5.975651,0.856649,4.655461,1.725535,1.548158,1.352409
46324,-6.058003,1.362764,4.343528,1.651942,1.545775,1.308160
46325,-6.202105,1.561762,3.921204,1.552755,1.532226,1.265361
46326,-6.235473,1.705100,3.524850,1.463985,1.509453,1.226058
46327,-6.318921,1.897630,3.425849,1.402153,1.506739,1.182029
46328,-6.346168,2.350841,3.231240,1.322264,1.471767,1.141982
46329,-6.469533,2.628237,3.272323,1.251632,1.467277,1.090802
46330,-6.644726,2.671558,3.113349,1.174560,1.381708,1.048579
46331,-6.651696,2.587581,2.981127,1.133259,1.307825,0.992479
46332,-6.649049,2.817669,2.692782,1.115592,1.227612,0.935530
46333,-6.673641,3.316791,2.577448,1.082063,1.149234,0.865601
46334,-6.678506,3.838553,2.414975,0.988315,1.070557,0.795333
46335,-6.758048,4.277308,2.263282,0.839627,0.991458,0.726265
46336,-6.920252,4.436721,2.196275,0.654565,0.911523,0.659361
46337,-7.066288,4.563611,2.086711,0.473626,0.822145,0.578573
46338,-7.078621,4.562501,2.030968,0.317754,0.723188,0.500732
46339,-7.114938,4.626875,2.094886,0.188342,0.632329,0.425127
46340,-7.161539,4.607542,2.159764,0.069300,0.548516,0.341095
46341,-7.207793,4.650691,2.293677,-0.041505,0.474660,0.271439
46342,-7.321650,4.605637,2.445380,-0.134296,0.406315,0.192143
46343,-7.278780,4.414106,2.354280,-0.156205,0.335038,0.098561
46344,-7.323103,4.432082,2.188753,-0.125874,0.257286,0.005862
46345,-7.398279,4.785877,2.021086,-0.150543,0.178269,-0.064772
46346,-7.424362,5.375858,2.050667,-0.290385,0.097155,-0.125830
46347,-7.347520,5.426205,2.062131,-0.517342,0.018338,-0.194544
46348,-7.150604,4.908431,2.023535,-0.716666,-0.067098,-0.263521
46349,-6.990239,4.422743,2.017072,-0.791106,-0.140968,-0.346952
46350,-6.977949,4.142335,2.102654,-0.789012,-0.199988,-0.429430
46351,-6.997614,4.148063,2.283969,-0.753636,-0.264957,-0.522357
46352,-7.027909,4.065365,2.478565,-0.725365,-0.320811,-0.621428
46353,-7.036102,3.901334,2.589736,-0.722791,-0.378585,-0.722941
46354,-6.983967,3.808467,2.598782,-0.729220,-0.433700,-0.829039
46355,-6.891990,3.810959,2.560388,-0.766417,-0.493036,-0.954566
46356,-6.863584,3.662176,2.442714,-0.820330,-0.553073,-1.073449
46357,-6.919807,3.564776,2.336351,-0.868157,-0.611412,-1.188505
46358,-6.969477,3.407722,2.324347,-0.903569,-0.683263,-1.287353
46359,-7.050314,3.292741,2.377784,-0.934665,-0.751130,-1.378509
46360,-6.975318,3.171947,2.418326,-0.981631,-0.835610,-1.465057
46361,-6.875707,2.964488,2.442717,-1.049011,-0.919412,-1.543261
46362,-6.918249,2.686819,2.501498,-1.122755,-1.008250,-1.617910
46363,-7.009616,2.473364,2.559961,-1.195592,-1.094819,-1.675263
46364,-7.155480,2.218662,2.616621,-1.262716,-1.186939,-1.732218
46365,-7.277844,2.087306,2.746818,-1.337846,-1.271799,-1.780101
46366,-7.435254,2.125409,2.845936,-1.438884,-1.356149,-1.837043
46367,-7.357689,2.051193,2.830894,-1.577359,-1.455395,-1.899528
46368,-7.153974,1.832386,2.838239,-1.737549,-1.558007,-1.964993
46369,-6.890936,1.294336,2.742274,-1.851112,-1.665876,-2.042524
46370,-6.767822,0.701965,2.894176,-1.906019,-1.761015,-2.108354
46371,-6.717865,0.156638,3.230268,-1.876517,-1.855816,-2.162170
46372,-6.644765,-0.211357,3.556747,-1.809224,-1.940233,-2.204153
46373,-6.607635,-0.278442,3.868455,-1.732767,-2.023424,-2.247530
46374,-6.493746,-0.292147,4.142249,-1.689587,-2.102731,-2.288888
46375,-6.345491,-0.335201,4.344494,-1.698135,-2.177236,-2.324597
46376,-6.192344,-0.283086,4.628157,-1.745781,-2.234295,-2.367146
46377,-6.233807,-0.370092,4.781346,-1.837846,-2.272743,-2.431637
46378,-6.124220,-0.724992,4.919592,-1.974342,-2.330026,-2.480715
46379,-5.876371,-1.294639,5.208317,-2.093208,-2.369683,-2.535558
46380,-5.701475,-1.728396,5.582415,-2.147103,-2.388973,-2.583719
46381,-5.567003,-2.134279,5.975655,-2.163378,-2.406267,-2.623820
46382,-5.261560,-2.555473,6.296212,-2.133456,-2.414844,-2.666283
46383,-4.968119,-2.892118,6.510155,-2.065860,-2.405448,-2.703008
46384,-4.878568,-3.442676,6.700956,-1.974794,-2.388558,-2.744496
46385,-4.709543,-4.140638,6.918644,-1.843797,-2.376324,-2.780536
46386,-4.532147,-4.520716,7.182776,-1.674561,-2.348475,-2.798211
46387,-4.270244,-4.972152,7.715798,-1.497999,-2.313803,-2.818931
46388,-3.774822,-5.627066,8.359558,-1.313886,-2.265575,-2.805838
46389,-3.403256,-5.425550,8.724289,-1.152610,-2.202486,-2.785476
46390,-3.270887,-4.775761,8.841756,-1.111443,-2.133704,-2.761948
46391,-3.100189,-4.401821,8.887370,-1.166512,-2.053916,-2.744895
46392,-2.906573,-4.765637,8.869465,-1.222785,-1.964044,-2.735020
46393,-2.758718,-5.566405,8.976698,-1.174716,-1.883009,-2.728951
46394,-2.671277,-6.201142,8.994516,-0.983491,-1.804310,-2.727679
46395,-2.378897,-6.629200,9.258171,-0.773806,-1.730486,-2.729289
46396,-1.997950,-6.850934,9.690685,-0.597908,-1.630184,-2.711249
46397,-1.475247,-6.752211,10.135084,-0.532504,-1.534554,-2.671480
46398,-1.065704,-6.499310,10.299406,-0.577304,-1.419594,-2.605824
46399,-1.054162,-5.994109,10.098487,-0.714208,-1.315157,-2.552011
46400,-1.062536,-5.495636,9.607561,-0.889841,-1.228251,-2.527343
46401,-0.947148,-5.491639,9.071183,-1.065008,-1.149951,-2.513305
46402,-0.734457,-6.002352,8.670070,-1.164547,-1.079491,-2.507484
46403,-0.608329,-6.770648,8.284211,-1.134321,-1.007393,-2.516974
46404,-0.464824,-7.473724,8.277543,-0.976750,-0.958161,-2.519877
46405,-0.140174,-7.772554,8.389776,-0.766081,-0.924482,-2.508939
46406,0.110217,-7.450669,8.689500,-0.631931,-0.877698,-2.488721
46407,0.239221,-6.869838,8.855486,-0.621923,-0.817966,-2.478819
46408,0.447393,-6.462511,8.643149,-0.723277,-0.761560,-2.466645
46409,0.626337,-6.386888,8.277669,-0.855618,-0.724805,-2.459133
46410,0.655854,-6.695292,7.790074,-0.939989,-0.683520,-2.461684
46411,0.717942,-7.146444,7.446147,-0.927658,-0.662878,-2.479695
46412,0.598781,-7.567980,7.334950,-0.863212,-0.655249,-2.491829
46413,0.768397,-7.676386,7.417437,-0.804865,-0.664571,-2.504638
46414,1.103565,-7.578191,7.712868,-0.837132,-0.658971,-2.494976
46415,1.595935,-7.161021,8.077600,-1.009170,-0.638230,-2.459900
46416,2.015524,-6.508838,7.890898,-1.321982,-0.588209,-2.417267
46417,2.569492,-6.400605,7.346123,-1.621203,-0.489336,-2.402683
46418,2.928891,-8.223005,6.820943,-1.697769,-0.419655,-2.360963
46419,3.051080,-10.682673,6.340674,-1.394497,-0.393724,-2.334336
46420,2.959230,-12.026419,6.197309,-0.806471,-0.403059,-2.298164
46421,3.067779,-11.436699,6.544398,-0.269846,-0.417707,-2.214302
46422,3.356680,-9.831674,6.910495,-0.039509,-0.423200,-2.109266
46423,3.705676,-8.625925,7.024436,-0.079820,-0.411395,-1.995205
46424,3.894519,-8.137301,7.012971,-0.243286,-0.391497,-1.894314
46425,3.978527,-8.106013,6.746631,-0.378060,-0.381348,-1.823389
46426,4.054613,-8.132020,6.324928,-0.430295,-0.382824,-1.781116
46427,4.200754,-8.072874,6.037367,-0.336394,-0.390404,-1.768632
46428,4.638067,-8.280455,6.192202,-0.261178,-0.384198,-1.717790
46429,5.028468,-8.435435,6.284742,-0.184806,-0.367863,-1.644924
46430,5.606828,-8.513588,6.481704,-0.169371,-0.325721,-1.546870
46431,5.913710,-8.401816,6.610224,-0.182944,-0.271440,-1.444304
46432,6.126753,-8.148690,6.509243,-0.200440,-0.207324,-1.346641
46433,6.083534,-7.770294,6.403945,-0.224632,-0.144579,-1.262038
46434,5.979846,-7.513622,6.216526,-0.278331,-0.082759,-1.186414
46435,5.967724,-7.470182,6.068730,-0.304853,-0.029246,-1.137835
46436,5.774324,-7.388018,5.891259,-0.288747,0.004173,-1.097065
46437,5.709940,-7.094361,5.776596,-0.262773,0.017469,-1.063609
46438,5.798446,-6.800638,5.675535,-0.268603,0.026897,-1.032178
46439,5.975509,-6.536257,5.680886,-0.320930,0.032913,-0.992463
46440,6.090020,-6.471649,5.617520,-0.395799,0.039692,-0.942552
46441,6.259245,-6.591548,5.665437,-0.447407,0.058744,-0.884807
46442,6.316280,-6.707333,5.577868,-0.470228,0.080974,-0.822689
46443,6.325070,-6.675793,5.479202,-0.429112,0.108564,-0.776268
46444,6.251212,-6.513533,5.420897,-0.380544,0.130206,-0.737150
46445,6.128469,-6.283264,5.188019,-0.342552,0.134480,-0.709186
46446,6.128499,-6.223876,5.037012,-0.335711,0.119448,-0.680013
46447,6.136815,-6.312084,4.932849,-0.327369,0.093880,-0.642718
46448,6.176178,-6.385699,4.893274,-0.273334,0.067204,-0.606724
46449,6.149735,-6.189280,5.054377,-0.213161,0.052300,-0.566736
46450,6.070221,-5.981420,5.166429,-0.157335,0.060288,-0.544029
46451,5.973650,-5.862593,5.107050,-0.123690,0.072930,-0.525351
46452,6.099838,-5.848243,4.988609,-0.083028,0.082300,-0.502125
46453,6.199315,-5.694665,4.879676,-0.056986,0.087795,-0.472888
46454,6.203008,-5.306564,4.803301,-0.106834,0.081941,-0.425716
46455,6.156376,-5.038980,4.897575,-0.246896,0.086566,-0.372440
46456,6.127212,-5.149047,4.868626,-0.404971,0.085909,-0.325642
46457,6.129076,-5.515901,5.020018,-0.497860,0.086375,-0.281672
46458,6.143065,-5.848543,5.050484,-0.508048,0.087133,-0.262873
46459,6.319958,-6.014990,5.087191,-0.462747,0.070534,-0.238879
46460,6.378534,-6.109405,5.081008,-0.401018,0.069783,-0.216598
46461,6.429873,-5.990969,4.971561,-0.357792,0.075113,-0.189330
46462,6.299553,-5.945544,4.823809,-0.341437,0.068010,-0.157241
46463,6.239447,-5.911492,4.575273,-0.313399,0.051222,-0.136442
46464,6.205493,-5.903756,4.566487,-0.268917,0.030696,-0.126749
46465,6.073064,-5.902413,4.514480,-0.202469,0.007482,-0.122726
46466,6.187530,-5.834277,4.678714,-0.130362,-0.008171,-0.118302
46467,6.263514,-5.665733,4.779831,-0.087954,-0.008655,-0.114065
46468,6.222475,-5.436970,4.677982,-0.079828,-0.004025,-0.110274
46469,6.270408,-5.526858,4.546550,-0.094611,-0.012771,-0.108218
46470,6.378211,-5.594920,4.465553,-0.076267,-0.024862,-0.116352
46471,6.335489,-5.551731,4.538104,-0.051156,-0.033785,-0.132802
46472,6.353209,-5.432046,4.651438,-0.041795,-0.045660,-0.149884
46473,6.435280,-5.342135,4.552900,-0.044513,-0.066663,-0.170643
46474,6.537744,-5.340465,4.561913,-0.069159,-0.068976,-0.198047
46475,6.533799,-5.471372,4.516742,-0.093840,-0.081012,-0.218035
46476,6.580658,-5.623739,4.634166,-0.089346,-0.094251,-0.253079
46477,6.984110,-4.970936,5.200979,-0.125855,-0.083166,-0.265011
46478,7.413898,-4.705874,6.012511,-0.507293,-0.003337,-0.183630
46479,7.286152,-5.858140,5.326905,-0.843920,0.015701,-0.131942
46480,7.222815,-6.575540,5.256710,-0.858349,0.113674,-0.134250
46481,6.815141,-6.928578,4.990408,-0.672673,0.087624,-0.099419
46482,6.898843,-6.456989,4.861397,-0.514183,0.067128,-0.075191
46483,6.766393,-6.965122,4.409494,-0.397367,0.022356,-0.043596
46484,6.878334,-7.489418,4.409480,-0.160274,-0.005218,-0.031073
46485,6.880944,-7.525287,4.386658,0.147821,-0.023312,0.005533
46486,6.993262,-7.083189,4.257439,0.417535,-0.051884,0.057360
46487,7.214533,-7.302512,4.357048,0.759547,-0.040844,0.053541
46488,7.229513,-6.119239,4.511509,1.079297,-0.034869,0.049437
46489,7.278461,-4.513346,4.487072,1.100562,-0.012367,0.089203
46490,7.474444,-3.503474,4.660947,0.819882,0.015667,0.124210
46491,7.555347,-3.243892,4.597360,0.469204,0.036992,0.147711
46492,7.498874,-3.081084,4.363481,0.138421,0.064127,0.157456
46493,7.684972,-3.218776,4.128632,-0.131184,0.064792,0.177618
46494,7.955511,-3.862874,3.860839,-0.318667,0.065745,0.211821
46495,8.131746,-4.571292,3.690604,-0.371992,0.064497,0.243735
46496,8.327282,-4.825900,3.740688,-0.307382,0.067148,0.271315
46497,8.379538,-4.591115,3.742096,-0.209920,0.070053,0.306635
46498,8.330590,-4.196605,3.832797,-0.182713,0.059300,0.352851
46499,8.127330,-3.986747,3.665358,-0.204809,0.039620,0.390301
46500,7.992372,-4.104902,3.534463,-0.240645,-0.004472,0.415298
46501,7.776844,-4.326300,3.379139,-0.255470,-0.070670,0.437533
46502,7.564399,-4.442880,3.116698,-0.239083,-0.160286,0.454527
46503,7.441906,-4.623685,2.793435,-0.194334,-0.267337,0.456600
46504,7.257956,-4.727785,2.859480,-0.101230,-0.382243,0.439184
46505,7.283746,-4.856547,3.406645,0.059725,-0.463849,0.403976
46506,7.289289,-4.936579,3.801290,0.240317,-0.499659,0.356364
46507,7.283327,-4.667763,3.855103,0.385243,-0.522343,0.297049
46508,7.242047,-4.401300,3.784834,0.416005,-0.553749,0.235608
46509,7.236631,-4.327141,3.682472,0.329213,-0.586914,0.171551
46510,7.254012,-4.497602,3.577948,0.181713,-0.626860,0.104474
46511,7.222028,-4.707805,3.423478,0.020886,-0.671321,0.022609
46512,7.135111,-4.810831,3.453512,-0.134900,-0.737505,-0.045810
46513,7.128021,-4.967075,3.619922,-0.297158,-0.790338,-0.102715
46514,6.932637,-5.209058,3.715162,-0.441055,-0.841833,-0.152285
46515,6.727346,-5.770289,3.885186,-0.504267,-0.893199,-0.214502
46516,6.741271,-6.259072,3.981778,-0.454573,-0.913258,-0.286260
46517,6.945402,-6.374330,3.916254,-0.358391,-0.932926,-0.353927
46518,7.035120,-6.173750,3.755048,-0.277780,-0.940322,-0.418822
46519,6.963305,-5.808366,3.539648,-0.285476,-0.950528,-0.477401
46520,7.000773,-5.541114,3.455823,-0.400492,-0.959425,-0.528598
46521,7.135552,-5.563335,3.287060,-0.570869,-0.974544,-0.583375
46522,7.224740,-5.744368,3.218921,-0.735766,-0.978664,-0.638675
46523,7.075283,-5.944229,3.119877,-0.857040,-0.984714,-0.688700
46524,6.652665,-6.096230,3.107460,-0.910055,-1.009159,-0.748995
46525,6.244029,-6.275003,3.001028,-0.876261,-1.044156,-0.830066
46526,6.104730,-6.381579,2.836645,-0.773848,-1.098637,-0.933986
46527,6.079000,-6.668960,2.598099,-0.594455,-1.169159,-1.057768
46528,6.227161,-6.749674,2.414403,-0.364482,-1.233227,-1.186867
46529,6.303125,-6.667432,2.333764,-0.135627,-1.293994,-1.323847
46530,6.470521,-6.533190,2.329692,0.093276,-1.343756,-1.465279
46531,6.788725,-6.477327,2.420734,0.305796,-1.382183,-1.598010
46532,7.060111,-6.317551,2.523690,0.505031,-1.389543,-1.721184
46533,7.231949,-5.996594,2.650297,0.649412,-1.377211,-1.811846
46534,7.383068,-5.712260,2.755109,0.737806,-1.359994,-1.877728
46535,7.481909,-5.550019,2.864027,0.784174,-1.339096,-1.923562
46536,7.682344,-5.579863,3.007653,0.816450,-1.317538,-1.949208
46537,8.040880,-5.624433,3.201001,0.858144,-1.276001,-1.966293
46538,8.414196,-5.619668,3.368340,0.912894,-1.220829,-1.972533
46539,8.748365,-5.512853,3.498994,0.966903,-1.149115,-1.975521
46540,9.006316,-5.416113,3.702069,1.004357,-1.066847,-1.975418
46541,9.231213,-5.238629,3.899085,1.023294,-0.964394,-1.971771
46542,9.348223,-4.986426,4.083514,1.005384,-0.851575,-1.963419
46543,9.359164,-4.491591,4.031324,0.940604,-0.746232,-1.956016
46544,9.499337,-3.937673,4.005429,0.818234,-0.632507,-1.952194
46545,9.471518,-3.516649,4.010121,0.666126,-0.537394,-1.944778
46546,9.673936,-3.274805,4.009772,0.472272,-0.463491,-1.931763
46547,9.842038,-3.258584,4.067719,0.272512,-0.378435,-1.911577
46548,9.961831,-3.470376,4.011596,0.072633,-0.292449,-1.870472
46549,9.939322,-3.644634,3.962160,-0.126716,-0.224755,-1.809307
46550,9.952595,-3.712495,3.868896,-0.322278,-0.170880,-1.733823
46551,9.945810,-3.609697,3.741668,-0.534058,-0.122399,-1.641223
46552,9.940108,-3.558139,3.616807,-0.752594,-0.083831,-1.538421
46553,9.956437,-3.586898,3.621956,-0.956414,-0.051999,-1.426476
46554,10.035071,-3.613990,3.649729,-1.109142,-0.015305,-1.314036
46555,10.097991,-3.618930,3.717553,-1.226688,0.004309,-1.189755
46556,10.146577,-3.629284,3.904490,-1.309912,0.042568,-1.066713
46557,10.099080,-3.640519,4.008958,-1.365442,0.089838,-0.936933
46558,10.013383,-3.656477,3.988544,-1.399476,0.133609,-0.810378
46559,9.883718,-3.723274,3.895500,-1.410851,0.179474,-0.682714
46560,9.776271,-3.761154,3.755610,-1.397368,0.217756,-0.558165
46561,9.709320,-3.830625,3.598938,-1.346084,0.249800,-0.444047
46562,9.776236,-3.840596,3.507179,-1.256052,0.282460,-0.348239
46563,9.861010,-3.723395,3.326217,-1.159737,0.313582,-0.254540
46564,9.911109,-3.542614,3.250715,-1.076395,0.343756,-0.174934
46565,10.005514,-3.386706,3.141146,-1.022189,0.385238,-0.104303
46566,10.059178,-3.155869,2.990610,-1.003426,0.432148,-0.033993
46567,9.947111,-2.981465,2.829560,-1.023160,0.481586,0.038101
46568,9.632469,-2.821893,2.699382,-1.073668,0.518237,0.105201
46569,9.353867,-2.816704,2.517215,-1.133439,0.544793,0.171757
46570,9.168114,-2.947497,2.359725,-1.166564,0.550181,0.223450
46571,9.065298,-3.165262,2.300889,-1.150601,0.555547,0.271326
46572,9.002015,-3.300887,2.276404,-1.096818,0.550110,0.311843
46573,9.000350,-3.352731,2.368616,-1.017036,0.549945,0.349748
46574,9.033847,-3.353677,2.375761,-0.932776,0.551254,0.375742
46575,9.054270,-3.270923,2.420378,-0.849542,0.555478,0.395212
46576,9.055298,-3.134812,2.399181,-0.786440,0.560349,0.417983
46577,8.986697,-2.980173,2.347822,-0.754246,0.562874,0.425130
46578,8.882892,-2.900802,2.230549,-0.733243,0.544072,0.432914
46579,8.825026,-2.923601,2.205331,-0.707085,0.525552,0.432019
46580,8.751908,-2.927962,2.152994,-0.655867,0.496802,0.420540
46581,8.750462,-2.949129,2.134742,-0.591539,0.457198,0.406465
46582,8.832503,-2.863703,2.200043,-0.513456,0.417790,0.376346
46583,8.911874,-2.841300,2.202680,-0.447005,0.377630,0.349549
46584,8.928121,-2.830886,2.188121,-0.377397,0.339197,0.318511
46585,9.025569,-2.829777,2.161840,-0.299815,0.297259,0.289818
46586,9.082023,-2.841061,2.173194,-0.228713,0.260536,0.262228
46587,9.150534,-2.840118,2.136717,-0.141393,0.219066,0.242134
46588,9.211285,-2.590655,2.269083,-0.088026,0.168844,0.220319
46589,9.243355,-2.789383,2.207879,-0.022524,0.150577,0.214757
46590,9.246762,-2.787662,2.227149,0.081033,0.107509,0.199287
46591,9.294336,-2.706119,2.295118,0.180761,0.072913,0.190279
46592,9.317161,-2.612839,2.383491,0.261340,0.046959,0.181900
46593,9.283021,-2.575893,2.395712,0.322215,0.018607,0.170476
46594,9.292080,-2.550351,2.465038,0.380528,-0.003986,0.155105
46595,9.397352,-2.525210,2.454038,0.434602,-0.015800,0.145281
46596,9.460975,-2.500384,2.534256,0.483285,-0.027764,0.131669
46597,9.524117,-2.407540,2.497810,0.515565,-0.029410,0.118957
46598,9.522386,-2.264753,2.529653,0.526954,-0.019307,0.111323
46599,9.422944,-2.142153,2.534740,0.507596,-0.014083,0.102550
46600,9.364426,-2.045794,2.544308,0.475576,-0.008189,0.098260
46601,9.341083,-1.979786,2.582369,0.425591,0.003551,0.098441
46602,9.241358,-1.935090,2.649539,0.371724,0.004782,0.095953
46603,9.241703,-1.971085,2.678227,0.328970,0.012818,0.092838
46604,9.292392,-1.977635,2.697454,0.283025,0.022558,0.092896
46605,9.314768,-1.938442,2.715839,0.234795,0.030503,0.087955
46606,9.273908,-1.950591,2.738356,0.185034,0.040936,0.083028
46607,9.277557,-2.001591,2.690846,0.140073,0.046426,0.072388
46608,9.212491,-2.105929,2.671326,0.106690,0.052357,0.060617
46609,9.199555,-2.164866,2.694798,0.093021,0.059351,0.047465
46610,9.185485,-2.237690,2.665563,0.074823,0.053711,0.031567
46611,9.152960,-2.280967,2.685348,0.075344,0.056428,0.011482
46612,9.181501,-2.362535,2.714776,0.072526,0.049569,-0.003003
46613,9.261292,-2.412650,2.734205,0.078062,0.047698,-0.018467
46614,9.344952,-2.422250,2.708646,0.087622,0.048576,-0.032142
46615,9.292863,-2.395025,2.755854,0.087768,0.048673,-0.044565
46616,9.239833,-2.381997,2.750253,0.077566,0.045445,-0.053800
46617,9.148717,-2.378266,2.759211,0.070121,0.044869,-0.060256
46618,9.012746,-2.401610,2.753894,0.059076,0.042193,-0.070666
46619,9.067439,-2.450682,2.740276,0.060326,0.036160,-0.077849
46620,9.071937,-2.528859,2.736032,0.065265,0.029223,-0.090392
46621,9.132120,-2.521889,2.728726,0.069674,0.026491,-0.096952
46622,9.176731,-2.573241,2.761697,0.073336,0.025526,-0.102297
46623,9.176505,-2.525431,2.743825,0.075957,0.020783,-0.108075
46624,9.133729,-2.541145,2.733976,0.074738,0.023696,-0.110185
46625,9.123651,-2.549496,2.732708,0.068587,0.021290,-0.112135
46626,9.119402,-2.555705,2.707164,0.061032,0.012606,-0.106853
46627,9.083446,-2.554372,2.724995,0.063742,0.015221,-0.104064
46628,9.091334,-2.541202,2.704030,0.055558,0.009568,-0.095198
46629,9.107236,-2.562425,2.681205,0.051102,0.012226,-0.088632
46630,9.225589,-2.574762,2.608234,0.040880,0.010116,-0.083076
46631,9.312027,-2.580012,2.578617,0.031724,0.009950,-0.071596
46632,9.403883,-2.584131,2.525015,0.017421,0.008143,-0.058534
46633,9.381145,-2.545864,2.448429,0.003144,0.015568,-0.042430
46634,9.295506,-2.560827,2.376183,-0.008398,0.005410,-0.024148
46635,9.263395,-2.567171,2.367294,-0.012770,-0.004768,-0.009644
46636,9.226161,-2.561832,2.433466,-0.014005,-0.011610,0.005468
46637,9.144657,-2.511535,2.417263,-0.018071,-0.022386,0.015432
46638,9.056241,-2.554847,2.438956,-0.025173,-0.035265,0.027164
46639,9.064022,-2.607110,2.380560,-0.023200,-0.051092,0.030546
46640,9.048510,-2.685168,2.363010,-0.008418,-0.068316,0.037394
46641,9.021029,-2.783764,2.339364,0.027944,-0.089297,0.043885
46642,9.059852,-2.851085,2.384520,0.077912,-0.110426,0.049501
46643,9.153356,-2.833155,2.425758,0.128465,-0.128515,0.057702
46644,9.225293,-2.749978,2.493249,0.173942,-0.142210,0.061249
46645,9.218748,-2.650364,2.568387,0.194889,-0.153062,0.069344
46646,9.184034,-2.645687,2.626823,0.208152,-0.160905,0.072404
46647,9.175559,-2.651164,2.664712,0.214478,-0.167505,0.069231
46648,9.238201,-2.638827,2.694885,0.219652,-0.172979,0.069433
46649,9.249472,-2.604462,2.765586,0.227466,-0.165929,0.067481
46650,9.216027,-2.597369,2.823814,0.227476,-0.168151,0.060655
46651,9.261738,-2.605746,2.873279,0.229044,-0.164693,0.054406
46652,9.256941,-2.570316,2.865669,0.230252,-0.150740,0.047747
46653,9.239073,-2.575564,2.953060,0.231618,-0.143559,0.042855
46654,9.175781,-2.535492,2.959616,0.227656,-0.134239,0.040969
46655,9.152392,-2.468813,3.002704,0.224095,-0.124267,0.036891
46656,9.228665,-2.483736,3.011809,0.219685,-0.113722,0.031623
46657,9.251552,-2.493218,3.010447,0.211495,-0.106440,0.032531
46658,9.258382,-2.435578,3.010993,0.203757,-0.095436,0.028063
46659,9.333985,-2.450659,3.021872,0.188952,-0.084189,0.027430
46660,9.315407,-2.434396,3.015511,0.177754,-0.073982,0.021412
46661,9.296593,-2.418000,3.009966,0.169341,-0.061042,0.018070
46662,9.280319,-2.436874,3.028667,0.157545,-0.050713,0.018743
46663,9.308777,-2.408841,2.960634,0.145335,-0.036134,0.012842
46664,9.309360,-2.406027,2.961091,0.130221,-0.025312,0.014325
46665,9.246038,-2.382700,2.899938,0.103943,-0.015200,0.012427
46666,9.240999,-2.382131,2.925501,0.083035,0.003875,0.004772
46667,9.258614,-2.411307,2.879774,0.063598,0.006378,0.003065
