// Start Time: Unknown
// Update Rate: 100.0Hz
// Filter Profile: human (46.1)
// Firmware Version: 4.3.5
PacketCounter,Acc_X,Acc_Y,Acc_Z,Gyr_X,Gyr_Y,Gyr_Z
07427,9.361321,-2.101022,2.235595,-0.002129,0.045094,0.069706
07428,9.406990,-2.098476,2.175175,-0.000779,0.046969,0.052115
07429,9.337982,-2.052739,2.191116,-0.006272,0.040883,0.038900
07430,9.329251,-2.072454,2.223919,-0.018863,0.038357,0.020748
07431,9.319153,-2.067633,2.248233,-0.033955,0.029196,0.001560
07432,9.363859,-2.058729,2.266234,-0.051578,0.026384,-0.020059
07433,9.487718,-2.064625,2.293792,-0.067596,0.018454,-0.032999
07434,9.497328,-2.068719,2.272189,-0.092802,0.018834,-0.054442
07435,9.509199,-2.094548,2.257853,-0.107953,0.020718,-0.071025
07436,9.446984,-2.086141,2.284311,-0.122188,0.016617,-0.083736
07437,9.381688,-2.139951,2.354609,-0.128652,0.015469,-0.098947
07438,9.316875,-2.192974,2.424182,-0.132578,0.007020,-0.109729
07439,9.283475,-2.200526,2.383471,-0.129402,-0.000234,-0.125754
07440,9.324381,-2.198968,2.425913,-0.138875,-0.004643,-0.145102
07441,9.210131,-2.251368,2.417728,-0.139416,-0.008674,-0.159162
07442,9.148637,-2.276093,2.396711,-0.135438,-0.005162,-0.180885
07443,9.092063,-2.345260,2.390121,-0.129778,-0.015030,-0.202822
07444,9.063849,-2.367344,2.354800,-0.118916,-0.017443,-0.225571
07445,9.069842,-2.348732,2.350360,-0.112434,-0.020326,-0.245024
07446,9.107976,-2.329509,2.332272,-0.117972,-0.019645,-0.263034
07447,9.105578,-2.301429,2.349390,-0.126542,-0.021332,-0.287272
07448,9.183487,-2.349262,2.338868,-0.141372,-0.019238,-0.299665
07449,9.192273,-2.387364,2.295828,-0.158712,-0.022988,-0.315333
07450,9.200140,-2.488298,2.295391,-0.166472,-0.022573,-0.326956
07451,9.210396,-2.524247,2.251332,-0.167092,-0.023697,-0.337702
07452,9.277059,-2.641561,2.251412,-0.147439,-0.035680,-0.345124
07453,9.298271,-2.680565,2.184316,-0.125283,-0.042766,-0.347254
07454,9.307894,-2.714878,2.219910,-0.091971,-0.051012,-0.346514
07455,9.324400,-2.730992,2.226452,-0.065194,-0.062101,-0.341643
07456,9.350996,-2.713177,2.256291,-0.034149,-0.064241,-0.330983
07457,9.405936,-2.672325,2.265809,-0.020821,-0.067151,-0.321091
07458,9.441441,-2.660795,2.273746,-0.023498,-0.073100,-0.309339
07459,9.454620,-2.616960,2.318310,-0.018541,-0.073541,-0.288545
07460,9.488935,-2.647918,2.280979,-0.021731,-0.069435,-0.266308
07461,9.519387,-2.618700,2.282286,-0.029125,-0.060536,-0.240702
07462,9.453963,-2.633118,2.280264,-0.034856,-0.058085,-0.214313
07463,9.480373,-2.689772,2.272811,-0.034725,-0.053117,-0.181321
07464,9.467434,-2.664386,2.310700,-0.039378,-0.053665,-0.157092
07465,9.529823,-2.668244,2.306181,-0.035934,-0.043982,-0.127129
07466,9.541197,-2.665136,2.359817,-0.033976,-0.047619,-0.104732
07467,9.527974,-2.645130,2.318057,-0.035508,-0.034107,-0.076340
07468,9.508157,-2.606537,2.350986,-0.042991,-0.032681,-0.056305
07469,9.450696,-2.628072,2.381413,-0.047273,-0.031917,-0.039319
07470,9.435609,-2.613950,2.340417,-0.044973,-0.029041,-0.024386
07471,9.427352,-2.608483,2.358710,-0.045942,-0.024582,-0.008470
07472,9.374069,-2.616277,2.361414,-0.038654,-0.019255,0.005949
07473,9.357445,-2.566959,2.367249,-0.034830,-0.015790,0.017278
07474,9.353564,-2.546774,2.357915,-0.028778,-0.021324,0.030188
07475,9.391994,-2.557224,2.400495,-0.023162,-0.014758,0.044052
07476,9.374441,-2.549842,2.361808,-0.011195,-0.014791,0.051892
07477,9.373403,-2.516237,2.405601,-0.002008,-0.014815,0.059532
07478,9.416687,-2.510383,2.420528,0.007784,-0.012055,0.067976
07479,9.417290,-2.475052,2.383987,0.012641,-0.013985,0.065448
07480,9.451176,-2.464448,2.421469,0.026313,-0.010029,0.073714
07481,9.434595,-2.522934,2.426506,0.027362,-0.014099,0.073428
07482,9.541783,-2.686761,2.534231,0.038937,-0.019744,0.086660
07483,9.664149,-3.008981,2.712035,0.063042,-0.016499,0.106309
07484,9.839451,-3.469307,2.837976,0.130916,-0.013013,0.153134
07485,10.238301,-4.212420,3.129603,0.228854,0.012085,0.241107
07486,10.792031,-5.282060,3.496569,0.371631,0.055733,0.399388
07487,11.408357,-6.298656,3.825863,0.539313,0.166101,0.625323
07488,11.672903,-7.125638,4.113247,0.724283,0.295285,0.903064
07489,11.812063,-7.469808,3.967906,0.901557,0.401879,1.186118
07490,11.632228,-6.968459,3.951271,1.056636,0.560577,1.451591
07491,11.152564,-6.253443,4.104342,1.138151,0.642276,1.672889
07492,10.723040,-5.921426,4.416244,1.197230,0.714678,1.859938
07493,10.452168,-6.172826,4.663615,1.279469,0.771785,1.998989
07494,10.136922,-6.354628,4.890980,1.422749,0.838942,2.101462
07495,9.738431,-6.256981,5.338609,1.581661,0.914777,2.170011
07496,9.358656,-5.860239,5.625442,1.652145,1.002662,2.223657
07497,8.818399,-5.457925,5.798534,1.608496,1.098991,2.256009
07498,8.436146,-5.311241,5.797795,1.476894,1.178385,2.275188
07499,8.021598,-5.200890,5.695112,1.322588,1.251440,2.263806
07500,7.607331,-5.000271,5.643821,1.149104,1.305263,2.241713
07501,7.174938,-4.781145,5.702012,0.976662,1.337172,2.207307
07502,6.861555,-4.708163,5.699256,0.808353,1.351574,2.166830
07503,6.681931,-4.788793,5.654658,0.658483,1.355620,2.130414
07504,6.521257,-4.918477,5.735402,0.541988,1.352245,2.089606
07505,6.397157,-5.157237,5.680189,0.468484,1.352202,2.044745
07506,6.183329,-5.271603,5.586963,0.427066,1.340385,1.995790
07507,6.044165,-5.270356,5.574971,0.413676,1.320333,1.936896
07508,6.118913,-5.257104,5.395974,0.385929,1.307545,1.868171
07509,6.068434,-5.354047,5.196441,0.366664,1.339372,1.789272
07510,5.703068,-5.585829,5.036971,0.393144,1.324056,1.716355
07511,5.404103,-5.826255,5.094881,0.487629,1.256656,1.627219
07512,5.308857,-5.739289,5.172422,0.586616,1.175042,1.526065
07513,5.313492,-5.264276,5.286108,0.647377,1.123322,1.410561
07514,5.018131,-4.489474,5.274853,0.616633,1.088531,1.281635
07515,4.575703,-3.645642,5.123597,0.458383,1.029732,1.156326
07516,4.194791,-3.188383,4.855474,0.217829,0.961540,1.014243
07517,3.969251,-3.010376,4.611699,-0.057931,0.854789,0.871815
07518,4.009168,-2.897796,4.623345,-0.339288,0.753395,0.729651
07519,4.056453,-3.102381,4.587534,-0.607038,0.672168,0.575363
07520,4.337474,-3.983784,4.463183,-0.799083,0.588241,0.427519
07521,4.777958,-5.514603,4.256463,-0.771911,0.532383,0.268169
07522,5.198471,-6.737652,4.076822,-0.542483,0.462555,0.110921
07523,5.626059,-7.043505,4.022287,-0.153117,0.412633,-0.048684
07524,5.802322,-6.288144,4.116290,0.158995,0.368044,-0.203362
07525,6.136047,-5.223584,4.475055,0.285116,0.309734,-0.318890
07526,6.504479,-4.327967,4.654446,0.197169,0.287224,-0.416115
07527,6.522575,-3.837280,4.590899,-0.003678,0.263070,-0.498680
07528,6.520610,-3.728641,4.558452,-0.237749,0.211905,-0.560807
07529,6.699314,-4.094461,4.251012,-0.444956,0.157954,-0.609938
07530,6.959963,-4.858103,3.974200,-0.524800,0.141698,-0.663712
07531,7.037173,-5.427586,3.941119,-0.467058,0.116448,-0.725759
07532,7.148059,-5.717113,3.791794,-0.311074,0.072984,-0.765007
07533,7.229332,-5.483463,3.898392,-0.130474,0.037621,-0.791784
07534,7.188192,-4.910841,4.043686,-0.022224,0.008745,-0.824705
07535,7.086400,-4.427871,3.804677,0.002716,-0.026005,-0.836682
07536,7.060743,-4.066174,3.788534,-0.036046,-0.080383,-0.840161
07537,7.269869,-4.055113,3.752234,-0.106441,-0.117150,-0.841176
07538,7.426241,-4.335453,3.918915,-0.106248,-0.129398,-0.843045
07539,7.366416,-4.407993,4.085829,-0.087015,-0.147239,-0.821079
07540,7.300764,-4.493918,4.220677,-0.068319,-0.159586,-0.798965
07541,7.191599,-4.783844,4.062177,-0.025074,-0.175282,-0.781228
07542,7.118351,-4.884439,4.094829,0.067269,-0.196713,-0.762728
07543,7.200690,-4.505684,4.244557,0.131196,-0.231466,-0.746920
07544,7.413003,-4.055016,4.429287,0.135922,-0.256256,-0.712375
07545,7.480417,-3.722081,4.534186,0.070819,-0.267337,-0.677474
07546,7.432648,-3.528505,4.240522,-0.012514,-0.252299,-0.652617
07547,7.301312,-3.117817,4.033482,-0.063476,-0.297003,-0.641598
07548,7.498998,-2.764161,4.024698,-0.148010,-0.316935,-0.612799
07549,7.764660,-3.214215,4.282137,-0.248587,-0.326326,-0.565143
07550,8.188627,-4.427486,4.336808,-0.269783,-0.284439,-0.508477
07551,8.001718,-5.605451,4.283906,-0.130936,-0.252842,-0.457930
07552,7.745154,-5.685858,4.318195,0.077650,-0.252169,-0.415612
07553,7.459124,-5.061324,4.625043,0.230652,-0.280857,-0.369207
07554,7.424698,-4.204366,4.974209,0.266799,-0.303951,-0.320611
07555,7.552198,-3.507563,4.994406,0.224285,-0.317961,-0.283053
07556,7.796196,-3.141261,4.778003,0.163316,-0.302854,-0.258426
07557,7.979338,-3.180827,4.571124,0.097048,-0.287802,-0.217153
07558,8.144020,-3.647038,4.487671,0.032255,-0.247355,-0.172470
07559,8.216447,-4.481827,4.471046,0.008179,-0.203790,-0.121624
07560,8.322170,-5.033884,4.550069,0.059884,-0.161229,-0.058266
07561,8.383835,-4.920474,4.811041,0.147743,-0.135191,0.034724
07562,8.509139,-4.361032,5.000528,0.168858,-0.100698,0.152394
07563,8.486826,-4.045584,4.955350,0.129141,-0.063524,0.311578
07564,8.569702,-3.831734,4.703057,0.064151,-0.033253,0.479213
07565,8.687308,-3.225169,5.099789,-0.089866,0.006014,0.674617
07566,9.116795,-3.769939,5.813298,-0.349201,0.090065,0.873212
07567,9.024785,-6.209191,4.087879,-0.183540,0.126595,0.984341
07568,8.916609,-6.266726,3.779124,0.317578,0.131518,1.083566
07569,8.988084,-4.360764,4.142763,0.519110,0.115239,1.219223
07570,9.265377,-3.449773,4.084456,0.382837,0.138956,1.373875
07571,9.396286,-3.494527,4.025650,0.189869,0.169489,1.525913
07572,9.232388,-3.935367,3.839075,0.033895,0.157438,1.683014
07573,9.019996,-4.432724,3.764540,-0.066436,0.102535,1.818718
07574,8.902605,-4.595172,3.810094,-0.122513,0.020575,1.919061
07575,8.800314,-4.750175,3.949897,-0.162708,-0.061937,1.966781
07576,8.664946,-4.998125,3.931627,-0.170856,-0.146509,1.990554
07577,8.461328,-5.055553,3.885453,-0.141391,-0.230481,1.955666
07578,8.431220,-4.880867,4.146795,-0.053077,-0.317492,1.900816
07579,8.388416,-4.613198,4.351375,-0.029497,-0.340757,1.820834
07580,8.064914,-4.646017,4.162337,-0.127735,-0.347693,1.757131
07581,7.451088,-5.095657,3.595029,-0.238662,-0.373654,1.680020
07582,6.806371,-5.278942,3.070681,-0.369965,-0.474141,1.608101
07583,6.559488,-5.535190,2.714094,-0.549451,-0.627058,1.563784
07584,6.470528,-5.963642,2.591364,-0.718647,-0.783885,1.513818
07585,6.286137,-6.213137,2.629684,-0.802278,-0.951462,1.464849
07586,5.852952,-6.386633,2.842561,-0.769422,-1.112456,1.387665
07587,5.417573,-6.603791,3.232111,-0.671461,-1.258724,1.284176
07588,5.484342,-7.188517,3.534003,-0.471562,-1.385860,1.160181
07589,5.810482,-7.706714,3.925924,-0.136004,-1.453596,1.024067
07590,6.060980,-8.176444,4.154138,0.246395,-1.463767,0.881352
07591,5.976686,-8.026709,4.062165,0.594634,-1.439609,0.753583
07592,5.822716,-7.355628,4.266600,0.804917,-1.411987,0.641219
07593,5.606804,-7.018340,4.341664,0.889018,-1.375566,0.540898
07594,5.558096,-6.841864,4.268780,0.858850,-1.333245,0.451337
07595,5.346806,-6.715724,4.181231,0.759641,-1.297508,0.380466
07596,5.207356,-6.604469,4.341496,0.604211,-1.274936,0.323858
07597,5.215628,-6.410877,4.466339,0.388575,-1.246647,0.262181
07598,5.181218,-6.556199,4.673583,0.126566,-1.202870,0.213718
07599,5.162891,-6.979122,4.781845,-0.106752,-1.185465,0.178540
07600,5.213814,-7.331200,4.811100,-0.281620,-1.160396,0.137848
07601,5.180082,-7.432290,4.824183,-0.398388,-1.129308,0.107475
07602,5.099929,-7.509110,4.773682,-0.471789,-1.089614,0.067510
07603,5.045138,-7.705625,4.472058,-0.492079,-1.048822,0.027995
07604,5.124074,-8.015974,4.472344,-0.459422,-1.002447,0.000200
07605,5.427520,-8.726890,4.603780,-0.342680,-0.907688,-0.023775
07606,5.341453,-9.675455,4.887724,-0.126577,-0.833597,-0.044013
07607,5.218131,-10.479935,5.317186,0.242155,-0.792445,-0.051338
07608,5.450229,-10.514401,5.889075,0.630118,-0.726736,-0.048594
07609,5.631067,-9.673238,6.733577,0.956954,-0.597648,-0.045489
07610,5.450812,-8.841905,7.374399,1.103167,-0.400241,-0.025770
07611,5.064958,-8.245804,7.792999,1.153571,-0.194924,-0.001785
07612,4.781097,-8.178760,8.110879,1.132914,0.027285,0.022135
07613,4.566470,-8.405043,8.243804,1.093097,0.229625,0.049450
07614,4.337378,-8.335794,8.332305,1.020577,0.419020,0.070090
07615,3.954876,-8.337793,8.483670,0.902690,0.585504,0.100797
07616,3.603689,-8.105449,8.548716,0.708243,0.728198,0.113548
07617,3.659592,-8.258882,8.305840,0.517661,0.821333,0.216793
07618,3.301781,-8.562143,7.874153,0.375160,0.936799,0.283166
07619,2.996469,-9.014137,7.750207,0.300180,0.983600,0.397740
07620,3.089090,-9.611413,7.846748,0.336150,1.012483,0.553341
07621,3.357820,-9.300178,8.243932,0.423959,1.070774,0.657681
07622,3.704107,-8.714490,8.641358,0.384042,1.144961,0.793956
07623,3.554118,-8.665384,8.873805,0.271623,1.288421,0.933025
07624,3.444049,-9.271062,8.967809,0.174818,1.383503,1.105868
07625,3.500862,-9.949603,8.962049,0.235407,1.475631,1.290843
07626,3.644846,-10.347597,9.000175,0.391827,1.569959,1.466405
07627,3.617390,-10.445953,8.775413,0.579347,1.674276,1.632316
07628,3.259706,-10.022393,8.611950,0.737653,1.774590,1.774353
07629,3.090993,-10.399585,8.783688,0.820997,1.869703,1.955553
07630,3.203921,-10.258994,8.717947,0.888752,1.937519,2.132326
07631,3.076444,-10.217562,9.030193,0.922443,2.084618,2.277286
07632,2.667106,-9.754816,9.219795,0.886157,2.218500,2.363941
07633,2.679582,-10.112797,8.819145,0.846761,2.294460,2.528570
07634,2.295187,-9.437280,8.838908,0.868391,2.399879,2.677328
07635,2.055688,-9.508429,8.936502,0.590859,2.539321,2.799785
07636,1.965818,-11.036228,7.853745,0.642377,2.555506,3.037115
07637,1.348135,-10.411646,7.343211,0.850684,2.591791,3.137723
07638,0.760061,-9.335752,7.113063,1.036298,2.587915,3.263253
07639,0.432598,-8.535934,7.200131,1.090994,2.617394,3.357256
07640,0.246145,-8.420658,6.670194,1.073797,2.635819,3.423941
07641,-0.215618,-8.528129,6.217588,1.130173,2.704434,3.461238
07642,-0.900321,-8.514540,5.600640,1.288388,2.802027,3.437912
07643,-1.841374,-8.743061,5.413759,1.570919,2.831088,3.404090
07644,-2.332772,-8.849643,4.953621,1.948266,2.779529,3.343824
07645,-2.608184,-8.211344,5.031232,2.403598,2.721083,3.247072
07646,-2.444291,-7.875949,5.402502,2.793040,2.669445,3.175469
07647,-2.198971,-7.149603,5.620506,3.028315,2.661259,3.106576
07648,-2.203851,-6.151190,5.927803,3.085553,2.687986,3.057307
07649,-2.186588,-5.724605,6.328442,2.996129,2.741928,3.013958
07650,-2.442562,-5.270064,6.494801,2.853547,2.784544,2.976171
07651,-2.741884,-4.931693,6.791071,2.734036,2.814538,2.931176
07652,-2.931658,-4.705672,6.850933,2.600298,2.821047,2.900233
07653,-2.887244,-4.770200,6.853079,2.519867,2.856143,2.853352
07654,-3.200646,-4.649659,6.673958,2.469532,2.880795,2.796368
07655,-3.610545,-4.376339,6.575259,2.435893,2.882094,2.744872
07656,-3.968053,-3.909615,6.494402,2.357004,2.855010,2.688967
07657,-4.158713,-3.553946,6.409432,2.222436,2.838261,2.635871
07658,-4.374542,-3.301451,6.532926,2.054981,2.796127,2.593932
07659,-4.347132,-3.203881,6.600180,1.883995,2.753287,2.555031
07660,-4.377334,-2.972663,6.608293,1.720780,2.736364,2.516314
07661,-4.602645,-3.015055,6.387584,1.582056,2.715509,2.485882
07662,-4.821344,-2.825565,6.097992,1.508278,2.678494,2.450866
07663,-4.920152,-2.628124,5.792995,1.472870,2.630825,2.415831
07664,-5.051291,-2.066594,5.343306,1.428932,2.568986,2.386800
07665,-5.233192,-1.557547,5.048694,1.368243,2.529317,2.343068
07666,-5.432255,-1.186245,4.870562,1.284183,2.455342,2.316968
07667,-5.455520,-1.072870,4.618157,1.209200,2.399852,2.280563
07668,-5.575502,-0.922608,4.220394,1.171894,2.332581,2.245348
07669,-5.772235,-0.629547,4.047767,1.157188,2.262498,2.204113
07670,-5.819689,-0.174729,3.862332,1.130480,2.162856,2.153232
07671,-5.644348,0.389358,3.685136,1.062493,2.071894,2.094290
07672,-5.760049,0.871178,3.559909,0.950916,1.995120,2.038957
07673,-5.887348,1.123896,3.184946,0.827919,1.903750,1.968110
07674,-5.929558,1.277468,2.778637,0.728757,1.811221,1.881024
07675,-5.902848,1.396590,2.517326,0.661522,1.690627,1.801796
07676,-5.904266,1.569971,2.156205,0.622156,1.595835,1.699975
07677,-6.027626,1.787927,1.900760,0.598372,1.472766,1.599433
07678,-6.054583,2.102737,1.797333,0.588283,1.341054,1.492053
07679,-6.025747,2.454617,1.662369,0.561667,1.216820,1.385538
07680,-6.122696,2.848945,1.732604,0.512266,1.089176,1.267768
07681,-6.275154,3.222485,1.720457,0.438841,0.972413,1.154294
07682,-6.342764,3.473924,1.616972,0.345202,0.848044,1.035326
07683,-6.452247,3.628444,1.506723,0.254931,0.733533,0.909367
07684,-6.512766,3.666355,1.418138,0.168665,0.618394,0.765788
07685,-6.542978,3.418162,1.465059,0.167504,0.510665,0.591778
07686,-6.543501,3.152020,0.921952,0.313321,0.389863,0.376425
07687,-6.692271,3.663018,0.558216,0.519642,0.250028,0.150832
07688,-6.805969,4.762037,0.474265,0.585487,0.078027,-0.052231
07689,-6.898597,5.935161,0.675967,0.393579,-0.077262,-0.227672
07690,-6.994222,6.177558,0.820289,0.002945,-0.232040,-0.377339
07691,-6.733745,5.544008,1.070505,-0.392357,-0.361611,-0.524168
07692,-6.694563,4.636642,1.212586,-0.678014,-0.465543,-0.658944
07693,-6.809870,3.830897,1.619693,-0.862101,-0.563165,-0.782439
07694,-6.894176,3.068928,1.919235,-0.927149,-0.635692,-0.917429
07695,-6.959633,2.563553,2.240562,-0.896182,-0.693386,-1.059595
07696,-6.907474,2.388648,2.461740,-0.840497,-0.752693,-1.188633
07697,-6.882454,2.431090,2.496118,-0.797620,-0.796471,-1.316802
07698,-6.981191,2.454371,2.461250,-0.789179,-0.839774,-1.436021
07699,-7.016648,2.498452,2.323023,-0.838289,-0.918048,-1.543321
07700,-6.998508,2.405040,2.336002,-0.903063,-0.983954,-1.644505
07701,-7.145676,2.188238,2.521784,-1.014105,-1.054710,-1.735162
07702,-6.972832,1.864615,2.605370,-1.135665,-1.153825,-1.816202
07703,-6.655834,1.446440,2.711674,-1.244046,-1.244731,-1.888015
07704,-6.425825,1.114576,2.972095,-1.325133,-1.316963,-1.970434
07705,-6.415069,0.816132,3.317974,-1.385447,-1.374464,-2.051063
07706,-6.447015,0.437646,3.615042,-1.412672,-1.413486,-2.123994
07707,-6.800156,0.039452,3.866573,-1.428344,-1.426249,-2.199596
07708,-6.981100,-0.343991,3.842153,-1.444835,-1.479662,-2.262717
07709,-6.895356,-0.430688,3.963328,-1.438951,-1.538590,-2.314330
07710,-6.830852,-0.471425,4.135420,-1.473771,-1.593752,-2.350993
07711,-6.598821,-0.762345,4.294859,-1.541883,-1.656367,-2.384509
07712,-6.235815,-1.199049,4.463079,-1.614374,-1.727545,-2.418077
07713,-5.932173,-1.616867,4.537905,-1.694408,-1.785076,-2.442504
07714,-5.964071,-1.971871,4.722817,-1.771329,-1.801506,-2.494452
07715,-6.070067,-2.565454,4.962874,-1.805496,-1.798222,-2.569527
07716,-6.143805,-3.291073,5.185697,-1.771332,-1.783337,-2.641961
07717,-6.070806,-3.866238,5.329526,-1.677239,-1.773213,-2.721765
07718,-5.811487,-4.229397,5.383679,-1.574002,-1.766568,-2.805330
07719,-5.534651,-4.523996,5.423135,-1.484819,-1.752714,-2.867402
07720,-5.303091,-4.829590,5.310503,-1.415135,-1.735587,-2.925433
07721,-5.018283,-5.225103,5.304283,-1.333935,-1.724922,-2.983030
07722,-4.728752,-5.689961,5.499462,-1.231009,-1.709946,-3.030460
07723,-4.356669,-6.235567,5.826656,-1.118678,-1.683728,-3.074541
07724,-4.125880,-6.602945,6.118571,-0.997170,-1.647544,-3.115779
07725,-4.041640,-6.743023,6.424156,-0.910634,-1.609129,-3.152345
07726,-4.072496,-6.631268,6.563148,-0.900858,-1.580758,-3.172294
07727,-4.156212,-6.460971,6.489337,-0.964285,-1.560624,-3.192136
07728,-4.152876,-6.573112,6.458953,-1.065973,-1.548739,-3.211397
07729,-4.073813,-7.076499,6.471687,-1.128093,-1.542471,-3.226884
07730,-3.988449,-7.544183,6.499174,-1.152248,-1.545492,-3.232842
07731,-3.961237,-7.768066,6.728781,-1.129690,-1.556832,-3.236285
07732,-3.922206,-8.167192,6.946499,-1.085048,-1.564847,-3.227316
07733,-3.834309,-8.494084,7.131562,-1.006621,-1.570298,-3.201966
07734,-3.778623,-8.730132,7.358600,-0.903107,-1.581380,-3.156847
07735,-3.769331,-8.856969,7.560472,-0.778489,-1.586429,-3.092003
07736,-3.878203,-8.847231,7.653146,-0.653209,-1.593293,-3.018776
07737,-4.046973,-8.515726,7.673484,-0.556112,-1.621438,-2.930172
07738,-4.019658,-8.438011,7.833881,-0.492349,-1.644517,-2.821592
07739,-3.810746,-8.659021,7.902968,-0.442827,-1.657231,-2.677366
07740,-3.662027,-8.826251,7.990965,-0.376075,-1.663895,-2.517274
07741,-3.587900,-8.864937,8.160136,-0.302216,-1.670712,-2.353679
07742,-3.501753,-9.048120,8.381605,-0.224480,-1.658836,-2.184997
07743,-3.328448,-8.920104,8.473796,-0.136667,-1.643349,-2.011972
07744,-3.321324,-8.475713,8.467388,-0.066464,-1.607715,-1.854674
07745,-3.266138,-7.997486,8.768561,-0.073092,-1.552122,-1.700244
07746,-3.084664,-8.036612,8.607629,-0.078258,-1.511263,-1.523926
07747,-3.107438,-7.611372,8.820246,-0.038265,-1.408443,-1.411724
07748,-2.957550,-7.510828,9.093875,-0.074971,-1.313454,-1.275966
07749,-2.701889,-7.795805,8.959664,-0.148615,-1.176284,-1.137857
07750,-2.840703,-7.771010,8.819484,-0.146984,-1.061636,-1.026227
07751,-2.933364,-7.849926,8.668642,-0.136947,-0.963803,-0.908098
07752,-2.870329,-7.585025,8.410483,-0.101640,-0.857991,-0.840495
07753,-2.903742,-7.587045,8.316062,-0.058311,-0.745525,-0.772307
07754,-2.677887,-7.721979,8.420515,0.016558,-0.673232,-0.706366
07755,-2.182258,-7.919845,8.252290,0.096750,-0.560254,-0.648243
07756,-2.186562,-7.948916,8.050370,0.188879,-0.458103,-0.605135
07757,-2.127715,-7.802202,8.051362,0.222512,-0.399281,-0.565875
07758,-1.812576,-7.711862,7.757024,0.224122,-0.345614,-0.552306
07759,-1.490998,-7.664446,7.283797,0.244515,-0.286091,-0.566623
07760,-1.338722,-7.458048,6.895313,0.356749,-0.222660,-0.604644
07761,-1.029226,-7.233708,7.015856,0.467389,-0.194715,-0.652669
07762,-0.511163,-7.312878,6.956640,0.557070,-0.148958,-0.690056
07763,-0.398337,-7.447290,6.754091,0.644790,-0.105827,-0.741676
07764,-0.473170,-7.372877,6.723751,0.711097,-0.097850,-0.795957
07765,-0.387716,-7.257875,6.770984,0.706541,-0.112666,-0.842286
07766,-0.087076,-7.101845,6.948606,0.632413,-0.123915,-0.895737
07767,0.135580,-6.751258,7.118973,0.487845,-0.137402,-0.939040
07768,0.400743,-6.222254,7.208849,0.312359,-0.126289,-0.997977
07769,0.555302,-5.984255,6.875799,0.143759,-0.115238,-1.055147
07770,0.604676,-6.044111,6.592703,0.044873,-0.119133,-1.112323
07771,0.921662,-6.482892,6.574174,0.011067,-0.145609,-1.138857
07772,1.173751,-7.104385,6.319872,0.100584,-0.179521,-1.180539
07773,1.342586,-7.234428,6.395769,0.208781,-0.244302,-1.216718
07774,1.619523,-6.950743,6.728713,0.186626,-0.313574,-1.218617
07775,2.127867,-6.705806,7.079144,0.017173,-0.375221,-1.205411
07776,2.617521,-6.718034,7.070733,-0.184862,-0.399030,-1.208303
07777,2.835852,-7.068462,6.782782,-0.254176,-0.404326,-1.265719
07778,2.839143,-7.275450,6.375218,-0.168296,-0.444611,-1.343342
07779,2.991683,-6.819839,6.320819,-0.035786,-0.517882,-1.435544
07780,3.694769,-6.281078,6.530766,-0.040056,-0.577310,-1.478369
07781,4.372893,-6.337147,6.584154,-0.143181,-0.587463,-1.497963
07782,4.702432,-6.682916,6.403226,-0.288252,-0.590795,-1.496465
07783,4.854263,-6.750091,6.254227,-0.442887,-0.621224,-1.499093
07784,5.407907,-6.902571,6.275336,-0.616316,-0.656547,-1.498194
07785,6.016041,-7.210377,6.094583,-0.717383,-0.637221,-1.518292
07786,6.441154,-7.512693,6.125318,-0.696445,-0.602029,-1.557254
07787,6.645213,-7.911240,5.770667,-0.517755,-0.538425,-1.609237
07788,6.529927,-7.642099,5.585177,-0.275575,-0.505046,-1.646517
07789,6.375752,-6.928288,5.393852,-0.121147,-0.492811,-1.655487
07790,6.303394,-6.062834,5.338119,-0.120208,-0.513125,-1.622744
07791,6.679148,-5.521635,5.543734,-0.245617,-0.536119,-1.569195
07792,7.082761,-5.513821,5.702557,-0.425154,-0.526634,-1.521795
07793,7.448903,-5.812653,5.794007,-0.573740,-0.490249,-1.486624
07794,7.787509,-6.210973,5.580067,-0.642037,-0.440363,-1.466076
07795,7.780274,-6.348897,5.238795,-0.605602,-0.388907,-1.466963
07796,7.688137,-6.007305,5.027938,-0.567217,-0.352825,-1.460573
07797,7.517157,-5.548878,4.784189,-0.571315,-0.334093,-1.454881
07798,7.374390,-5.122505,4.486387,-0.637367,-0.338277,-1.426759
07799,7.311234,-4.864831,4.424812,-0.729527,-0.325721,-1.402599
07800,7.469317,-5.189181,4.600283,-0.802292,-0.329026,-1.361752
07801,7.891543,-5.519732,4.684570,-0.807937,-0.313997,-1.323004
07802,8.198762,-5.383438,4.911384,-0.791062,-0.272063,-1.281119
07803,8.186542,-4.993425,4.880604,-0.897226,-0.207860,-1.205909
07804,7.767019,-5.045001,4.616373,-1.053804,-0.156665,-1.140854
07805,7.529765,-5.223421,4.444220,-1.169485,-0.141090,-1.077190
07806,7.403033,-5.132987,4.306305,-1.235747,-0.157937,-1.015873
07807,7.439907,-4.718139,4.348317,-1.302459,-0.191544,-0.948615
07808,7.766057,-4.682070,4.526454,-1.377426,-0.211252,-0.865065
07809,8.205203,-5.270663,4.604512,-1.387590,-0.168879,-0.782120
07810,8.194373,-6.061733,4.572142,-1.279261,-0.103522,-0.703584
07811,7.636597,-6.258012,4.388708,-1.117801,-0.061628,-0.630134
07812,7.334254,-6.130099,4.191929,-0.959995,-0.077212,-0.557202
07813,7.424104,-6.044711,4.119802,-0.805968,-0.096384,-0.482469
07814,7.574478,-6.031031,4.075367,-0.625707,-0.100134,-0.420256
07815,7.444327,-6.023946,4.002955,-0.392685,-0.096775,-0.380027
07816,7.446324,-5.746204,4.206299,-0.155557,-0.096254,-0.354104
07817,7.684674,-4.666491,4.413432,-0.023399,-0.087480,-0.329038
07818,8.032186,-4.128297,5.000653,-0.273680,-0.020310,-0.186199
07819,7.563490,-5.818350,4.973374,-0.552194,0.079149,-0.118163
07820,7.234834,-6.813133,4.232275,-0.409470,0.079582,-0.125512
07821,7.229118,-5.993332,4.273733,-0.147442,0.047075,-0.119311
07822,7.315660,-5.154104,4.410702,-0.059357,0.036882,-0.080977
07823,7.484797,-5.246178,4.279533,-0.057799,0.015668,-0.066130
07824,7.747354,-6.092080,3.954448,0.051183,0.009403,-0.025519
07825,7.943908,-6.396772,3.866153,0.272856,0.000685,0.007059
07826,8.082118,-5.559843,4.066445,0.413873,-0.006737,0.068391
07827,8.624369,-4.954063,4.571149,0.362518,0.021820,0.149073
07828,8.844461,-5.075667,4.575151,0.207394,0.077064,0.257600
07829,8.562102,-5.330030,4.264318,0.119879,0.117509,0.375365
07830,8.155602,-4.780599,4.402442,0.045646,0.127951,0.482713
07831,8.024208,-4.367589,4.458595,-0.074406,0.123236,0.584136
07832,8.079458,-4.438742,4.337179,-0.173968,0.120310,0.676274
07833,8.191117,-4.735346,4.111419,-0.208006,0.126187,0.757868
07834,8.399200,-5.044057,3.825942,-0.195026,0.137847,0.828376
07835,8.503105,-5.236575,3.544777,-0.122382,0.155650,0.894696
07836,8.580708,-5.013649,3.472196,-0.055416,0.170317,0.954101
07837,8.548732,-4.794496,3.428775,-0.022356,0.165901,1.016165
07838,8.585876,-4.705682,3.336790,-0.016541,0.144396,1.066778
07839,8.516666,-4.750636,3.091132,-0.012715,0.107799,1.107789
07840,8.385664,-4.813544,2.876020,-0.011646,0.040009,1.134998
07841,8.410833,-4.793147,2.731080,-0.017466,-0.031134,1.161385
07842,8.323589,-4.688580,2.682954,-0.046492,-0.101897,1.175686
07843,8.049618,-4.603912,2.495913,-0.117109,-0.186513,1.175657
07844,7.845051,-4.794054,2.342937,-0.159404,-0.278521,1.151085
07845,7.690681,-5.088155,2.401653,-0.143414,-0.355760,1.099409
07846,7.619392,-5.102458,2.560841,-0.077162,-0.427340,1.022425
07847,7.495381,-4.873462,2.703185,-0.024495,-0.487770,0.930808
07848,7.114673,-4.856968,2.836997,-0.011264,-0.543537,0.828347
07849,6.735208,-4.984736,2.812998,-0.001876,-0.620579,0.705144
07850,6.372101,-5.093794,2.822901,0.034098,-0.684591,0.569285
07851,5.899034,-5.160371,2.884083,0.080649,-0.771840,0.428612
07852,5.616953,-5.232616,2.861494,0.117633,-0.863848,0.279740
07853,5.370697,-5.419639,2.867755,0.171230,-0.946831,0.123525
07854,5.186326,-5.681072,2.892245,0.262018,-1.025769,-0.051136
07855,5.253842,-5.759442,2.802904,0.373667,-1.103371,-0.225834
07856,5.312536,-5.727719,2.708060,0.464461,-1.168789,-0.395746
07857,5.277215,-5.621639,2.621120,0.499459,-1.243735,-0.553066
07858,5.342493,-5.622323,2.608289,0.501519,-1.320938,-0.707869
07859,5.350815,-5.811488,2.594125,0.511739,-1.377097,-0.856558
07860,5.184131,-5.936549,2.685631,0.560302,-1.425645,-0.994226
07861,4.864057,-5.854202,2.989000,0.603341,-1.463961,-1.124809
07862,4.696002,-5.643605,3.066686,0.637432,-1.506189,-1.264699
07863,4.711241,-5.657840,3.022347,0.681476,-1.549558,-1.400636
07864,4.980484,-5.889940,3.056208,0.777005,-1.596954,-1.558410
07865,5.426459,-5.958698,3.178641,0.936110,-1.624686,-1.716187
07866,5.883382,-5.842424,3.379711,1.073094,-1.614434,-1.864276
07867,6.233545,-5.730442,3.586271,1.158523,-1.586178,-1.993731
07868,6.591401,-5.595519,3.669394,1.193304,-1.544219,-2.096798
07869,6.901404,-5.423227,3.747991,1.164440,-1.480399,-2.172002
07870,7.181207,-5.155630,3.847253,1.067567,-1.411727,-2.221024
07871,7.534879,-4.893379,4.000785,0.879224,-1.337246,-2.243881
07872,7.823740,-4.788477,4.074718,0.638882,-1.258960,-2.260826
07873,8.050774,-4.781835,4.089605,0.369660,-1.183310,-2.278882
07874,8.236308,-4.740574,3.996221,0.116119,-1.112740,-2.296457
07875,8.281437,-4.673965,4.007331,-0.135403,-1.054369,-2.322680
07876,8.400936,-4.515880,4.005436,-0.387340,-1.002807,-2.350044
07877,8.494732,-4.429344,4.175190,-0.637575,-0.952737,-2.385482
07878,8.756251,-4.328717,4.294872,-0.873062,-0.894256,-2.429528
07879,8.994923,-4.300648,4.526726,-1.069284,-0.827178,-2.482409
07880,9.239893,-4.208908,4.719810,-1.229623,-0.739620,-2.530616
07881,9.551812,-4.146277,5.066015,-1.346214,-0.644506,-2.581829
07882,9.877020,-4.048155,5.259759,-1.435740,-0.532577,-2.637625
07883,10.146688,-3.741541,5.209279,-1.552625,-0.402724,-2.687252
07884,10.254963,-3.263422,4.797467,-1.725465,-0.299263,-2.717463
07885,10.346511,-2.723149,4.217028,-1.991188,-0.228795,-2.718349
07886,10.454892,-2.409265,3.448329,-2.335917,-0.190742,-2.690708
07887,10.694218,-2.494842,2.896982,-2.661626,-0.180410,-2.639099
07888,11.028883,-3.099047,2.536476,-2.843096,-0.163154,-2.560642
07889,11.405773,-3.957874,2.495993,-2.826998,-0.150191,-2.452450
07890,11.761790,-4.803181,2.674501,-2.612108,-0.126979,-2.291548
07891,11.996054,-5.508442,2.869582,-2.218904,-0.090470,-2.081979
07892,12.072789,-5.843050,3.046002,-1.713811,-0.035320,-1.845096
07893,12.006574,-5.720121,3.243263,-1.186600,0.015537,-1.577225
07894,11.918664,-5.380759,3.505583,-0.706091,0.060335,-1.282937
07895,11.860465,-5.098783,3.456215,-0.277175,0.100332,-0.994151
07896,11.707423,-4.636743,3.389110,0.071701,0.166388,-0.716240
07897,11.445925,-4.029742,3.294052,0.313193,0.228018,-0.451614
07898,11.131289,-3.372732,3.134688,0.418340,0.281961,-0.216459
07899,10.781688,-2.833154,3.079783,0.385081,0.342986,-0.017873
07900,10.545653,-2.436043,3.003377,0.275387,0.398336,0.148370
07901,10.307015,-2.197069,3.017675,0.101387,0.453406,0.294563
07902,10.049495,-2.042212,3.003175,-0.108429,0.502150,0.412152
07903,9.850029,-2.018443,2.968990,-0.321971,0.532908,0.513022
07904,9.749985,-2.207533,2.833219,-0.497928,0.556214,0.586858
07905,9.620317,-2.378629,2.732953,-0.619080,0.576012,0.650239
07906,9.455714,-2.480480,2.768899,-0.715491,0.591015,0.691864
07907,9.237729,-2.590207,2.858627,-0.789825,0.593080,0.728781
07908,9.072925,-2.743131,2.917807,-0.851410,0.589269,0.753942
07909,9.013505,-2.923090,2.942556,-0.898998,0.583970,0.767951
07910,9.059475,-3.141117,2.880933,-0.914349,0.577149,0.775007
07911,9.120786,-3.373223,2.852468,-0.889250,0.567093,0.782039
07912,9.285261,-3.587245,2.763925,-0.815556,0.554577,0.796354
07913,9.504232,-3.587744,2.639864,-0.714471,0.554323,0.800961
07914,9.530806,-3.524380,2.587689,-0.599128,0.565359,0.811848
07915,9.392411,-3.373898,2.536189,-0.490621,0.570965,0.824184
07916,9.281143,-3.229849,2.391123,-0.385436,0.555289,0.833592
07917,9.248425,-3.008811,2.282416,-0.299780,0.532393,0.846489
07918,9.280730,-2.852487,2.154238,-0.230863,0.507464,0.853254
07919,9.323147,-2.719410,2.030617,-0.180079,0.480409,0.861902
07920,9.366216,-2.624682,1.989524,-0.137735,0.443993,0.870933
07921,9.465791,-2.574881,1.922698,-0.092759,0.407166,0.876332
07922,9.523802,-2.529427,1.886877,-0.058766,0.383448,0.879588
07923,9.433381,-2.451162,1.905226,-0.021009,0.365664,0.879239
07924,9.274404,-2.408416,1.913054,0.007542,0.336993,0.875806
07925,9.157655,-2.406545,1.915448,0.041009,0.304400,0.870150
07926,9.093318,-2.369774,1.912422,0.071074,0.267005,0.856779
07927,9.067513,-2.351507,1.900524,0.098599,0.233181,0.841732
07928,9.026313,-2.296052,1.957223,0.125477,0.199859,0.808867
07929,8.981276,-2.267339,1.982547,0.151967,0.169094,0.786388
07930,8.952709,-2.276499,2.045672,0.168540,0.132935,0.749430
07931,8.941924,-2.244490,2.167410,0.195399,0.100098,0.706774
07932,8.908077,-2.250822,2.192944,0.216046,0.076226,0.664500
07933,8.816919,-2.224294,2.264074,0.232512,0.048211,0.617514
07934,8.777912,-2.226576,2.252639,0.247077,0.022067,0.563226
07935,8.703289,-2.190834,2.298270,0.270338,-0.002815,0.508954
07936,8.646374,-2.199597,2.329193,0.284878,-0.032131,0.446602
07937,8.670435,-2.242272,2.380179,0.308285,-0.062214,0.378201
07938,8.660430,-2.230847,2.430069,0.341741,-0.090580,0.316314
07939,8.719299,-2.250503,2.521868,0.365732,-0.109118,0.250932
07940,8.748192,-2.249661,2.563899,0.398193,-0.131816,0.185284
07941,8.748657,-2.290069,2.623823,0.429767,-0.151378,0.126602
07942,8.782838,-2.300264,2.668662,0.462948,-0.167386,0.068387
07943,8.753467,-2.290700,2.674218,0.499359,-0.181127,0.011277
07944,8.803029,-2.292157,2.696855,0.532118,-0.198797,-0.045355
07945,8.862683,-2.256642,2.745811,0.556468,-0.210099,-0.091030
07946,8.900527,-2.207731,2.836208,0.587308,-0.217617,-0.132451
07947,8.889860,-2.216358,2.882732,0.598928,-0.222506,-0.176536
07948,8.956566,-2.212840,2.940961,0.617992,-0.233453,-0.214186
07949,9.047738,-2.224151,3.015204,0.624064,-0.239199,-0.252691
07950,9.136897,-2.183602,3.077789,0.627646,-0.232258,-0.281440
07951,9.097977,-2.175125,3.135036,0.623856,-0.225109,-0.309775
07952,9.100371,-2.121992,3.149358,0.610911,-0.215254,-0.330283
07953,9.126333,-2.086213,3.180406,0.589010,-0.212974,-0.352384
07954,9.164936,-2.068146,3.137792,0.562630,-0.198027,-0.367965
07955,9.292824,-2.062590,3.202491,0.522896,-0.199425,-0.385410
07956,9.408760,-2.042022,3.228537,0.479296,-0.185349,-0.395458
07957,9.479157,-2.007498,3.227592,0.433094,-0.164199,-0.410071
07958,9.453116,-1.996950,3.266600,0.372465,-0.143970,-0.418773
07959,9.362285,-2.003797,3.275825,0.310799,-0.125718,-0.424709
07960,9.415125,-2.024360,3.280496,0.244159,-0.108226,-0.421870
07961,9.380832,-2.053531,3.297151,0.177642,-0.094829,-0.420535
07962,9.351900,-2.044322,3.279165,0.118820,-0.073411,-0.409124
07963,9.342281,-2.112875,3.262081,0.056226,-0.056414,-0.401396
07964,9.315323,-2.132871,3.252327,0.009156,-0.040760,-0.391252
07965,9.341251,-2.229052,3.232340,-0.026827,-0.026955,-0.375471
07966,9.382226,-2.275085,3.208833,-0.056195,-0.010236,-0.363600
07967,9.380009,-2.335199,3.166179,-0.079516,0.008278,-0.348174
07968,9.380573,-2.340399,3.141842,-0.101826,0.031308,-0.329106
07969,9.362473,-2.376988,3.115608,-0.115608,0.042618,-0.316580
07970,9.322542,-2.422051,3.080100,-0.132291,0.059710,-0.294275
07971,9.309701,-2.429136,3.079688,-0.149424,0.071634,-0.278769
07972,9.235992,-2.480608,3.056512,-0.154352,0.083110,-0.257945
07973,9.206038,-2.536969,3.001746,-0.161945,0.090374,-0.239230
07974,9.191492,-2.550377,3.002988,-0.162886,0.098057,-0.217983
07975,9.174489,-2.557784,2.945312,-0.163102,0.100072,-0.199604
07976,9.189819,-2.564492,2.877138,-0.164569,0.106832,-0.183305
07977,9.090968,-2.552306,2.856175,-0.164978,0.115544,-0.156833
07978,8.985742,-2.576380,2.810855,-0.168559,0.119056,-0.137586
07979,9.028612,-2.628118,2.766998,-0.166623,0.107429,-0.123854
07980,9.019219,-2.632945,2.741004,-0.162357,0.109312,-0.106342
07981,9.017278,-2.620019,2.687273,-0.157296,0.104677,-0.089569
07982,9.049499,-2.614092,2.681877,-0.154455,0.100244,-0.078566
07983,9.068308,-2.596449,2.638127,-0.155001,0.097236,-0.066825
07984,9.058053,-2.605736,2.611193,-0.152036,0.092778,-0.049235
07985,9.101510,-2.606755,2.583899,-0.157246,0.088322,-0.045233
07986,9.123969,-2.615157,2.545278,-0.154933,0.076014,-0.028713
07987,9.143677,-2.610635,2.558431,-0.151798,0.067396,-0.012929
07988,9.154141,-2.617543,2.539159,-0.148391,0.056412,-0.003068
07989,9.197364,-2.688499,2.549065,-0.137314,0.048795,0.011116
07990,9.187934,-2.646967,2.536720,-0.119984,0.034803,0.025100
07991,9.236185,-2.686249,2.570453,-0.102068,0.021889,0.037953
07992,9.280386,-2.637364,2.557491,-0.083997,0.016559,0.057496
07993,9.307378,-2.619408,2.539670,-0.067965,0.000410,0.073583
07994,9.269839,-2.551583,2.561105,-0.061666,-0.001254,0.092609
07995,9.293724,-2.522705,2.595085,-0.052744,-0.014750,0.109585
07996,9.292748,-2.478392,2.611143,-0.048834,-0.025711,0.126697
07997,9.282155,-2.511655,2.634509,-0.045140,-0.033326,0.141325
07998,9.257307,-2.462667,2.691552,-0.038378,-0.036612,0.158954
07999,9.263620,-2.468737,2.718611,-0.029252,-0.046580,0.167768
08000,9.245267,-2.458197,2.728138,-0.017016,-0.055508,0.175402
08001,9.265448,-2.412390,2.752561,-0.008670,-0.058117,0.182903
08002,9.241207,-2.365399,2.808437,0.003038,-0.060358,0.185397
