// Start Time: Unknown
// Update Rate: 100.0Hz
// Filter Profile: human (46.1)
// Firmware Version: 4.3.5
PacketCounter,Acc_X,Acc_Y,Acc_Z,Gyr_X,Gyr_Y,Gyr_Z
58053,9.430759,-2.154993,-2.070368,-0.010985,0.007007,-0.010213
58054,9.403551,-2.129319,-2.090319,-0.001161,0.007558,-0.008701
58055,9.395654,-2.187780,-2.091410,0.010550,0.008400,-0.009049
58056,9.401831,-2.167417,-2.103485,0.027736,0.004865,-0.012389
58057,9.389685,-2.134690,-2.105063,0.040388,0.004294,-0.017429
58058,9.431751,-2.079643,-2.094401,0.049847,0.004378,-0.018057
58059,9.434646,-2.039561,-2.077885,0.048761,0.006090,-0.016959
58060,9.392563,-2.034265,-2.042362,0.049691,0.007794,-0.014117
58061,9.399776,-2.073414,-2.096911,0.045783,0.007511,-0.013998
58062,9.393442,-2.033534,-2.039047,0.049094,0.006556,-0.014795
58063,9.388094,-2.040575,-2.096468,0.038775,0.008946,-0.014531
58064,9.378356,-1.968649,-2.082688,0.038048,0.011130,-0.011292
58065,9.388012,-1.980401,-2.050112,0.022674,0.010763,-0.012299
58066,9.407939,-2.063252,-2.029735,0.013664,0.012202,-0.014590
58067,9.393458,-2.069717,-2.046253,0.005418,0.010108,-0.011452
58068,9.427316,-2.073640,-2.037443,0.007962,0.015819,-0.010154
58069,9.367910,-2.114958,-2.034796,0.008235,0.012105,-0.010473
58070,9.391503,-2.035484,-2.086122,0.011409,0.014575,-0.007348
58071,9.436902,-2.000263,-2.103530,0.008814,0.013341,-0.009783
58072,9.449983,-2.031605,-2.099204,0.000293,0.014960,-0.006330
58073,9.417061,-2.026229,-2.105258,-0.001367,0.015436,-0.005930
58074,9.420894,-2.057586,-2.059607,0.000871,0.016197,-0.005640
58075,9.385681,-2.091774,-2.080344,0.008311,0.016292,-0.008002
58076,9.401148,-2.083566,-2.060917,0.017910,0.012960,-0.012538
58077,9.380980,-2.109994,-2.063745,0.020949,0.015722,-0.013014
58078,9.389624,-2.049922,-2.060425,0.023963,0.009818,-0.014816
58079,9.402808,-2.081034,-2.055892,0.020365,0.014484,-0.013700
58080,9.372331,-2.035743,-2.046862,0.014452,0.014200,-0.015340
58081,9.409795,-2.059151,-2.065795,0.005577,0.015342,-0.014040
58082,9.383891,-2.104958,-2.055638,0.005352,0.014579,-0.012583
58083,9.378697,-2.123518,-2.040917,0.008893,0.014390,-0.014833
58084,9.371349,-2.169690,-2.113455,0.020916,0.007059,-0.014325
58085,9.386816,-2.161178,-2.094204,0.032189,0.011919,-0.017922
58086,9.393205,-2.140575,-2.105611,0.040833,0.010016,-0.017755
58087,9.386643,-2.100224,-2.047900,0.046792,0.005827,-0.014964
58088,9.396376,-2.100113,-2.087547,0.054349,0.005639,-0.013708
58089,9.398982,-2.060270,-2.071339,0.055926,0.000972,-0.016556
58090,9.429129,-2.044673,-2.034631,0.048485,0.000873,-0.014199
58091,9.416778,-2.012377,-2.036438,0.043221,0.006013,-0.012698
58092,9.396467,-2.039360,-2.039606,0.026921,0.007053,-0.009062
58093,9.415286,-2.051110,-2.048704,0.025636,0.004856,-0.014036
58094,9.406390,-2.050076,-2.006230,0.022611,0.010760,-0.012249
58095,9.456491,-2.105849,-2.022146,0.021457,0.008281,-0.013621
58096,9.412313,-2.128055,-2.073922,0.027295,0.013047,-0.013117
58097,9.433532,-2.100040,-2.067566,0.034719,0.013145,-0.015458
58098,9.406303,-2.086634,-2.014239,0.029167,0.013330,-0.014963
58099,9.397759,-2.073892,-2.043394,0.031396,0.014094,-0.014666
58100,9.394718,-2.053195,-2.013597,0.028938,0.012570,-0.013500
58101,9.424985,-2.037009,-1.976465,0.020582,0.010750,-0.013988
58102,9.401518,-2.031846,-2.023767,0.016406,0.014174,-0.013582
58103,9.414871,-2.062702,-2.018828,0.013534,0.016640,-0.015712
58104,9.415505,-2.061529,-2.017069,0.007765,0.016066,-0.013765
58105,9.449450,-2.065043,-2.007782,0.002570,0.016732,-0.011132
58106,9.416683,-2.059404,-2.013736,-0.002181,0.018914,-0.011415
58107,9.420953,-2.078292,-2.039901,-0.002182,0.018914,-0.011414
58108,9.395228,-2.124122,-2.029350,-0.006072,0.018622,-0.011317
58109,9.401605,-2.103403,-2.040896,0.008906,0.018549,-0.012383
58110,9.402264,-2.102320,-2.038976,0.003581,0.019489,-0.013354
58111,9.421413,-2.113551,-2.047261,0.004793,0.017498,-0.010829
58112,9.388624,-2.108140,-2.053234,0.006227,0.016266,-0.009762
58113,9.396165,-2.158960,-2.035089,0.012635,0.013612,-0.009865
58114,9.396636,-2.158394,-2.033510,0.012984,0.014094,-0.007720
58115,9.372811,-2.165284,-2.008483,0.012982,0.014094,-0.007719
58116,9.414408,-2.110185,-1.997786,0.022985,0.015447,-0.007606
58117,9.381553,-2.105332,-2.003502,0.018232,0.017627,-0.007893
58118,9.406396,-2.097405,-2.024932,0.017530,0.016659,-0.012178
58119,9.382665,-2.103951,-1.999742,0.012848,0.014366,-0.011316
58120,9.386975,-2.123050,-2.025924,0.016605,0.014933,-0.015005
58121,9.396646,-2.133831,-1.993035,0.018261,0.014459,-0.015392
58122,9.388166,-2.121027,-2.022524,0.024445,0.011050,-0.014030
58123,9.427777,-2.105084,-2.026586,0.027757,0.010102,-0.014804
58124,9.436076,-2.044910,-2.023687,0.022708,0.015993,-0.014791
58125,9.434728,-2.083618,-2.036251,0.018821,0.015698,-0.014701
58126,9.409022,-2.129869,-2.025501,0.017067,0.015144,-0.009256
58127,9.402554,-2.077695,-2.040079,0.026289,0.020001,-0.014569
58128,9.397503,-2.096572,-2.024254,0.024977,0.020961,-0.012037
58129,9.383451,-2.103589,-2.039555,0.026503,0.020756,-0.016020
58130,9.365579,-2.090407,-2.027237,0.023262,0.017233,-0.014091
58131,9.336181,-2.116419,-1.988318,0.016852,0.019880,-0.014002
58132,9.342687,-2.095437,-1.999586,0.013802,0.018404,-0.022186
58133,9.339637,-2.173175,-2.026657,0.010342,0.014125,-0.018801
58134,9.351181,-2.143798,-1.979607,0.019840,0.009778,-0.018198
58135,9.346629,-2.150536,-2.037514,0.022410,0.003654,-0.025694
58136,9.376716,-2.132974,-2.001072,0.029382,0.002252,-0.025088
58137,9.395870,-2.143502,-2.010313,0.026932,0.000726,-0.023930
58138,9.416809,-2.114464,-2.005351,0.028144,-0.001256,-0.021398
58139,9.409683,-2.172402,-2.005705,0.030932,0.000759,-0.020409
58140,9.391466,-2.159076,-1.995044,0.032492,-0.000732,-0.015735
58141,9.378866,-2.126469,-1.997918,0.037237,-0.002902,-0.015427
58142,9.429659,-2.071341,-2.029655,0.038806,0.001092,-0.016967
58143,9.405684,-2.077833,-2.005496,0.029168,0.000210,-0.014960
58144,9.418963,-2.108714,-2.001288,0.022980,0.003603,-0.016339
58145,9.386011,-2.103372,-2.008330,0.021102,0.003322,-0.014498
58146,9.412207,-2.166145,-2.000623,0.025849,0.001154,-0.014188
58147,9.406912,-2.184684,-1.986399,0.031470,0.001996,-0.019704
58148,9.414687,-2.234796,-1.968300,0.046846,0.003462,-0.023621
58149,9.439590,-2.226411,-1.990136,0.060470,0.004388,-0.022097
58150,9.413989,-2.383109,-1.962688,0.069953,0.005529,-0.027683
58151,9.444536,-2.466321,-1.980599,0.102281,0.005719,-0.022171
58152,9.454207,-2.478403,-1.945553,0.142020,0.010231,-0.016505
58153,9.459325,-2.600383,-2.023382,0.177317,0.022873,-0.015214
58154,9.464525,-2.834288,-2.081918,0.239206,0.023246,-0.015159
58155,9.452552,-3.469434,-2.275841,0.327151,0.022743,-0.009669
58156,9.417892,-4.409829,-2.673737,0.553991,0.012079,0.017111
58157,9.390225,-5.477506,-3.073102,0.913117,-0.037692,0.051901
58158,9.319425,-6.536916,-3.488931,1.387428,-0.108382,0.124617
58159,9.352741,-6.962369,-3.706027,1.985005,-0.214294,0.251855
58160,9.528491,-6.354925,-3.722479,2.471221,-0.332715,0.402220
58161,9.724427,-4.917417,-3.385366,2.746470,-0.393589,0.587165
58162,9.725919,-3.205101,-3.116459,2.616320,-0.460947,0.763244
58163,9.753180,-2.252819,-3.368263,2.037708,-0.622428,0.813775
58164,9.570783,-2.448271,-3.750942,1.363537,-0.754301,0.909661
58165,9.141954,-2.286837,-3.462481,0.757135,-0.781564,1.033095
58166,8.570619,-3.112148,-3.489179,0.043021,-0.831250,1.126696
58167,8.376923,-4.449110,-3.450537,-0.381669,-0.960616,1.240830
58168,8.706342,-5.129842,-3.204478,-0.485013,-1.068063,1.290591
58169,8.832389,-5.319790,-3.402636,-0.506304,-1.112567,1.327546
58170,9.389005,-4.137887,-3.402929,-0.810072,-1.324656,1.246590
58171,9.185642,-4.830862,-4.614121,-1.124626,-1.177332,1.437114
58172,7.558692,-5.570586,-4.960750,-1.358414,-1.154252,1.528210
58173,7.339318,-7.145637,-5.365221,-1.102613,-1.361861,1.496664
58174,7.590707,-7.808917,-5.689290,-0.580270,-1.480594,1.485711
58175,7.857777,-7.535670,-5.744242,-0.010807,-1.550763,1.484234
58176,7.882412,-6.815569,-5.635251,0.360838,-1.574844,1.504168
58177,7.639586,-6.331892,-5.660078,0.525408,-1.602616,1.566476
58178,7.426140,-6.154664,-5.788531,0.567505,-1.641990,1.631225
58179,7.260665,-6.319364,-6.387779,0.617240,-1.682483,1.667600
58180,7.048767,-6.607869,-7.089835,0.751721,-1.757162,1.683931
58181,7.050362,-6.535539,-7.293370,0.912459,-1.848289,1.690698
58182,7.032143,-6.146113,-7.219402,1.012510,-1.897237,1.690109
58183,6.732264,-5.816272,-6.941641,1.014556,-1.938975,1.688444
58184,6.375991,-5.661205,-6.590093,0.940584,-1.983603,1.680667
58185,5.987051,-5.718745,-6.311973,0.858796,-2.028050,1.659021
58186,5.782127,-5.993984,-6.064391,0.815088,-2.058621,1.626116
58187,5.579501,-6.231548,-6.009321,0.843561,-2.069533,1.591841
58188,5.363163,-6.297296,-5.983296,0.896343,-2.075263,1.557078
58189,5.131170,-6.154605,-6.057068,0.927490,-2.086184,1.523066
58190,5.055373,-5.994119,-5.965898,0.887543,-2.101793,1.500530
58191,4.928831,-5.926644,-6.050114,0.847449,-2.094647,1.445679
58192,4.736393,-5.970751,-6.020118,0.821976,-2.082684,1.389762
58193,4.616956,-6.165746,-5.983547,0.826941,-2.076598,1.330677
58194,4.520063,-6.335067,-5.924270,0.879290,-2.051277,1.266330
58195,4.409692,-6.464747,-5.781760,0.944024,-2.015633,1.204381
58196,4.279293,-6.584506,-5.603896,1.001899,-1.968544,1.147852
58197,4.248190,-6.638049,-5.511165,1.063670,-1.914538,1.095435
58198,4.209905,-6.603257,-5.645423,1.172204,-1.846638,1.022911
58199,4.101710,-6.470271,-5.617547,1.281390,-1.783728,0.959822
58200,4.021368,-6.182984,-5.341967,1.374663,-1.720752,0.882930
58201,3.941954,-6.073826,-5.023566,1.404519,-1.631156,0.796193
58202,3.968290,-6.042599,-4.793244,1.414509,-1.525558,0.709431
58203,3.919098,-6.040747,-4.610768,1.451626,-1.414686,0.615784
58204,3.937617,-6.044611,-4.451878,1.518494,-1.302930,0.492407
58205,3.899821,-6.067118,-4.298921,1.615989,-1.197582,0.373117
58206,3.898563,-6.056389,-4.074296,1.683297,-1.107692,0.273948
58207,4.035057,-6.011868,-3.911921,1.720712,-1.000999,0.177178
58208,4.037992,-5.999992,-3.713088,1.737376,-0.903493,0.069317
58209,4.102930,-6.062021,-3.411890,1.705850,-0.800993,-0.023476
58210,4.106538,-6.004242,-3.204583,1.638448,-0.695565,-0.106649
58211,4.167349,-5.934026,-3.178818,1.567867,-0.600496,-0.206992
58212,4.213354,-5.968832,-3.210822,1.535028,-0.493618,-0.344116
58213,4.106729,-6.114988,-2.987572,1.536753,-0.409599,-0.481337
58214,4.233715,-6.324244,-2.756386,1.517956,-0.336408,-0.584855
58215,4.490677,-6.582500,-2.685387,1.521856,-0.258012,-0.673860
58216,4.702615,-6.732914,-2.731074,1.523383,-0.177033,-0.753767
58217,4.844780,-6.695656,-2.706337,1.518974,-0.115092,-0.802522
58218,5.057332,-6.399029,-2.566438,1.460413,-0.063320,-0.850850
58219,5.244441,-6.210634,-2.628243,1.377382,-0.004610,-0.918587
58220,5.492693,-6.187125,-2.698304,1.323292,0.087179,-0.952640
58221,5.531474,-6.089205,-2.475219,1.286948,0.186900,-0.991006
58222,5.416936,-5.892262,-2.284203,1.228895,0.239817,-1.044813
58223,5.436952,-5.807693,-2.046727,1.110883,0.253406,-1.090163
58224,5.578122,-5.965746,-1.896355,0.944963,0.284435,-1.114769
58225,5.695367,-6.089591,-1.795223,0.791800,0.323244,-1.127641
58226,5.886267,-6.211088,-1.848761,0.648511,0.341874,-1.131022
58227,6.028062,-6.499794,-2.013138,0.578744,0.360140,-1.135432
58228,5.963236,-6.670388,-2.183541,0.591340,0.364676,-1.120266
58229,6.001245,-6.766726,-1.813113,0.574738,0.340059,-1.104602
58230,6.180939,-6.847301,-1.666847,0.557489,0.336340,-1.102973
58231,6.200033,-6.869844,-1.683845,0.560752,0.323147,-1.088474
58232,6.253774,-6.942097,-1.607921,0.522398,0.294780,-1.049511
58233,6.280632,-7.265091,-1.643356,0.435323,0.266989,-1.010193
58234,6.378936,-7.798213,-1.763542,0.390985,0.237458,-0.951400
58235,6.602877,-8.082987,-1.898010,0.480613,0.213720,-0.903938
58236,6.885428,-7.736757,-1.810473,0.660479,0.198684,-0.875261
58237,6.835896,-6.868558,-1.508424,0.773539,0.188837,-0.860064
58238,6.631366,-6.058651,-1.315791,0.687993,0.160826,-0.817364
58239,6.583503,-5.736055,-1.318838,0.454113,0.137966,-0.753914
58240,6.524445,-5.871101,-1.048062,0.124428,0.132510,-0.684435
58241,6.572819,-6.332150,-1.092777,-0.262149,0.104331,-0.583290
58242,6.849477,-6.984159,-1.312699,-0.582193,0.074082,-0.488079
58243,7.223610,-7.529426,-1.655218,-0.762913,0.075049,-0.404151
58244,7.323670,-8.179987,-1.765788,-0.707489,0.084489,-0.338860
58245,7.169300,-8.481342,-1.669937,-0.499336,0.068982,-0.314453
58246,7.221343,-8.629643,-1.505491,-0.214851,0.046134,-0.290430
58247,7.310636,-8.568541,-1.334870,0.115397,0.039267,-0.284618
58248,7.201276,-8.363823,-1.256742,0.390447,0.029994,-0.258801
58249,7.165882,-7.832227,-1.280218,0.520665,-0.002678,-0.208118
58250,7.231926,-7.324390,-1.258659,0.489106,-0.025238,-0.161363
58251,7.274969,-6.926242,-1.226139,0.344571,-0.036141,-0.123670
58252,7.339154,-6.854831,-0.966937,0.163363,-0.042640,-0.107213
58253,7.306126,-6.886054,-0.964074,0.016302,-0.044079,-0.093113
58254,7.129860,-7.035656,-1.188598,-0.051128,-0.045529,-0.090830
58255,6.884428,-7.205998,-1.392837,-0.075961,-0.076460,-0.115331
58256,6.809639,-7.425563,-1.526656,-0.045037,-0.093507,-0.132517
58257,6.885563,-7.626068,-1.415285,-0.000512,-0.099675,-0.159233
58258,6.956510,-7.802185,-1.323374,0.078994,-0.091757,-0.176689
58259,6.947147,-7.799322,-1.221818,0.173776,-0.083638,-0.186635
58260,6.938604,-7.718712,-1.234372,0.255091,-0.073163,-0.196350
58261,6.964725,-7.500461,-1.069423,0.329916,-0.056000,-0.202072
58262,6.912139,-7.126083,-1.192803,0.382296,-0.056479,-0.224382
58263,6.959312,-6.976081,-1.124674,0.308667,-0.067045,-0.212036
58264,6.944635,-6.975297,-1.382531,0.140544,-0.086087,-0.154348
58265,6.925576,-7.438632,-1.553644,-0.045016,-0.126649,-0.117361
58266,7.046634,-8.163293,-1.468588,-0.125072,-0.143824,-0.086582
58267,7.178394,-8.783533,-1.558907,-0.059878,-0.166015,-0.037687
58268,7.048550,-8.645181,-1.814189,0.088417,-0.221788,0.014667
58269,7.261279,-8.371509,-1.631880,0.179561,-0.288978,0.063919
58270,7.490677,-8.481668,-1.495169,0.249882,-0.340912,0.126656
58271,7.619883,-8.502037,-1.718328,0.426112,-0.405354,0.189180
58272,7.696347,-7.904228,-1.770113,0.652556,-0.496856,0.247225
58273,7.839853,-7.187088,-1.610149,0.761435,-0.589541,0.315666
58274,8.020406,-6.802084,-1.725899,0.752743,-0.665265,0.418353
58275,8.224636,-6.759964,-2.188977,0.721578,-0.746057,0.539777
58276,8.441398,-6.335160,-2.343818,0.663007,-0.835853,0.672965
58277,8.460109,-5.953689,-2.484044,0.460112,-0.904343,0.785884
58278,8.363015,-5.945487,-2.791558,0.190272,-0.967351,0.899464
58279,8.280302,-6.257034,-2.980139,-0.025079,-1.029950,0.980012
58280,8.107506,-6.942039,-3.158387,-0.181777,-1.110227,1.047602
58281,7.984632,-7.633120,-3.381786,-0.205368,-1.209840,1.111135
58282,8.110410,-8.054101,-3.338651,-0.133903,-1.301266,1.162726
58283,8.315705,-8.116203,-3.452593,-0.025956,-1.352867,1.230412
58284,8.367696,-7.976746,-3.531246,0.063665,-1.374411,1.329151
58285,8.340257,-7.640879,-3.508554,0.048223,-1.386237,1.427292
58286,8.158538,-7.492567,-3.581546,-0.083407,-1.384644,1.536720
58287,7.710412,-7.663173,-3.871396,-0.215143,-1.378445,1.618989
58288,7.143448,-8.061087,-4.229942,-0.288737,-1.370251,1.680701
58289,6.471160,-8.799660,-4.505016,-0.304794,-1.404582,1.688585
58290,6.016911,-9.421330,-4.325810,-0.207286,-1.449970,1.667753
58291,5.452351,-10.071375,-4.130042,-0.080445,-1.481563,1.665973
58292,5.069878,-10.358532,-3.537966,0.009421,-1.513165,1.691515
58293,4.754168,-10.606257,-3.156767,-0.022099,-1.506391,1.742079
58294,4.486510,-10.703528,-2.586854,-0.142265,-1.475732,1.838294
58295,4.219992,-10.600362,-2.098407,-0.320854,-1.400002,1.925748
58296,3.684272,-11.008855,-2.494136,-0.531880,-1.311499,2.003354
58297,2.861589,-11.304777,-2.670502,-0.594825,-1.256414,2.050128
58298,1.772233,-11.740927,-3.294545,-0.523539,-1.250408,2.066708
58299,0.698863,-12.184112,-3.411096,-0.384913,-1.291178,2.076735
58300,-0.022296,-12.242142,-3.187360,-0.209762,-1.356243,2.075347
58301,-0.381968,-12.301169,-3.211933,-0.108522,-1.409145,2.084685
58302,-0.470607,-12.065400,-2.703387,-0.127621,-1.434084,2.132631
58303,-0.732999,-12.059203,-2.572598,-0.231149,-1.445616,2.175122
58304,-1.147894,-12.053898,-2.303281,-0.332862,-1.471158,2.241837
58305,-1.645130,-11.703603,-1.922358,-0.377034,-1.505686,2.262472
58306,-2.314841,-11.704807,-1.897893,-0.327890,-1.520735,2.233550
58307,-3.096098,-11.934767,-1.854050,-0.117914,-1.564844,2.218932
58308,-3.378339,-12.181243,-2.060982,0.098908,-1.640341,2.219629
58309,-3.402572,-12.481778,-2.172608,0.285905,-1.711666,2.269850
58310,-3.158825,-12.535389,-1.898029,0.379126,-1.768909,2.337486
58311,-3.114539,-12.560847,-1.901569,0.511823,-1.794949,2.403675
58312,-3.156495,-12.289851,-1.522869,0.660873,-1.812679,2.464294
58313,-3.496207,-11.900092,-1.200695,0.896633,-1.803415,2.501069
58314,-3.780089,-11.680491,-1.267398,1.134969,-1.816298,2.555920
58315,-3.858843,-11.472552,-1.326145,1.331202,-1.832866,2.621808
58316,-3.838386,-11.498321,-1.554329,1.522881,-1.843160,2.697497
58317,-3.842795,-10.991958,-1.440280,1.770322,-1.831864,2.758380
58318,-4.093436,-10.185346,-1.581205,1.898388,-1.814323,2.811651
58319,-4.196941,-9.585145,-1.485766,1.836643,-1.817713,2.902019
58320,-4.050321,-9.057022,-1.203710,1.691610,-1.803749,2.925102
58321,-4.213323,-8.755210,-1.075343,1.637325,-1.768866,2.912252
58322,-4.580300,-8.889111,-1.008452,1.635872,-1.760832,2.908932
58323,-4.740049,-8.812554,-0.748704,1.751082,-1.792561,2.906163
58324,-4.730888,-8.374350,-0.370753,1.900941,-1.811991,2.889222
58325,-4.814361,-7.785972,-0.145922,1.977787,-1.818215,2.864806
58326,-4.971816,-7.200526,0.309604,1.964359,-1.808650,2.854875
58327,-5.222121,-7.075763,0.444028,1.864183,-1.791178,2.830500
58328,-5.487347,-7.087860,0.612336,1.797152,-1.793423,2.807725
58329,-5.746376,-7.294283,0.583580,1.838424,-1.814045,2.746363
58330,-5.994326,-7.439328,0.474427,1.975837,-1.853443,2.701474
58331,-5.779948,-7.236298,0.795950,2.163515,-1.869369,2.633550
58332,-5.786647,-6.953734,1.127216,2.371978,-1.832384,2.554049
58333,-5.884082,-6.496224,1.276126,2.532608,-1.775357,2.500447
58334,-6.055382,-5.819802,1.300900,2.604946,-1.740428,2.469422
58335,-6.295981,-5.267060,1.663846,2.518084,-1.699339,2.411048
58336,-6.379288,-5.081482,1.813535,2.376317,-1.665066,2.345896
58337,-6.271774,-5.097847,1.909197,2.241235,-1.626175,2.304388
58338,-6.096224,-5.100035,2.184306,2.165739,-1.566275,2.255365
58339,-6.093944,-4.924232,2.191720,2.138837,-1.498894,2.204002
58340,-6.021192,-4.570036,2.442010,2.118586,-1.437202,2.171872
58341,-5.931399,-4.187470,2.535579,2.048173,-1.384109,2.125870
58342,-6.001788,-3.791379,2.543218,1.959423,-1.334059,2.088185
58343,-6.163729,-3.471114,2.656532,1.883407,-1.293929,2.039597
58344,-6.277280,-3.161892,2.864625,1.803879,-1.261130,1.967074
58345,-6.330932,-2.996841,3.104388,1.718493,-1.231104,1.882468
58346,-6.225381,-2.884205,3.299684,1.653931,-1.194320,1.794271
58347,-6.027085,-2.758222,3.471868,1.577310,-1.144154,1.715933
58348,-5.876669,-2.633019,3.619532,1.484733,-1.090591,1.649133
58349,-5.865783,-2.506097,3.695342,1.397210,-1.052764,1.588169
58350,-5.966891,-2.524207,3.683046,1.348156,-1.020416,1.536430
58351,-6.156994,-2.593960,3.951787,1.320670,-1.034123,1.456155
58352,-6.165856,-2.661719,4.092015,1.379878,-1.035258,1.394004
58353,-6.160393,-2.378497,4.257068,1.467267,-1.014440,1.338872
58354,-6.096504,-1.851820,4.423613,1.499684,-0.975347,1.279622
58355,-6.016232,-1.451154,4.391431,1.459657,-0.928638,1.216381
58356,-5.953671,-1.146415,4.456178,1.401922,-0.903802,1.168864
58357,-6.014017,-0.965627,4.699388,1.329234,-0.896878,1.107466
58358,-6.090746,-0.974990,4.879356,1.255089,-0.884324,1.066448
58359,-6.128835,-0.855235,5.196826,1.207609,-0.869084,1.029947
58360,-6.058788,-0.673902,5.366349,1.177696,-0.833595,0.985406
58361,-5.988630,-0.384115,5.419519,1.137188,-0.782529,0.928755
58362,-5.969573,0.026263,5.343896,1.059890,-0.743052,0.890780
58363,-6.076626,0.468746,5.281895,0.918700,-0.736839,0.858948
58364,-6.053760,0.800136,5.380869,0.717471,-0.737228,0.813721
58365,-6.037547,0.760179,5.484776,0.516933,-0.727505,0.757189
58366,-5.895529,0.530925,5.712949,0.402458,-0.694928,0.695233
58367,-5.859282,0.150767,5.875861,0.371454,-0.645593,0.647341
58368,-5.857960,-0.218071,5.781127,0.414876,-0.592436,0.609623
58369,-5.917923,-0.303940,5.733825,0.531225,-0.550716,0.570585
58370,-5.874907,-0.163712,5.874826,0.638337,-0.521934,0.531369
58371,-5.728088,0.094203,5.840744,0.682778,-0.474253,0.506032
58372,-5.650519,0.378505,5.867737,0.670126,-0.441302,0.474454
58373,-5.575722,0.686834,5.908661,0.609451,-0.405881,0.447582
58374,-5.543415,0.902447,6.001724,0.503016,-0.354580,0.414836
58375,-5.500816,0.943711,6.029387,0.391511,-0.309008,0.368228
58376,-5.462237,1.007985,6.162027,0.292743,-0.250571,0.313867
58377,-5.395830,0.966064,6.193502,0.205570,-0.180157,0.262920
58378,-5.327343,1.019554,6.223929,0.133508,-0.110711,0.210627
58379,-5.239973,1.124284,6.071185,0.058350,-0.030293,0.144888
58380,-5.207979,1.326187,5.999423,-0.032646,0.057009,0.083017
58381,-5.169831,1.439727,6.043637,-0.168386,0.132119,0.009081
58382,-4.983088,1.387635,5.960123,-0.322778,0.222143,-0.069266
58383,-4.782812,1.284579,5.780896,-0.456041,0.311817,-0.141180
58384,-4.671945,1.214829,5.741906,-0.581916,0.402106,-0.206087
58385,-4.782093,1.093191,5.671515,-0.717181,0.463606,-0.273465
58386,-4.947596,0.799851,5.669162,-0.835057,0.501716,-0.348553
58387,-5.010692,0.480231,5.639458,-0.887821,0.531309,-0.427386
58388,-5.146116,0.263094,5.676819,-0.924190,0.569387,-0.505002
58389,-5.229627,0.149853,5.566652,-0.952903,0.607156,-0.581099
58390,-5.248851,0.031582,5.493317,-0.993204,0.666936,-0.650031
58391,-5.181279,0.005180,5.392310,-1.049323,0.744541,-0.734457
58392,-5.215495,-0.016859,5.340942,-1.114775,0.812388,-0.805806
58393,-5.285401,-0.057280,5.237021,-1.199847,0.884039,-0.878231
58394,-5.447054,-0.129977,5.191172,-1.294353,0.946485,-0.948207
58395,-5.559583,-0.346809,5.254064,-1.430850,0.991190,-1.009046
58396,-5.560462,-0.679854,5.189423,-1.564048,1.040343,-1.060374
58397,-5.618630,-1.041531,5.222007,-1.682679,1.113981,-1.108520
58398,-5.627671,-1.472764,5.186902,-1.787099,1.199074,-1.146254
58399,-5.692546,-1.711923,4.985066,-1.871096,1.292704,-1.180404
58400,-5.793820,-2.005616,4.708109,-1.942145,1.373115,-1.207199
58401,-5.976642,-2.256706,4.342641,-1.992273,1.447458,-1.229497
58402,-6.250300,-2.520999,4.034945,-2.006586,1.489556,-1.255499
58403,-6.581558,-2.744048,3.815267,-1.975535,1.515061,-1.290442
58404,-6.788600,-2.973535,3.682889,-1.932920,1.517235,-1.326612
58405,-6.822478,-3.235629,3.688498,-1.884037,1.529628,-1.375712
58406,-6.648719,-3.546247,3.702860,-1.862408,1.575466,-1.414455
58407,-6.392712,-3.680208,3.480490,-1.831237,1.659974,-1.434146
58408,-6.095966,-3.746742,3.169687,-1.832226,1.774683,-1.453635
58409,-6.152643,-3.687115,2.697945,-1.859741,1.876693,-1.459461
58410,-6.688506,-3.878190,2.567714,-1.929912,1.901628,-1.463365
58411,-7.454149,-4.222594,2.395651,-1.943991,1.886873,-1.493503
58412,-7.793681,-4.565357,2.371855,-1.910331,1.869943,-1.543956
58413,-7.685086,-4.831328,2.228029,-1.842005,1.876222,-1.584213
58414,-7.294720,-4.739656,2.035651,-1.792805,1.929344,-1.624184
58415,-6.779127,-4.515039,1.799224,-1.802406,2.013161,-1.653159
58416,-6.309049,-4.393865,1.450105,-1.876857,2.135938,-1.662786
58417,-6.393066,-4.451154,1.276391,-2.002189,2.244201,-1.656288
58418,-7.270393,-4.986337,1.238034,-2.150613,2.268413,-1.621055
58419,-8.105278,-5.571161,0.853848,-2.201802,2.230346,-1.636010
58420,-8.164631,-6.058772,0.354976,-2.079255,2.208950,-1.698698
58421,-7.925929,-6.303492,0.023072,-1.882332,2.220106,-1.761163
58422,-7.637771,-6.118233,-0.267905,-1.657226,2.246393,-1.846311
58423,-7.349668,-5.729094,-0.459339,-1.503489,2.275911,-1.928266
58424,-6.909089,-5.693670,0.067785,-1.470250,2.303592,-2.015163
58425,-6.073782,-6.265365,0.380645,-1.466100,2.397994,-2.053504
58426,-5.696518,-6.701984,0.125167,-1.401632,2.547843,-2.036616
58427,-5.796722,-6.842597,-0.219084,-1.372305,2.647446,-1.987727
58428,-5.806312,-6.871784,-0.453253,-1.421040,2.712475,-1.914585
58429,-5.880032,-6.834653,-1.381827,-1.478771,2.783496,-1.899091
58430,-6.167152,-6.812053,-2.428175,-1.521468,2.830301,-1.872694
58431,-6.304680,-6.890978,-2.965401,-1.578710,2.809346,-1.891772
58432,-6.173395,-7.189075,-3.000515,-1.594591,2.792830,-1.965741
58433,-6.271486,-7.891304,-3.460798,-1.475643,2.787964,-2.026666
58434,-6.468525,-8.460137,-3.463378,-1.314878,2.732903,-1.996449
58435,-6.190122,-8.609887,-3.151676,-1.168141,2.671131,-1.978955
58436,-6.117279,-8.492315,-3.159640,-1.014853,2.663802,-1.988267
58437,-6.337330,-8.388241,-3.294690,-1.001293,2.627944,-1.956084
58438,-6.260313,-8.568856,-3.303823,-1.052584,2.558997,-1.910797
58439,-6.067777,-9.095691,-3.388637,-1.076896,2.516067,-1.885055
58440,-6.230696,-10.187109,-4.051635,-1.007449,2.440015,-1.818958
58441,-6.317510,-10.948256,-4.037437,-0.834256,2.274584,-1.747939
58442,-6.107543,-11.222446,-3.741786,-0.548149,2.147640,-1.756967
58443,-6.261533,-10.893981,-3.300802,-0.199834,2.078939,-1.775810
58444,-6.499300,-10.148346,-3.206186,0.054452,1.969724,-1.807648
58445,-6.351708,-9.535253,-3.014450,0.146333,1.830515,-1.827756
58446,-6.053314,-9.416017,-3.309719,0.129609,1.724224,-1.826562
58447,-5.638092,-9.583290,-3.619084,0.074976,1.571552,-1.821466
58448,-4.882100,-10.070405,-3.774600,-0.009410,1.456010,-1.814355
58449,-4.531754,-10.561835,-4.041312,0.027058,1.384537,-1.777765
58450,-4.173663,-10.540216,-3.732585,0.097910,1.296065,-1.760048
58451,-3.709976,-10.152024,-3.627251,0.164752,1.261821,-1.742873
58452,-3.586433,-9.666546,-3.818571,0.198194,1.239310,-1.730954
58453,-3.251300,-9.287024,-3.764269,0.129404,1.198204,-1.719054
58454,-3.000417,-9.437284,-4.026926,0.070176,1.198275,-1.703609
58455,-2.865092,-9.922833,-4.650038,0.034595,1.141088,-1.641509
58456,-2.407592,-10.382411,-5.261614,0.015117,1.057462,-1.574980
58457,-1.970588,-10.792618,-5.759595,0.074065,1.000204,-1.499287
58458,-1.452441,-11.045368,-5.806285,0.195843,0.964589,-1.427410
58459,-1.231034,-11.118911,-5.560890,0.440242,0.983079,-1.386538
58460,-1.358378,-10.615353,-5.352724,0.747949,0.977281,-1.357160
58461,-1.504171,-9.707848,-4.946626,0.924703,0.913323,-1.324346
58462,-1.276513,-8.703261,-4.431698,0.876444,0.866306,-1.279611
58463,-0.757383,-8.123899,-4.349137,0.659326,0.854074,-1.281112
58464,-0.054790,-8.361458,-4.280949,0.363656,0.887659,-1.264102
58465,0.632827,-9.415045,-4.316962,0.216352,0.965959,-1.225220
58466,0.893285,-10.500850,-4.642290,0.405035,1.036882,-1.244467
58467,0.776915,-10.899016,-4.787573,0.879568,1.064071,-1.255672
58468,0.547506,-10.135639,-4.923137,1.325367,1.008224,-1.265332
58469,0.758702,-8.783893,-4.688972,1.455912,0.948854,-1.286152
58470,1.238649,-7.448305,-4.168881,1.284847,0.921984,-1.352707
58471,1.991938,-6.674278,-3.484252,0.893720,0.957347,-1.444365
58472,2.528700,-6.957483,-3.105064,0.480735,1.036794,-1.530448
58473,2.852114,-7.912099,-3.331343,0.231883,1.078331,-1.586462
58474,3.144254,-8.847167,-3.720613,0.213744,1.083899,-1.622955
58475,3.324368,-9.409690,-4.190607,0.304099,1.049432,-1.634186
58476,3.860414,-9.592883,-4.151257,0.363531,0.992404,-1.620895
58477,4.521422,-9.593464,-4.085337,0.388773,0.962094,-1.607601
58478,5.007889,-9.458346,-3.993093,0.462129,0.965397,-1.627520
58479,5.298464,-9.005082,-3.675332,0.541115,0.963221,-1.622843
58480,5.480182,-8.522923,-3.539974,0.596216,0.946752,-1.627946
58481,5.659872,-8.041385,-3.555461,0.621295,0.931748,-1.629469
58482,5.812557,-7.909198,-3.541911,0.633263,0.940030,-1.643402
58483,5.842588,-7.606690,-3.596872,0.685509,0.932175,-1.642436
58484,5.850882,-6.975006,-3.549900,0.572791,0.874433,-1.607676
58485,6.197366,-6.743333,-3.246966,0.193714,0.808638,-1.520680
58486,6.617218,-7.075324,-2.985148,-0.241489,0.786861,-1.433211
58487,6.819104,-7.862788,-2.883562,-0.484545,0.793673,-1.365619
58488,6.806885,-8.475075,-2.719433,-0.456141,0.793913,-1.288633
58489,6.703785,-8.595007,-2.737453,-0.212847,0.766662,-1.245236
58490,6.694430,-8.348002,-2.820906,0.046241,0.715545,-1.185114
58491,6.690065,-7.948839,-2.971595,0.212266,0.653450,-1.136706
58492,6.610031,-7.507297,-3.039231,0.281222,0.596970,-1.075782
58493,6.510229,-7.176571,-2.879195,0.235238,0.529793,-1.001413
58494,6.604107,-6.982803,-2.648455,0.111090,0.454263,-0.935405
58495,6.671802,-7.021518,-2.432152,-0.059253,0.399122,-0.842972
58496,6.696058,-7.296295,-2.279233,-0.182060,0.347539,-0.753521
58497,6.710865,-7.539028,-2.255741,-0.226505,0.297752,-0.669777
58498,6.723004,-7.784055,-2.261304,-0.207157,0.269739,-0.605073
58499,6.714802,-7.890630,-2.224246,-0.106374,0.254450,-0.558342
58500,6.716406,-7.861917,-2.262847,-0.002801,0.235499,-0.512294
58501,6.659685,-7.832775,-2.270498,0.093705,0.219904,-0.462217
58502,6.635728,-7.853935,-2.228693,0.152337,0.202122,-0.413071
58503,6.825411,-7.688433,-2.110100,0.190325,0.177238,-0.369530
58504,6.775102,-7.676248,-2.534004,0.070731,0.126644,-0.221103
58505,6.629077,-8.524792,-2.967248,-0.049930,0.073332,-0.109288
58506,6.713786,-8.959010,-2.712429,0.088122,0.058434,-0.055508
58507,6.430012,-8.162460,-2.590552,0.277871,0.012360,-0.042695
58508,6.105599,-7.243624,-2.557441,0.195485,-0.061560,0.013774
58509,6.266468,-7.244910,-2.283171,-0.063264,-0.080308,0.027116
58510,6.419272,-7.822703,-2.180578,-0.141957,-0.062419,-0.011182
58511,6.518307,-8.490605,-2.383323,-0.032726,-0.072303,-0.035525
58512,6.803627,-8.735541,-2.349975,0.235906,-0.060658,-0.049846
58513,6.862748,-8.441226,-2.290263,0.491368,-0.036095,-0.056818
58514,6.821764,-7.932132,-2.147056,0.641721,-0.026684,-0.049584
58515,6.678908,-7.284049,-1.917149,0.711889,-0.028738,-0.045923
58516,6.687029,-6.647615,-1.524027,0.608566,-0.025154,-0.055127
58517,6.929637,-6.448152,-1.423922,0.351117,0.004735,-0.055394
58518,6.815244,-6.724112,-1.330954,0.153548,0.036487,-0.055788
58519,6.795644,-7.142434,-1.692100,0.133443,0.056610,-0.097800
58520,6.823494,-7.403900,-1.860188,0.345080,0.076619,-0.132177
58521,6.788493,-6.920995,-1.525928,0.436961,0.064609,-0.078843
58522,7.185142,-6.426724,-0.649617,0.283770,0.072988,-0.021405
58523,7.320912,-6.426162,-0.771606,0.202430,0.100885,-0.005962
58524,7.367106,-6.098440,-0.906898,0.104460,0.043749,0.137946
58525,7.685438,-5.528434,-1.134314,-0.129748,-0.029737,0.278941
58526,8.018136,-5.122666,-1.218116,-0.439971,-0.082247,0.377106
58527,8.288682,-5.057785,-1.636506,-0.720345,-0.153155,0.494937
58528,8.256167,-5.114416,-2.088318,-0.890751,-0.264406,0.609984
58529,8.050740,-5.606167,-2.207120,-1.012272,-0.424081,0.703272
58530,7.806836,-6.294950,-2.246469,-1.014194,-0.590800,0.791130
58531,7.722219,-6.806635,-2.308460,-0.830221,-0.766019,0.813631
58532,7.867508,-7.120410,-2.205530,-0.562782,-0.925752,0.810943
58533,8.215461,-7.277503,-2.182820,-0.305145,-1.053197,0.849136
58534,8.589745,-7.458142,-2.430314,-0.029065,-1.134462,0.845594
58535,8.544249,-7.515754,-2.765432,0.306548,-1.209889,0.813113
58536,8.232236,-7.441751,-3.079888,0.664287,-1.315193,0.752975
58537,8.078335,-7.093010,-3.280484,0.971677,-1.457122,0.685217
58538,8.180202,-6.491797,-3.227344,1.149994,-1.590348,0.596831
58539,8.405181,-5.935755,-3.210331,1.139332,-1.672208,0.496179
58540,8.454649,-5.682376,-2.985162,0.946205,-1.736049,0.392693
58541,8.672690,-5.869953,-2.044583,0.683192,-1.744104,0.288481
58542,8.795024,-6.245330,-1.561412,0.463727,-1.683511,0.190226
58543,8.561291,-6.752927,-1.675628,0.358741,-1.578991,0.076426
58544,8.124476,-6.966529,-1.771090,0.414375,-1.482599,-0.057296
58545,7.610664,-6.536025,-1.867765,0.504328,-1.394925,-0.222026
58546,7.181258,-5.947596,-2.052108,0.510946,-1.282779,-0.400261
58547,6.788063,-5.360758,-2.330857,0.470699,-1.160202,-0.587018
58548,6.544947,-4.868702,-2.489044,0.310165,-1.035762,-0.760505
58549,6.359209,-4.874842,-2.699622,0.033944,-0.915319,-0.913690
58550,6.286221,-5.157438,-2.768017,-0.199796,-0.779410,-1.058753
58551,6.241743,-5.319436,-2.888646,-0.373606,-0.641102,-1.190659
58552,6.035354,-5.429181,-2.835789,-0.492856,-0.479730,-1.306679
58553,5.695823,-5.437236,-2.633957,-0.556772,-0.299301,-1.430155
58554,5.333014,-5.423156,-2.538063,-0.584518,-0.110840,-1.549699
58555,5.093708,-5.311600,-2.382589,-0.592047,0.086127,-1.668668
58556,4.880549,-5.252479,-2.425132,-0.602396,0.300555,-1.791615
58557,4.680996,-5.295478,-2.489483,-0.630725,0.499227,-1.896236
58558,4.672190,-5.480804,-2.600398,-0.675276,0.692644,-1.972415
58559,4.713941,-5.676127,-2.716771,-0.717575,0.888970,-2.036595
58560,4.675968,-5.724831,-3.001170,-0.736286,1.068204,-2.090439
58561,4.602539,-5.398561,-3.229897,-0.768594,1.217183,-2.126936
58562,4.736557,-5.121841,-3.376936,-0.898932,1.374256,-2.163453
58563,4.807862,-5.086308,-3.693471,-1.081896,1.543257,-2.198220
58564,4.822906,-5.302126,-3.989271,-1.252324,1.689218,-2.215950
58565,4.927730,-5.383100,-4.149118,-1.391965,1.807126,-2.217573
58566,5.326593,-5.337409,-4.024911,-1.537566,1.930942,-2.233770
58567,5.615347,-5.395291,-4.110359,-1.716526,2.075891,-2.234840
58568,5.732962,-5.919744,-4.497764,-1.879694,2.185842,-2.201770
58569,6.163351,-6.290699,-4.621962,-2.005551,2.267185,-2.145032
58570,6.686607,-6.205429,-4.520756,-2.102511,2.372722,-2.096968
58571,6.952544,-5.658588,-4.338566,-2.227627,2.501223,-2.067380
58572,7.120038,-5.020317,-4.086389,-2.424748,2.635017,-2.043152
58573,7.235684,-4.391239,-4.011476,-2.729671,2.751906,-2.023858
58574,7.477328,-3.949421,-4.086935,-3.096213,2.848289,-2.004474
58575,7.874835,-3.668908,-4.441944,-3.463921,2.951072,-2.018134
58576,8.393040,-3.594260,-4.747191,-3.763465,3.057521,-2.033657
58577,8.814457,-3.566982,-5.160784,-3.983112,3.154120,-2.047193
58578,9.271445,-3.455599,-5.528170,-4.118311,3.223989,-2.063533
58579,9.824191,-3.159759,-5.510019,-4.252871,3.292006,-2.083361
58580,10.322389,-3.069166,-5.731666,-4.470717,3.350740,-2.087169
58581,10.914392,-3.300583,-6.213177,-4.708734,3.344267,-2.034449
58582,11.648763,-3.673728,-6.724971,-4.942261,3.302877,-1.901558
58583,12.406921,-4.321051,-7.204683,-5.141242,3.240142,-1.716156
58584,12.749204,-5.052510,-7.789036,-5.243023,3.144359,-1.492191
58585,12.725572,-5.856291,-8.390085,-5.145212,2.946580,-1.279188
58586,12.487493,-6.369279,-8.306274,-4.915208,2.685551,-1.072645
58587,11.646046,-6.893782,-8.320668,-4.607281,2.358740,-0.857075
58588,10.503625,-7.557652,-8.145115,-4.197265,1.918225,-0.677178
58589,9.246331,-8.079688,-7.485597,-3.608783,1.374388,-0.520043
58590,8.577756,-8.070624,-6.355749,-2.940919,0.745827,-0.416687
58591,8.617212,-7.667733,-4.601494,-2.316037,0.157806,-0.290701
58592,9.222203,-7.264643,-2.907701,-1.759212,-0.291335,-0.225768
58593,9.778375,-7.005942,-1.494418,-1.203371,-0.558165,-0.173695
58594,10.176840,-6.790345,-0.307713,-0.719845,-0.674933,-0.125969
58595,10.428089,-6.464642,0.263535,-0.337374,-0.629186,-0.064641
58596,10.074167,-6.454517,-0.249037,0.096082,-0.505847,0.009205
58597,10.042952,-5.104306,-0.479850,0.605781,-0.470111,0.037615
58598,9.696349,-3.197602,-1.348086,0.852094,-0.468040,0.125571
58599,9.540363,-1.832820,-1.791028,0.807461,-0.563868,0.153998
58600,9.735545,-0.665566,-0.948817,0.765039,-0.566448,0.168539
58601,9.748325,-0.278609,-0.581134,0.410822,-0.542607,0.212400
58602,9.790294,-0.424494,-0.572465,-0.047838,-0.567135,0.256636
58603,9.754658,-1.637034,-0.724515,-0.338885,-0.514995,0.369676
58604,9.430404,-2.014790,-0.472831,-0.250390,-0.528693,0.379825
58605,9.564717,-1.887780,-0.283814,-0.050983,-0.489957,0.286031
58606,9.421424,-1.793312,-0.135580,0.091144,-0.437400,0.278287
58607,9.594649,-0.973694,-0.138479,0.288148,-0.441075,0.250122
58608,9.842965,0.070160,-0.428978,0.261317,-0.426446,0.187871
58609,10.165297,0.463685,-0.316460,-0.103425,-0.352868,0.105160
58610,9.900408,0.202959,-0.454125,-0.021375,-0.318121,0.088197
58611,9.870583,-0.293817,-0.636422,-0.173137,-0.296714,0.020891
58612,9.627816,-1.032994,-0.595391,0.044806,-0.324978,0.016421
58613,9.756543,-1.428520,-1.029428,0.188417,-0.353677,0.001853
58614,10.023480,-1.187326,-1.019282,0.288405,-0.344404,-0.007375
58615,9.910746,-1.222362,-1.245753,0.389658,-0.344740,0.019956
58616,9.710485,-0.850363,-1.220137,0.432810,-0.335766,0.046838
58617,9.658293,-0.676316,-1.400886,0.347294,-0.355427,0.072686
58618,9.905734,-0.499756,-1.211675,0.274953,-0.362978,0.096209
58619,9.935779,-0.322173,-0.835744,0.160427,-0.316181,0.084926
58620,9.798476,-0.347675,-0.900355,-0.005359,-0.265012,0.084961
58621,9.733156,-0.730983,-0.984709,-0.124967,-0.240793,0.071593
58622,9.693010,-1.192728,-1.044385,-0.221363,-0.207332,0.061275
58623,9.693960,-1.769671,-1.225475,-0.236086,-0.176500,0.045121
58624,9.761815,-2.098814,-1.315295,-0.158983,-0.139469,0.014875
58625,9.721361,-2.304332,-1.393004,-0.063483,-0.098045,-0.007991
58626,9.604818,-2.393471,-1.595674,0.071340,-0.071178,-0.037231
58627,9.549561,-2.317329,-1.692561,0.203990,-0.062819,-0.058949
58628,9.477962,-2.399479,-1.855601,0.314066,-0.067583,-0.070995
58629,9.353531,-2.601080,-2.081471,0.471313,-0.078436,-0.086258
58630,9.276598,-2.710149,-2.224431,0.660525,-0.108239,-0.093159
58631,9.240128,-2.716872,-2.318344,0.875630,-0.145426,-0.095450
58632,9.268605,-2.631585,-2.281291,1.104729,-0.173420,-0.099336
58633,9.237963,-2.600622,-2.337967,1.313432,-0.202347,-0.096503
58634,9.379094,-2.538085,-2.362704,1.547465,-0.239239,-0.110294
58635,9.615218,-2.128297,-2.296510,1.765526,-0.265897,-0.127101
58636,9.754969,-1.713684,-2.024028,1.869448,-0.277619,-0.131051
58637,9.867175,-1.477321,-1.731261,1.902170,-0.274854,-0.122961
58638,9.992615,-1.422799,-1.363753,1.890181,-0.266939,-0.114567
58639,10.030653,-1.313535,-1.169087,1.863960,-0.248351,-0.118470
58640,9.993231,-1.217494,-0.909897,1.800345,-0.212493,-0.101244
58641,9.909099,-1.238182,-0.873809,1.736716,-0.179251,-0.093163
58642,9.860697,-1.040491,-0.921347,1.672754,-0.155599,-0.086809
58643,9.795881,-0.757293,-0.996470,1.570950,-0.139373,-0.080381
58644,9.819605,-0.561420,-1.002021,1.419379,-0.136492,-0.083382
58645,9.849911,-0.509351,-1.115307,1.248677,-0.111581,-0.075716
58646,9.814267,-0.638856,-1.209517,1.073874,-0.099579,-0.059033
58647,9.817862,-0.746011,-1.201510,0.939223,-0.083699,-0.043800
58648,9.723265,-0.860857,-1.221857,0.829698,-0.061069,-0.030120
58649,9.691124,-0.894970,-1.285662,0.737714,-0.055366,-0.025759
58650,9.616207,-0.823621,-1.299598,0.657124,-0.041912,-0.015266
58651,9.628674,-0.667587,-1.385043,0.564852,-0.045032,-0.018417
58652,9.688036,-0.426341,-1.357646,0.447994,-0.045835,-0.025750
58653,9.740072,-0.354128,-1.316963,0.283268,-0.031499,-0.030301
58654,9.784875,-0.393322,-1.276562,0.119236,-0.015821,-0.034527
58655,9.747048,-0.498881,-1.181652,-0.044726,0.010290,-0.017706
58656,9.764043,-0.580870,-1.150255,-0.193779,0.035395,-0.009897
58657,9.691540,-0.697977,-1.169091,-0.334591,0.054235,0.007433
58658,9.629319,-0.982039,-1.230745,-0.454134,0.065405,0.023443
58659,9.648740,-1.114332,-1.308803,-0.525432,0.067823,0.037414
58660,9.663635,-1.203993,-1.386136,-0.582098,0.068739,0.043954
58661,9.690550,-1.452068,-1.404207,-0.637426,0.068930,0.055454
