// Start Time: Unknown
// Update Rate: 100.0Hz
// Filter Profile: human (46.1)
// Firmware Version: 4.3.5
PacketCounter,Acc_X,Acc_Y,Acc_Z,Gyr_X,Gyr_Y,Gyr_Z
32085,9.729608,-0.721016,1.781195,0.016467,0.010350,-0.003633
32086,9.720369,-0.699762,1.772670,0.014029,0.009370,-0.005811
32087,9.710407,-0.731291,1.713348,0.008017,0.005457,-0.010178
32088,9.751155,-0.741530,1.713211,0.009626,0.002968,-0.007687
32089,9.746910,-0.757511,1.743333,0.016616,0.002938,-0.009034
32090,9.774395,-0.710407,1.754042,0.023696,0.003696,-0.005525
32091,9.693577,-0.633836,1.806499,0.019575,0.008911,-0.007497
32092,9.651971,-0.674487,1.757522,0.015694,0.007498,-0.010010
32093,9.706063,-0.687871,1.737506,0.018659,0.004654,-0.012038
32094,9.760953,-0.648144,1.767665,0.017378,0.001302,-0.010217
32095,9.779940,-0.634737,1.837660,0.015626,0.002390,-0.010878
32096,9.729366,-0.654850,1.778457,0.016927,0.001422,-0.008711
32097,9.765968,-0.682028,1.807521,0.013375,-0.005834,-0.006906
32098,9.738701,-0.673084,1.787731,0.020345,-0.001540,-0.012246
32099,9.743036,-0.708343,1.767206,0.017765,-0.003924,-0.012590
32100,9.775516,-0.698115,1.816522,0.022860,-0.004263,-0.012767
32101,9.798193,-0.666694,1.796439,0.025750,-0.003396,-0.012098
32102,9.798997,-0.665890,1.856060,0.022949,-0.003470,-0.007913
32103,9.771677,-0.657294,1.836384,0.014744,-0.001687,-0.003877
32104,9.753415,-0.669568,1.826604,0.010024,0.002243,-0.002513
32105,9.740064,-0.665642,1.846794,0.010951,-0.002314,-0.001533
32106,9.785785,-0.660008,1.876214,0.006143,0.000822,-0.005025
32107,9.776610,-0.638730,1.867057,0.011590,0.008394,-0.008009
32108,9.749727,-0.630572,1.908428,0.002822,0.013820,-0.011318
32109,9.722097,-0.621892,1.890362,-0.000145,0.016664,-0.009293
32110,9.766898,-0.668972,1.870898,0.002679,0.012422,-0.009484
32111,9.789237,-0.691930,1.861738,0.006021,0.013170,-0.010322
32112,9.784147,-0.707121,1.833269,0.018030,0.016525,-0.009151
32113,9.802183,-0.747127,1.854233,0.025130,0.012980,-0.001646
32114,9.815337,-0.803802,1.845150,0.042400,0.013084,0.001513
32115,9.819929,-0.841106,1.886168,0.057427,0.009476,0.016203
32116,9.910285,-0.830893,1.886750,0.081944,0.007446,0.025029
32117,9.891609,-0.791546,1.868905,0.096732,0.010489,0.040234
32118,9.823511,-0.721503,1.902136,0.107375,0.018541,0.041900
32119,9.759501,-0.796025,1.934499,0.112519,0.009607,0.049717
32120,9.867096,-0.882957,1.904885,0.125967,0.004224,0.065892
32121,9.911135,-0.989465,1.895958,0.151731,0.005002,0.079536
32122,9.946626,-1.022629,1.927550,0.206815,0.000429,0.093938
32123,9.937117,-1.007875,1.979792,0.263156,-0.001326,0.113137
32124,10.044670,-1.045137,2.001363,0.309888,-0.005929,0.139995
32125,10.069858,-1.061799,1.964553,0.365280,0.000190,0.167388
32126,9.956314,-0.896633,1.948191,0.419105,0.008557,0.180631
32127,9.836048,-0.602476,1.959384,0.452210,0.014947,0.175157
32128,9.621473,-0.331737,1.999880,0.438929,0.020113,0.147138
32129,9.513492,-0.249881,2.031727,0.410916,0.014796,0.110332
32130,9.683424,-0.371666,2.055929,0.364123,0.013439,0.077653
32131,9.786131,-0.418759,2.049930,0.341100,0.028195,0.045316
32132,9.758585,-0.405891,2.094382,0.317145,0.038957,0.020075
32133,9.735015,-0.377972,2.049150,0.286594,0.045339,-0.001190
32134,9.713888,-0.442827,1.937934,0.249583,0.044488,-0.016233
32135,9.722166,-0.659361,1.853137,0.227318,0.041879,-0.016944
32136,9.815619,-0.938188,1.751170,0.239641,0.034494,-0.012247
32137,9.928463,-1.152443,1.646716,0.282576,0.024831,0.016181
32138,10.064967,-1.335267,1.640756,0.353729,0.007591,0.052088
32139,10.327368,-1.542801,1.605218,0.458355,-0.024296,0.119804
32140,10.803519,-1.921014,1.698623,0.613795,-0.055337,0.214280
32141,11.237742,-2.392235,1.733343,0.818730,-0.069999,0.338374
32142,11.575959,-2.834395,1.765996,1.064867,-0.089806,0.508588
32143,11.836590,-2.897567,1.767058,1.314253,-0.105858,0.692477
32144,11.910730,-2.853319,1.762584,1.514926,-0.114288,0.876806
32145,11.989125,-2.850040,1.771274,1.630482,-0.126571,1.066498
32146,12.092400,-3.103056,1.640495,1.713696,-0.131191,1.264856
32147,12.578659,-3.849092,1.379683,1.802697,-0.138267,1.484014
32148,13.153241,-4.740269,1.080293,1.968015,-0.127902,1.704401
32149,13.726756,-5.353575,0.881925,2.279815,-0.089740,1.920102
32150,14.151719,-5.536157,0.973347,2.599362,-0.029477,2.125186
32151,14.376139,-5.101862,1.277204,2.871736,0.051357,2.318254
32152,14.420511,-4.444330,1.749113,2.978326,0.143752,2.501051
32153,14.173135,-4.095114,2.185127,2.945236,0.261780,2.664046
32154,14.034316,-4.507894,2.479014,2.827476,0.371556,2.827542
32155,13.823925,-5.179342,2.587474,2.763123,0.512837,2.968314
32156,13.525120,-6.050762,2.841441,2.770778,0.658126,3.110661
32157,13.086362,-6.634501,2.758286,2.856390,0.820859,3.222134
32158,12.438483,-6.503998,2.949448,3.031672,0.995434,3.292157
32159,11.747912,-6.286124,3.288690,3.145920,1.182772,3.346671
32160,10.863767,-5.765657,3.796475,3.220870,1.376144,3.381264
32161,9.984285,-5.332749,4.236672,3.202706,1.513969,3.404695
32162,9.269685,-5.096729,4.783500,3.094869,1.669358,3.422907
32163,8.778223,-5.471581,5.296641,2.954149,1.827256,3.459762
32164,8.369716,-5.798891,5.611642,2.779379,1.967933,3.514289
32165,7.710785,-5.331480,5.880373,2.617124,2.080004,3.561783
32166,7.151699,-5.273078,6.363623,2.392183,2.215859,3.607811
32167,6.517638,-4.883877,6.453869,2.179149,2.315715,3.647039
32168,5.994497,-4.650310,6.776065,1.960663,2.378301,3.703915
32169,5.671802,-5.116983,7.099829,1.705369,2.472469,3.813430
32170,5.087514,-5.384406,7.181899,1.506128,2.573005,3.966741
32171,4.122154,-5.536270,7.003883,1.332714,2.657909,4.095007
32172,3.329446,-5.088777,7.023827,1.206479,2.707748,4.218793
32173,3.069785,-4.821789,7.228826,1.005685,2.754242,4.369123
32174,2.810080,-4.948015,7.132842,0.767538,2.792014,4.545433
32175,2.246567,-5.109737,7.401625,0.612779,2.843370,4.716972
32176,1.789213,-5.930483,7.611587,0.459965,2.877307,4.869991
32177,1.677818,-6.681699,7.646824,0.480369,2.921431,5.021041
32178,1.489132,-6.903883,7.974914,0.580701,2.998885,5.141038
32179,0.843141,-6.112128,8.044744,0.669952,3.074915,5.250486
32180,0.211959,-5.448759,8.190227,0.718885,3.144351,5.314064
32181,-0.280642,-4.860099,8.150858,0.716252,3.198255,5.355094
32182,-0.704158,-4.525211,8.216637,0.735026,3.238152,5.387618
32183,-0.987288,-5.132748,8.077029,0.753650,3.280644,5.405685
32184,-1.405298,-5.039844,7.742771,0.847230,3.295712,5.403131
32185,-2.126858,-4.871048,7.271331,0.943546,3.273367,5.367592
32186,-2.523362,-5.356012,6.965727,1.085410,3.268916,5.271935
32187,-3.026210,-5.967515,6.360030,1.390436,3.223394,5.147588
32188,-3.606366,-6.171313,6.020469,1.818747,3.145483,4.984701
32189,-3.993906,-5.903844,6.051354,2.299229,3.063726,4.771606
32190,-4.320882,-5.331263,6.074175,2.754420,2.986612,4.529906
32191,-4.994729,-3.740544,5.877971,3.135192,2.874850,4.233755
32192,-5.789404,-1.838807,5.911645,3.342342,2.724222,3.846236
32193,-6.426625,-0.576905,6.136815,3.326789,2.546578,3.454601
32194,-7.040086,-0.058479,6.116765,3.214529,2.396352,3.093181
32195,-8.188099,-0.008903,6.066668,3.068977,2.213582,2.726929
32196,-8.515973,-0.321335,6.254288,3.002614,1.940458,2.331491
32197,-8.010755,-0.927510,6.623371,2.959418,1.695327,1.955804
32198,-7.617044,-1.314661,7.054061,2.922320,1.458624,1.616867
32199,-7.257656,-1.270809,7.499851,2.826050,1.223273,1.295460
32200,-6.876479,-0.914836,7.811586,2.609576,1.005435,1.017932
32201,-6.503772,-0.646904,7.792530,2.311612,0.779500,0.797643
32202,-6.353484,-0.445323,7.368613,2.023007,0.561722,0.588869
32203,-6.454509,-0.361229,6.828011,1.819427,0.322474,0.394577
32204,-6.383819,-0.700727,5.945749,1.764115,0.105603,0.183724
32205,-6.243513,-1.066526,5.075303,1.881684,-0.144736,-0.052396
32206,-6.022564,-0.754860,4.710531,2.092328,-0.412277,-0.276775
32207,-5.602282,-0.021824,4.828386,2.240663,-0.656771,-0.473792
32208,-5.165197,0.714283,5.095817,2.296617,-0.888694,-0.649484
32209,-4.651406,1.056351,5.358584,2.262529,-1.086122,-0.809524
32210,-4.022846,0.866006,5.680691,2.196545,-1.265613,-0.929429
32211,-3.479343,0.525744,5.853077,2.154594,-1.410956,-1.025244
32212,-3.088350,0.198611,6.082610,2.135197,-1.537813,-1.101831
32213,-2.905378,0.243335,6.173747,2.104349,-1.670221,-1.152698
32214,-2.878495,0.574993,6.113666,2.053298,-1.815014,-1.202916
32215,-2.694942,0.851083,6.065200,1.963018,-1.952407,-1.252505
32216,-2.536463,1.058309,5.891265,1.856833,-2.091453,-1.307336
32217,-2.346392,1.146497,5.841729,1.764272,-2.219340,-1.367062
32218,-2.214624,1.420312,5.822416,1.698110,-2.331315,-1.450370
32219,-1.888346,1.728524,5.960256,1.620637,-2.442838,-1.531906
32220,-1.598925,2.099631,6.277766,1.508263,-2.547502,-1.580029
32221,-1.307726,2.362385,6.397635,1.363335,-2.637443,-1.616528
32222,-0.911884,2.254612,6.299093,1.193771,-2.715391,-1.660604
32223,-0.683330,2.042775,6.176115,1.096988,-2.788075,-1.691992
32224,-0.533152,1.718151,6.021602,1.064688,-2.866629,-1.741071
32225,-0.291375,1.752313,5.966349,1.098056,-2.952782,-1.802496
32226,0.066782,2.125145,6.171609,1.126454,-3.023085,-1.882270
32227,0.431603,2.545057,6.609439,1.096415,-3.065119,-1.970656
32228,0.885384,2.755656,6.953505,1.037379,-3.091255,-2.051939
32229,1.408645,2.630278,7.450378,0.946722,-3.091785,-2.103411
32230,1.908521,2.180963,7.794412,0.850596,-3.074787,-2.118269
32231,2.390528,1.928072,8.284239,0.806419,-3.018838,-2.124537
32232,2.730949,1.762889,8.705982,0.766439,-2.928822,-2.125214
32233,2.754531,2.021574,9.069179,0.717153,-2.823253,-2.130316
32234,2.781598,2.692810,9.489475,0.603951,-2.702499,-2.114068
32235,2.737401,3.091986,9.859675,0.377266,-2.553149,-2.074134
32236,2.796898,2.904393,10.242695,0.096865,-2.380804,-2.007268
32237,2.968960,2.000470,10.652879,-0.166164,-2.175071,-1.896045
32238,3.243431,0.880456,11.286252,-0.327775,-1.924515,-1.730494
32239,3.500906,-0.229357,11.902647,-0.402522,-1.618473,-1.508033
32240,3.531050,-0.957359,12.460131,-0.390219,-1.285567,-1.226447
32241,3.299078,-1.236327,12.672169,-0.359412,-0.948615,-0.919243
32242,2.723253,-1.097975,12.404783,-0.355561,-0.651072,-0.578997
32243,1.941617,-0.675796,11.832980,-0.383514,-0.412968,-0.275548
32244,1.408056,-0.282751,11.220459,-0.402476,-0.254531,-0.049863
32245,1.126915,-0.131570,10.759088,-0.395441,-0.143972,0.105629
32246,0.981452,-0.141452,10.653111,-0.341192,-0.066402,0.203575
32247,0.697334,-0.028657,10.774845,-0.255018,-0.002940,0.270938
32248,0.362950,0.274877,10.960644,-0.198252,0.036092,0.299237
32249,0.149386,0.775109,11.249048,-0.231709,0.070849,0.312583
32250,-0.054508,1.324023,11.403124,-0.400116,0.087200,0.341221
32251,-0.350464,1.781281,11.537329,-0.688454,0.069780,0.374777
32252,-0.548756,2.551521,11.827423,-1.150508,0.015636,0.412878
32253,-0.644219,3.508055,12.026453,-1.836348,-0.056802,0.473769
32254,-0.751096,4.422899,12.191408,-2.745199,-0.128561,0.538598
32255,-0.694072,4.942051,12.093017,-3.806164,-0.174233,0.580765
32256,-0.723636,4.817700,11.866793,-4.991411,-0.214179,0.624697
32257,-0.613616,4.200474,11.338625,-6.215371,-0.250622,0.679786
32258,-0.435297,3.224842,10.692451,-7.429409,-0.235501,0.721237
32259,-0.459125,2.339000,10.169680,-8.650918,-0.229506,0.772683
32260,-0.169949,1.658895,9.401246,-9.844422,-0.179602,0.863546
32261,-0.057290,0.755774,8.113923,-10.984222,-0.090837,0.957099
32262,-0.028425,-0.222969,6.506636,-12.006102,-0.014158,1.068587
32263,-0.102287,-1.277784,4.655261,-12.835004,0.090724,1.175453
32264,-0.346540,-2.643987,2.621557,-13.300839,0.182943,1.234858
32265,-0.362450,-4.031323,0.780740,-13.551107,0.253466,1.273529
32266,-0.580209,-5.569051,-1.144579,-13.373183,0.330335,1.271629
32267,-0.811701,-7.307032,-2.205749,-12.816047,0.366310,1.196710
32268,-0.645559,-8.368982,-3.084435,-12.128786,0.388683,1.132910
32269,-0.699876,-8.780744,-3.585251,-11.234172,0.477054,0.996324
32270,-0.900101,-8.576499,-3.680953,-10.341844,0.510239,0.794325
32271,-0.705615,-8.488409,-4.391687,-9.487188,0.560788,0.624763
32272,-0.934476,-8.520385,-4.678051,-8.632926,0.605465,0.450407
32273,-1.070946,-8.708361,-5.363563,-7.752635,0.621128,0.306964
32274,-1.190271,-9.420972,-6.279907,-6.790837,0.622514,0.184619
32275,-1.292547,-10.010547,-6.586700,-5.732708,0.614471,0.046285
32276,-1.650871,-10.035402,-6.853574,-4.676627,0.578915,-0.036674
32277,-1.518087,-9.934092,-6.737151,-3.787289,0.500301,-0.072967
32278,-1.593549,-9.536996,-6.430645,-3.104123,0.446449,-0.085085
32279,-1.636666,-9.478785,-6.435339,-2.549451,0.369631,-0.083839
32280,-1.530438,-9.685925,-6.416813,-1.973107,0.297766,-0.120664
32281,-1.596329,-9.891958,-6.468391,-1.341039,0.248125,-0.171361
32282,-1.555079,-10.225472,-6.466128,-0.676260,0.194522,-0.226001
32283,-1.447109,-10.269089,-6.325697,-0.033674,0.178271,-0.274339
32284,-1.506105,-10.167910,-6.320342,0.494891,0.151529,-0.302656
32285,-1.546515,-10.371021,-6.288601,0.948442,0.123795,-0.327052
32286,-1.391382,-10.603272,-6.333137,1.367370,0.102323,-0.323963
32287,-1.215264,-10.866150,-6.529004,1.788154,0.109560,-0.318349
32288,-1.247253,-11.435296,-6.669488,2.305096,0.095730,-0.335148
32289,-1.141933,-12.035011,-6.710183,2.945442,0.095351,-0.351638
32290,-1.179662,-12.544836,-6.682832,3.692719,0.105128,-0.377214
32291,-1.219218,-12.833999,-6.592255,4.557975,0.107847,-0.408920
32292,-1.270378,-13.033857,-6.424837,5.467661,0.102081,-0.471511
32293,-1.375361,-13.401585,-6.139482,6.390193,0.071999,-0.512811
32294,-1.212546,-13.706727,-5.731246,7.346458,0.027208,-0.547428
32295,-1.009559,-13.451300,-5.640437,8.242159,-0.007053,-0.562606
32296,-0.845528,-12.730716,-5.131327,9.021604,-0.078319,-0.605475
32297,-0.366793,-11.868908,-4.021816,9.595393,-0.167349,-0.618145
32298,0.253897,-10.860570,-2.617179,9.966319,-0.175331,-0.582502
32299,0.376246,-9.541286,-1.231140,10.125840,-0.165878,-0.528214
32300,0.422835,-8.403014,-0.124564,10.061133,-0.140517,-0.477088
32301,0.221272,-7.905226,0.501314,9.950877,-0.086688,-0.420686
32302,0.000469,-7.999415,0.918287,9.915810,-0.043926,-0.368188
32303,0.178373,-7.797384,1.415698,9.949788,-0.018106,-0.304342
32304,0.513056,-6.962700,2.274611,9.956215,0.072179,-0.229728
32305,0.295439,-5.430809,3.615482,9.807261,0.127310,-0.157572
32306,0.273606,-3.901212,4.857706,9.428827,0.175135,-0.081508
32307,0.201627,-2.700694,5.889924,8.872127,0.289140,-0.009131
32308,-0.214378,-1.731149,6.787269,8.242092,0.368535,0.034385
32309,-0.150459,-0.804574,7.068781,7.586475,0.444267,0.067917
32310,-0.428971,-0.049302,7.352676,6.929804,0.508412,0.065730
32311,-0.563982,0.400758,7.519776,6.351761,0.543696,0.056461
32312,-0.899613,1.395313,8.122869,5.761092,0.510354,0.040143
32313,-1.016252,2.789519,9.135256,5.012610,0.421161,0.051062
32314,-0.825446,3.544463,10.014153,4.037653,0.367095,0.111021
32315,-0.748988,3.309209,10.391640,3.017209,0.327737,0.198463
32316,-0.640032,2.677296,10.394672,2.127855,0.301715,0.255943
32317,-0.481215,2.315586,10.219376,1.437913,0.265876,0.268636
32318,-0.449988,2.097317,9.966192,0.893444,0.254928,0.261129
32319,-0.555642,1.670730,9.628689,0.505587,0.236284,0.243177
32320,-0.542499,1.178282,9.326527,0.255697,0.207487,0.216238
32321,-0.521816,0.908519,9.095358,0.147989,0.177151,0.190991
32322,-0.266201,0.795328,9.142599,0.072900,0.170304,0.177486
32323,0.048396,0.545511,9.286650,-0.006792,0.189061,0.212354
32324,0.388471,0.207443,9.379821,-0.062831,0.234964,0.279648
32325,0.475928,-0.051631,9.272608,-0.086061,0.285455,0.383840
32326,0.460836,-0.368719,9.245963,-0.041718,0.336402,0.486211
32327,0.729565,-0.481089,9.359886,0.035875,0.396007,0.585363
32328,1.226805,-0.440587,9.548197,0.102322,0.498447,0.696779
32329,1.697841,-0.232282,9.697663,0.141357,0.638312,0.844097
32330,2.341306,0.008323,9.727650,0.099155,0.812310,1.030915
32331,3.147621,-0.012565,9.440807,-0.037149,1.016586,1.269447
32332,3.891833,-0.408509,9.008942,-0.200617,1.207802,1.535931
32333,4.469442,-0.941643,8.683074,-0.325023,1.376839,1.812209
32334,4.958134,-1.468930,8.315703,-0.391913,1.524573,2.073747
32335,4.891978,-1.791363,8.147376,-0.389186,1.607934,2.308356
32336,4.016750,-2.011802,8.326753,-0.314907,1.639725,2.517478
32337,3.436188,-2.093961,8.608053,-0.195129,1.662563,2.661417
32338,3.735002,-1.803974,8.834940,-0.085799,1.717648,2.776565
32339,4.505858,-1.405127,9.160470,-0.043801,1.832211,2.880761
32340,5.336037,-1.034639,9.221004,-0.092862,1.958034,2.992703
32341,5.381451,-0.365441,9.227044,-0.256150,2.040408,3.110546
32342,4.433313,0.312352,9.229384,-0.542616,2.064747,3.216928
32343,2.736491,0.486090,9.343255,-0.889465,2.028619,3.292587
32344,1.196047,0.296464,9.297842,-1.189920,1.930740,3.308382
32345,0.310969,0.028685,9.250220,-1.346340,1.830836,3.244998
32346,0.287048,0.060425,9.227350,-1.422069,1.738115,3.134257
32347,0.612494,0.402385,9.512582,-1.496076,1.697855,2.992060
32348,0.717751,1.104459,9.501591,-1.689774,1.662557,2.865467
32349,-0.327744,1.794609,9.670059,-1.973312,1.617102,2.771609
32350,-2.145311,1.866602,9.705387,-2.307329,1.510304,2.673458
32351,-3.643855,1.462505,9.691673,-2.572842,1.367730,2.573164
32352,-4.494646,0.980891,9.406573,-2.701971,1.219323,2.449507
32353,-4.786620,0.655997,9.315158,-2.705159,1.088411,2.298083
32354,-4.881667,0.294489,9.235335,-2.635022,0.990222,2.131301
32355,-4.972064,-0.031353,8.841904,-2.478402,0.907105,1.912980
32356,-5.071233,-0.244544,8.748483,-2.274189,0.837019,1.651909
32357,-5.408020,0.525881,8.365590,-2.044981,0.758643,1.354451
32358,-6.014686,1.206631,8.341428,-1.911731,0.649390,1.028909
32359,-6.492937,1.399425,7.610803,-1.850678,0.500298,0.742279
32360,-7.244280,1.618821,7.386115,-1.745970,0.317719,0.447656
32361,-7.966433,1.841405,7.257758,-1.685891,0.119770,0.113365
32362,-8.359197,1.800032,6.874241,-1.698883,-0.099407,-0.242577
32363,-8.511494,2.147936,7.315542,-1.657752,-0.261852,-0.619437
32364,-8.325337,2.501322,8.268087,-1.719283,-0.397770,-1.008071
32365,-7.866120,2.496128,8.600659,-1.848650,-0.473035,-1.388666
32366,-7.761352,2.327813,8.287976,-2.038143,-0.535111,-1.779126
32367,-7.658988,1.726499,7.941325,-2.186018,-0.604239,-2.172598
32368,-7.177607,0.523628,7.243473,-2.247498,-0.656445,-2.562912
32369,-6.888146,-0.896195,6.617499,-2.105691,-0.697992,-2.942865
32370,-6.409839,-1.974925,6.114436,-1.831410,-0.745317,-3.313438
32371,-5.938167,-2.239034,5.703009,-1.521603,-0.797507,-3.647116
32372,-5.695465,-1.945676,5.445741,-1.275308,-0.867019,-3.962190
32373,-5.388617,-1.540482,5.408765,-1.155690,-0.950183,-4.265784
32374,-4.580493,-1.682067,5.370128,-1.133750,-1.046876,-4.520771
32375,-3.743906,-2.154999,5.291031,-1.149563,-1.120553,-4.719901
32376,-3.041438,-2.822887,5.399438,-1.158610,-1.183235,-4.884976
32377,-2.520366,-3.319452,5.529617,-1.160518,-1.240082,-5.024808
32378,-1.912675,-3.501236,5.715217,-1.156405,-1.293659,-5.147583
32379,-1.235342,-3.295740,6.241571,-1.171205,-1.339597,-5.239640
32380,-0.581876,-3.250183,6.691005,-1.303086,-1.364387,-5.299357
32381,0.040673,-3.518017,7.165774,-1.493959,-1.352500,-5.313336
32382,0.591407,-4.010783,7.128608,-1.743718,-1.314470,-5.288060
32383,0.861689,-4.896776,7.025376,-1.936424,-1.250563,-5.241111
32384,1.122726,-6.521328,6.638174,-2.041506,-1.180516,-5.155122
32385,1.121003,-7.172251,6.015652,-1.922207,-1.133029,-5.078788
32386,0.759841,-7.107901,5.712307,-1.717886,-1.132817,-5.023119
32387,0.722235,-6.708555,5.367786,-1.525312,-1.168685,-4.965021
32388,0.812655,-5.946291,4.911674,-1.348894,-1.234566,-4.933012
32389,0.727321,-5.083626,4.435699,-1.216722,-1.340357,-4.924228
32390,1.047759,-5.134836,4.861517,-1.125320,-1.462634,-4.914754
32391,2.630154,-6.699304,5.391932,-1.109676,-1.542862,-4.824509
32392,4.073681,-7.872734,6.104567,-0.925322,-1.563426,-4.678523
32393,5.769876,-11.702798,7.587353,-0.723600,-1.497172,-4.404024
32394,7.165449,-14.574341,7.814105,-0.238274,-1.363385,-4.050838
32395,6.600259,-13.500094,7.675506,0.446876,-1.376580,-3.714133
32396,5.090388,-10.236599,7.376849,0.829915,-1.479623,-3.424196
32397,3.722713,-6.660099,7.233159,0.778478,-1.565298,-3.230457
32398,3.032948,-3.871158,6.987301,0.395707,-1.726252,-3.122842
32399,3.259750,-1.987652,6.533846,-0.177631,-1.918917,-3.068034
32400,4.096131,-1.040989,6.057797,-0.810222,-2.089558,-3.057406
32401,5.137754,-0.963986,5.593718,-1.401738,-2.216354,-3.066029
32402,6.185463,-1.755807,5.278696,-1.824864,-2.295545,-3.107768
32403,7.154213,-3.015271,4.968764,-2.009291,-2.317997,-3.176522
32404,7.835478,-4.097477,4.696428,-1.978203,-2.338889,-3.237515
32405,8.249354,-4.986363,4.350287,-1.821900,-2.367300,-3.280099
32406,8.645588,-5.352016,4.208163,-1.538832,-2.323824,-3.373947
32407,8.790666,-5.294783,4.271073,-1.165039,-2.260471,-3.497462
32408,8.933065,-5.079025,4.214539,-0.737946,-2.198106,-3.611761
32409,8.981846,-4.357215,4.396347,-0.304614,-2.136097,-3.738483
32410,9.703017,-3.182509,5.121373,0.051911,-2.070950,-3.932115
32411,11.655910,-1.889440,5.489937,0.212231,-2.008250,-4.088736
32412,13.556247,-0.623838,5.852934,0.130567,-1.892215,-4.156089
32413,14.630833,0.322389,5.850696,-0.213224,-1.739603,-4.131661
32414,15.087111,0.664468,5.487423,-0.753086,-1.600465,-4.041772
32415,15.263415,0.285193,4.867068,-1.360052,-1.481708,-3.910745
32416,15.683322,-0.645101,4.282256,-1.930017,-1.373803,-3.718852
32417,16.358965,-1.812860,3.614180,-2.375512,-1.274472,-3.442658
32418,16.715289,-2.776875,3.094929,-2.674409,-1.145006,-3.082727
32419,16.599843,-3.452309,2.770102,-2.867167,-1.000908,-2.649667
32420,16.174957,-3.770381,2.559959,-2.995246,-0.872698,-2.157946
32421,15.518263,-3.978239,2.363117,-3.058229,-0.730442,-1.630935
32422,14.561477,-4.307813,2.253798,-2.999716,-0.614206,-1.119322
32423,13.543586,-4.613903,1.945329,-2.725458,-0.524157,-0.671816
32424,12.441633,-4.336314,1.606643,-2.296895,-0.473398,-0.330070
32425,11.720715,-3.864475,1.449992,-1.739385,-0.441642,-0.062200
32426,11.065998,-3.168175,1.388716,-1.113015,-0.405205,0.103180
32427,10.651153,-2.452014,1.542115,-0.539624,-0.367415,0.197583
32428,10.394690,-2.030597,1.645797,-0.055728,-0.311569,0.252982
32429,10.150109,-1.638035,1.661899,0.379729,-0.238360,0.247929
32430,9.819890,-1.491227,1.767461,0.748002,-0.166813,0.225088
32431,9.547889,-1.606041,1.824004,1.039665,-0.119147,0.208909
32432,9.354037,-1.526286,2.042395,1.234984,-0.075964,0.199935
32433,9.277673,-1.424579,2.283333,1.334299,-0.029950,0.193738
32434,9.395357,-1.417303,2.515228,1.324607,0.014485,0.210867
32435,9.482006,-1.344044,2.767420,1.223859,0.052783,0.251456
32436,9.522008,-1.013780,3.076276,1.058804,0.104288,0.285734
32437,9.513994,-0.217252,3.314030,0.803648,0.136679,0.307560
32438,9.479330,0.796160,3.457707,0.440654,0.156161,0.310966
32439,9.371601,1.300424,3.427710,-0.035661,0.153560,0.322531
32440,9.349873,1.130814,3.261117,-0.505158,0.158760,0.338530
32441,9.436483,0.476419,2.990329,-0.861921,0.152598,0.345096
32442,9.597472,-0.239063,2.631433,-1.053762,0.162157,0.363677
32443,9.637584,-0.661814,2.280831,-1.099785,0.165784,0.360420
32444,9.639146,-1.033425,2.004829,-1.068265,0.167322,0.368021
32445,9.702298,-1.372602,1.758472,-0.968868,0.165765,0.371101
32446,9.785525,-1.485109,1.661648,-0.812931,0.160021,0.374048
32447,9.823583,-1.379493,1.579913,-0.646811,0.155482,0.373289
32448,9.947946,-1.313834,1.609887,-0.494833,0.142031,0.376523
32449,9.968088,-1.371882,1.580254,-0.342055,0.137865,0.377999
32450,10.002171,-1.373616,1.574601,-0.175447,0.139830,0.376911
32451,9.996457,-1.301030,1.609679,-0.020219,0.126556,0.383408
32452,10.036590,-1.217571,1.675147,0.104551,0.123602,0.385842
32453,9.961201,-1.218466,1.783825,0.216171,0.117360,0.390539
32454,9.947526,-1.103103,1.926025,0.322507,0.110067,0.397350
32455,9.939393,-0.892619,1.972064,0.395538,0.108559,0.403652
32456,9.814783,-0.440458,2.025312,0.408465,0.103155,0.406393
32457,9.644608,-0.189756,2.087319,0.345138,0.091224,0.405419
32458,9.572626,-0.083131,2.020810,0.265903,0.084487,0.395579
32459,9.418775,0.090227,1.959862,0.186660,0.067211,0.358398
32460,9.347711,-0.062284,1.966624,0.134503,0.060706,0.315685
32461,9.426479,-0.416232,2.042421,0.135036,0.056701,0.268026
32462,9.563993,-0.583413,2.117683,0.177645,0.062634,0.229007
32463,9.559069,-0.456804,2.190719,0.221580,0.077026,0.183015
32464,9.522140,-0.330329,2.274838,0.230756,0.081060,0.138900
32465,9.510772,-0.289532,2.223615,0.194750,0.084898,0.113013
32466,9.517528,-0.222203,2.238992,0.160512,0.086258,0.076522
32467,9.475678,-0.091208,2.190609,0.107499,0.079905,0.042176
32468,9.533790,-0.103461,2.150051,0.052860,0.066484,0.014389
32469,9.628674,-0.274810,1.916066,0.006340,0.048335,-0.001510
32470,9.784402,-0.492381,1.842961,-0.007200,0.034865,-0.013215
32471,9.882156,-0.606665,1.809158,-0.008324,0.028806,-0.021945
32472,9.904118,-0.641913,1.748356,0.012490,0.021856,-0.036309
32473,9.770896,-0.485738,1.810168,0.041077,0.014312,-0.060198
32474,9.602703,-0.394107,1.842333,0.064256,-0.004722,-0.084065
32475,9.632301,-0.326372,1.901518,0.074246,-0.030718,-0.114622
32476,9.692111,-0.415255,1.858128,0.081219,-0.045513,-0.132260
32477,9.747815,-0.541308,1.892131,0.096861,-0.060015,-0.151028
32478,9.714233,-0.682476,1.865753,0.129265,-0.076191,-0.161476
32479,9.678459,-0.679174,1.901743,0.161179,-0.089356,-0.172916
32480,9.704606,-0.714519,1.935306,0.178447,-0.107211,-0.175217
32481,9.700253,-0.675547,1.911696,0.168394,-0.115904,-0.178964
32482,9.664593,-0.653694,1.838955,0.152865,-0.130795,-0.187501
32483,9.622282,-0.720634,1.864667,0.140458,-0.136882,-0.197653
32484,9.687348,-0.725762,1.909314,0.142740,-0.147403,-0.207716
32485,9.723605,-0.775455,1.952238,0.146641,-0.149569,-0.219698
32486,9.708860,-0.831494,2.057286,0.148926,-0.148059,-0.223020
32487,9.729276,-0.830780,2.131031,0.155199,-0.144809,-0.224090
32488,9.745486,-0.864539,2.120985,0.156777,-0.136190,-0.219464
32489,9.734438,-0.882162,2.148824,0.150625,-0.128539,-0.216601
32490,9.712200,-0.854912,2.116252,0.136890,-0.125696,-0.199150
32491,9.603123,-0.802191,2.169284,0.120835,-0.120462,-0.194797
32492,9.559886,-0.829239,2.209582,0.106575,-0.120237,-0.191926
32493,9.638511,-0.905588,2.200429,0.097918,-0.112579,-0.186288
32494,9.722377,-0.972972,2.158930,0.087518,-0.110457,-0.174451
32495,9.756860,-0.998674,2.159624,0.089177,-0.095342,-0.164813
32496,9.745481,-1.023346,2.191761,0.096702,-0.082072,-0.149727
32497,9.700484,-0.914146,2.205317,0.094096,-0.071291,-0.145040
32498,9.784328,-0.921871,2.205224,0.069338,-0.057495,-0.136803
32499,9.784614,-1.008661,2.243478,0.045725,-0.048063,-0.115150
32500,9.831126,-1.049442,2.231287,0.038049,-0.033005,-0.096012
32501,9.699172,-0.909914,2.138297,0.044482,-0.020529,-0.082634
32502,9.579030,-0.790779,2.223799,0.033773,-0.021054,-0.073414
32503,9.629404,-0.813143,2.238817,0.006741,-0.021786,-0.059897
32504,9.713933,-0.971765,2.274317,-0.005664,-0.010814,-0.044195
32505,9.781611,-1.059597,2.202292,-0.001416,-0.003575,-0.023097
32506,9.768914,-0.999762,2.199474,0.011663,0.005344,-0.005265
32507,9.670663,-0.891429,2.145022,0.003905,0.011175,0.011415
32508,9.660548,-0.912586,2.211785,-0.017506,0.013911,0.025418
32509,9.691235,-0.986240,2.106618,-0.020643,0.022447,0.040834
32510,9.618585,-0.934983,2.096526,0.006635,0.031103,0.036997
32511,9.560158,-0.827841,2.105440,0.027947,0.033901,0.036662
