// Start Time: Unknown
// Update Rate: 100.0Hz
// Filter Profile: human (46.1)
// Firmware Version: 4.3.5
PacketCounter,Acc_X,Acc_Y,Acc_Z,Gyr_X,Gyr_Y,Gyr_Z
52371,9.192281,-2.845920,2.251070,0.028611,0.012567,0.021116
52372,9.267691,-2.855998,2.245778,0.025090,0.016749,0.021970
52373,9.310222,-2.826514,2.258805,0.013507,0.023493,0.021815
52374,9.313403,-2.850610,2.251948,0.000867,0.025032,0.023748
52375,9.290401,-2.875724,2.298796,-0.002443,0.026830,0.020997
52376,9.264088,-2.872926,2.277970,-0.003994,0.026687,0.020976
52377,9.270496,-2.909961,2.239232,-0.002586,0.028319,0.021295
52378,9.240948,-2.894031,2.250489,0.006919,0.026788,0.017821
52379,9.211427,-2.877946,2.261804,0.013359,0.024976,0.022119
52380,9.162196,-2.888433,2.263403,0.020790,0.028963,0.021320
52381,9.175185,-2.831780,2.263412,0.015899,0.030917,0.017041
52382,9.174049,-2.832986,2.266510,0.013078,0.027653,0.016401
52383,9.196876,-2.829864,2.270333,0.009421,0.033330,0.017545
52384,9.222924,-2.839694,2.242665,0.004287,0.037969,0.015361
52385,9.200932,-2.858387,2.213785,0.000907,0.040667,0.015909
52386,9.222528,-2.846280,2.195722,0.002520,0.040215,0.018938
52387,9.276908,-2.874094,2.159627,-0.008284,0.038626,0.013964
52388,9.265943,-2.821980,2.159099,-0.005327,0.040398,0.014308
52389,9.268014,-2.836434,2.130804,-0.014903,0.042533,0.014756
52390,9.287312,-2.820992,2.166704,-0.019212,0.038538,0.017093
52391,9.288385,-2.826817,2.115250,-0.025489,0.038872,0.020296
52392,9.310142,-2.815419,2.096141,-0.028233,0.034714,0.016346
52393,9.252258,-2.781993,2.115468,-0.034463,0.034450,0.014739
52394,9.258911,-2.819197,2.076334,-0.040494,0.032102,0.015839
52395,9.277519,-2.794801,2.088223,-0.038728,0.029857,0.012262
52396,9.285289,-2.841042,2.071142,-0.041690,0.028087,0.011910
52397,9.281947,-2.839392,2.126635,-0.042575,0.020796,0.008886
52398,9.304440,-2.827028,2.105814,-0.038073,0.022708,0.001452
52399,9.267841,-2.775180,2.156258,-0.045463,0.018138,-0.002588
52400,9.271979,-2.797782,2.147251,-0.048540,0.017565,-0.008955
52401,9.242650,-2.770798,2.133344,-0.049842,0.014746,-0.011086
52402,9.243632,-2.780020,2.155673,-0.054301,0.012246,-0.016279
52403,9.191513,-2.766073,2.162956,-0.055969,0.013308,-0.022319
52404,9.216761,-2.770334,2.185798,-0.060314,0.009607,-0.021505
52405,9.149639,-2.804479,2.173067,-0.062209,0.013065,-0.031751
52406,9.154695,-2.824867,2.163057,-0.057310,0.010810,-0.033774
52407,9.203557,-2.813862,2.164046,-0.050494,0.004835,-0.039678
52408,9.180658,-2.815402,2.162219,-0.042549,0.003471,-0.044648
52409,9.206782,-2.817072,2.184751,-0.039368,0.002870,-0.047900
52410,9.232142,-2.808731,2.184914,-0.033144,0.003162,-0.054098
52411,9.233767,-2.804122,2.183968,-0.034103,-0.003210,-0.061654
52412,9.235615,-2.798951,2.182785,-0.032645,-0.002157,-0.066135
52413,9.266050,-2.810986,2.172935,-0.030700,-0.006175,-0.068522
52414,9.293960,-2.819668,2.217451,-0.030909,-0.004079,-0.071225
52415,9.247247,-2.813109,2.191778,-0.032237,-0.006591,-0.074870
52416,9.255042,-2.838237,2.203143,-0.030465,-0.008814,-0.078458
52417,9.257516,-2.831551,2.201349,-0.025385,-0.012841,-0.079289
52418,9.261041,-2.834130,2.221961,-0.023903,-0.012085,-0.082268
52419,9.268190,-2.849108,2.210658,-0.017500,-0.013596,-0.079456
52420,9.271828,-2.851328,2.231404,-0.014386,-0.013568,-0.085717
52421,9.276647,-2.862621,2.274500,-0.007603,-0.018927,-0.086828
52422,9.259177,-2.871856,2.239832,-0.004806,-0.015654,-0.086163
52423,9.262036,-2.863884,2.238220,-0.003148,-0.016687,-0.087946
52424,9.247750,-2.901436,2.271055,0.003343,-0.019062,-0.088448
52425,9.277352,-2.891083,2.215872,0.011284,-0.020367,-0.093431
52426,9.244243,-2.954347,2.238407,0.020958,-0.023309,-0.097189
52427,9.209288,-2.998021,2.216202,0.036830,-0.025639,-0.100838
52428,9.217841,-3.009152,2.205473,0.064201,-0.033412,-0.110334
52429,9.223132,-3.006450,2.227066,0.089443,-0.035682,-0.117139
52430,9.213195,-2.927325,2.255000,0.102164,-0.037995,-0.122360
52431,9.192474,-2.794415,2.279154,0.087968,-0.037305,-0.125315
52432,9.233850,-2.717907,2.275677,0.045509,-0.035868,-0.131135
52433,9.309979,-2.690147,2.275467,-0.011468,-0.030512,-0.140780
52434,9.343737,-2.809416,2.215349,-0.061102,-0.020544,-0.146373
52435,9.267230,-3.003666,2.208530,-0.086305,-0.020083,-0.161836
52436,9.249484,-3.230787,2.183657,-0.066886,-0.026740,-0.172703
52437,9.177978,-3.320265,2.192680,-0.023954,-0.033608,-0.185311
52438,9.113602,-3.318076,2.186824,0.041947,-0.049757,-0.193698
52439,9.066201,-3.284142,2.246204,0.090577,-0.065299,-0.198758
52440,9.073977,-3.158390,2.313856,0.124793,-0.077562,-0.196815
52441,9.096374,-2.992759,2.423266,0.124955,-0.079071,-0.189324
52442,9.124650,-2.859275,2.545053,0.093069,-0.073871,-0.178649
52443,9.216824,-2.680516,2.654983,0.011101,-0.055274,-0.169514
52444,9.242426,-2.648836,2.682160,-0.113602,-0.032793,-0.157606
52445,9.246400,-2.757468,2.759533,-0.241734,0.005168,-0.147190
52446,9.215825,-2.848624,2.954057,-0.356824,0.037874,-0.134817
52447,9.216788,-2.974950,3.106591,-0.476709,0.070783,-0.111398
52448,9.241044,-3.018411,3.375187,-0.602802,0.115155,-0.079300
52449,9.233290,-3.126169,3.382025,-0.752458,0.171010,-0.033662
52450,9.163472,-3.407791,3.290537,-0.942838,0.222134,0.025241
52451,9.191113,-4.004462,3.072168,-1.064814,0.261920,0.099996
52452,9.341272,-4.641935,2.979492,-1.084777,0.274153,0.188679
52453,9.380728,-5.063914,2.935810,-1.053303,0.275725,0.300210
52454,9.494486,-5.443244,2.990320,-0.975117,0.267146,0.428604
52455,9.754352,-5.920732,2.855887,-0.820365,0.278627,0.546732
52456,9.803921,-6.192804,2.765809,-0.612472,0.306836,0.701560
52457,9.750394,-6.222257,2.548196,-0.439149,0.346344,0.842199
52458,9.743162,-6.486071,2.525912,-0.293955,0.378785,0.982862
52459,9.708921,-6.610073,2.651234,-0.132683,0.402944,1.122117
52460,9.662715,-6.133451,2.755237,0.004315,0.411133,1.249395
52461,9.611348,-5.683157,2.995357,0.008130,0.429111,1.387431
52462,9.671970,-5.822013,3.456328,-0.078251,0.470723,1.539826
52463,9.417190,-5.974321,3.439913,-0.134325,0.508838,1.661766
52464,9.422244,-6.209079,3.281491,-0.133227,0.515917,1.768175
52465,9.453748,-6.611308,2.905769,-0.100728,0.556539,1.881114
52466,9.274980,-7.009272,2.726158,0.027475,0.576261,1.977622
52467,9.045255,-6.973906,2.674934,0.191244,0.583371,2.051476
52468,8.903406,-6.857086,2.711053,0.325360,0.587777,2.108217
52469,8.733054,-6.860711,2.825218,0.411658,0.623274,2.151625
52470,8.385549,-6.969924,3.140474,0.484626,0.643633,2.183180
52471,8.132834,-7.002074,3.285806,0.557878,0.645975,2.209470
52472,7.907150,-6.971874,3.436894,0.600102,0.662249,2.208965
52473,7.680239,-6.714128,3.417023,0.620133,0.660458,2.191840
52474,7.517116,-6.520173,3.368185,0.620855,0.656521,2.165003
52475,7.302601,-6.547540,3.112896,0.624365,0.663361,2.117540
52476,7.025257,-6.745265,2.843081,0.711546,0.660559,2.053199
52477,6.788912,-6.827283,2.991087,0.849823,0.629362,2.015741
52478,6.677633,-6.872664,3.433252,0.968564,0.608846,1.949581
52479,6.705122,-6.705627,3.891291,1.070699,0.605056,1.877949
52480,6.637508,-6.210183,4.196654,1.075452,0.607651,1.815001
52481,6.558642,-6.054857,4.051678,0.994081,0.617938,1.748670
52482,6.313868,-6.180691,3.605384,0.957851,0.592257,1.667093
52483,6.161141,-6.444581,3.407402,0.984206,0.543849,1.586975
52484,6.026852,-6.631082,3.431754,1.070002,0.496968,1.501981
52485,5.900327,-6.404531,3.587080,1.182095,0.445867,1.408314
52486,5.771955,-6.002483,3.591577,1.246298,0.410635,1.302809
52487,5.573082,-5.402325,3.549853,1.265582,0.369803,1.191372
52488,5.120150,-5.003285,3.117191,1.218404,0.319454,1.068016
52489,4.788695,-4.806376,2.816276,1.136798,0.245495,0.937170
52490,4.611181,-4.494758,2.953647,1.031342,0.161840,0.802550
52491,4.739815,-4.193077,3.237088,0.862117,0.092606,0.668390
52492,4.939205,-4.385796,3.456264,0.688266,0.064059,0.524073
52493,4.962724,-4.773950,3.429886,0.591126,0.028072,0.396417
52494,5.113487,-4.919971,3.282522,0.574570,-0.012377,0.255276
52495,5.278491,-4.857916,3.332363,0.560671,-0.048255,0.121491
52496,5.414420,-4.509610,3.623739,0.466229,-0.069502,0.002226
52497,5.751449,-4.413500,3.698559,0.289044,-0.081917,-0.103641
52498,6.175076,-4.672243,3.551594,0.113270,-0.071025,-0.197289
52499,6.440357,-5.097593,3.308160,0.014938,-0.068005,-0.281497
52500,6.624098,-5.243678,3.285850,0.007334,-0.084414,-0.352099
52501,6.816042,-4.889188,3.346450,-0.019229,-0.106805,-0.399807
52502,6.877054,-4.546808,3.376820,-0.152918,-0.114907,-0.424885
52503,6.868237,-4.548484,3.183082,-0.322386,-0.119303,-0.439743
52504,6.902825,-4.669928,2.896892,-0.453975,-0.143382,-0.453295
52505,6.922945,-4.598696,2.764661,-0.542253,-0.182472,-0.456417
52506,6.927960,-4.453301,2.926533,-0.648365,-0.207715,-0.463927
52507,6.867600,-4.510175,3.098744,-0.763208,-0.223218,-0.477782
52508,6.918062,-4.689631,3.225893,-0.843020,-0.246070,-0.481913
52509,7.108777,-4.891184,3.311793,-0.879546,-0.240289,-0.508309
52510,7.198223,-4.907903,3.214169,-0.856238,-0.210573,-0.547108
52511,7.220948,-4.367839,2.911425,-0.834052,-0.199686,-0.594866
52512,7.216275,-3.655259,3.158660,-0.929717,-0.186415,-0.621090
52513,7.301649,-3.397433,3.354170,-1.190353,-0.163215,-0.631174
52514,7.426527,-3.771433,3.410937,-1.482798,-0.144839,-0.615875
52515,7.578912,-4.390083,3.707046,-1.704804,-0.130826,-0.586559
52516,7.845663,-5.360234,3.687667,-1.826153,-0.106242,-0.531995
52517,7.927062,-6.267782,3.428112,-1.749918,-0.093491,-0.471056
52518,7.779810,-6.717518,3.016561,-1.507512,-0.079295,-0.430673
52519,7.653235,-6.796972,2.838222,-1.175733,-0.097500,-0.392740
52520,7.723926,-6.587937,2.941443,-0.874359,-0.104263,-0.357755
52521,7.748237,-6.411993,2.981101,-0.659594,-0.099352,-0.310865
52522,7.735783,-6.189649,3.236503,-0.526306,-0.105457,-0.252515
52523,7.801190,-6.254098,3.601679,-0.502925,-0.095720,-0.198000
52524,7.934907,-6.562738,3.584181,-0.475043,-0.093234,-0.134954
52525,7.759660,-6.586938,3.311154,-0.369926,-0.114910,-0.087475
52526,7.688747,-5.927732,3.404932,-0.337492,-0.145571,-0.035978
52527,7.780389,-5.588473,3.416594,-0.402443,-0.129414,-0.012359
52528,7.823442,-5.466005,3.374841,-0.471217,-0.068924,-0.007686
52529,7.693285,-5.726096,3.162261,-0.480263,-0.019959,-0.008712
52530,7.733690,-6.665782,3.089612,-0.400471,0.036671,-0.002608
52531,7.627799,-7.154566,3.069452,-0.158842,0.047936,-0.008047
52532,7.876695,-6.777746,3.861387,0.024417,0.021508,0.025681
52533,7.926843,-5.916968,4.001430,-0.031185,0.021169,0.073907
52534,7.854644,-5.510679,3.746900,-0.204570,0.008156,0.137090
52535,7.752669,-5.639747,3.537409,-0.369599,-0.013944,0.188160
52536,7.567515,-6.210081,3.114796,-0.404393,-0.030044,0.219644
52537,7.435982,-6.288568,3.222863,-0.290528,-0.073361,0.233945
52538,7.530146,-6.289259,2.966506,-0.155241,-0.103921,0.230123
52539,7.723960,-6.261665,2.904458,0.048378,-0.119633,0.216433
52540,7.804236,-6.264864,2.853673,0.216854,-0.128113,0.222124
52541,7.963233,-6.255963,2.814134,0.306080,-0.132842,0.264540
52542,7.962775,-6.080116,2.775174,0.298649,-0.133592,0.319201
52543,8.028158,-6.040928,2.582703,0.219920,-0.136857,0.381505
52544,7.995155,-6.039429,2.424336,0.178624,-0.153604,0.448732
52545,7.958101,-6.173823,2.456462,0.147680,-0.163450,0.515780
52546,7.928246,-6.282124,2.476947,0.149622,-0.178781,0.568390
52547,7.824934,-6.335947,2.415437,0.176675,-0.202198,0.614515
52548,7.851099,-6.263225,2.427633,0.225577,-0.239611,0.660371
52549,7.887524,-6.105611,2.536177,0.250893,-0.272782,0.694718
52550,7.931694,-6.228679,2.524999,0.247484,-0.286637,0.725041
52551,7.894344,-6.431057,2.371291,0.274885,-0.309067,0.752715
52552,7.724951,-6.612248,2.241417,0.312646,-0.319507,0.762168
52553,7.390642,-6.894844,2.074017,0.371300,-0.340998,0.756009
52554,7.236186,-6.818701,2.061057,0.456458,-0.383675,0.739177
52555,7.204094,-6.522317,2.282695,0.467764,-0.421985,0.718882
52556,7.260307,-6.337850,2.397795,0.428749,-0.445039,0.687657
52557,7.112448,-6.426743,2.334016,0.364779,-0.454611,0.657793
52558,6.878868,-6.576309,2.161670,0.335892,-0.490900,0.628449
52559,6.713123,-6.743257,2.165502,0.336033,-0.534917,0.596428
52560,6.584727,-6.773526,2.281842,0.340055,-0.584074,0.562397
52561,6.488607,-6.854373,2.250243,0.327063,-0.633679,0.521668
52562,6.294461,-6.955618,2.285452,0.341347,-0.689760,0.479830
52563,6.184016,-7.122309,2.483560,0.426644,-0.744557,0.427303
52564,6.284842,-7.254153,2.649684,0.527668,-0.773824,0.373377
52565,6.199263,-7.212312,2.794841,0.605350,-0.772553,0.322510
52566,5.970845,-7.088477,2.901263,0.644302,-0.777153,0.264866
52567,5.754617,-7.010783,2.995716,0.636367,-0.787601,0.218918
52568,5.739942,-7.067818,2.967013,0.584014,-0.805461,0.173829
52569,5.639124,-7.144421,2.932782,0.526576,-0.816271,0.129671
52570,5.607742,-7.403803,3.016364,0.479158,-0.828796,0.092679
52571,5.788660,-7.632458,3.025899,0.461205,-0.840753,0.044302
52572,5.839116,-7.714890,2.862861,0.461371,-0.830454,0.001038
52573,5.900884,-7.868860,2.812643,0.471752,-0.831695,-0.022683
52574,5.958977,-8.086633,2.797933,0.494380,-0.823929,-0.039407
52575,5.980460,-8.007285,2.856769,0.526390,-0.814226,-0.050532
52576,5.990264,-8.012946,2.943394,0.518004,-0.797982,-0.050981
52577,6.084645,-8.083271,2.951871,0.482810,-0.778182,-0.038547
52578,6.052771,-8.134610,2.967395,0.442254,-0.760998,-0.022090
52579,6.055650,-8.288019,2.988979,0.396506,-0.751899,0.004014
52580,6.029970,-8.440258,3.031453,0.358484,-0.741120,0.041823
52581,6.071209,-8.560427,3.040703,0.323371,-0.732399,0.079561
52582,6.134718,-8.606957,3.221295,0.301691,-0.711288,0.122683
52583,6.091269,-8.655330,3.362457,0.285291,-0.680344,0.167228
52584,5.929030,-8.668767,3.449110,0.276010,-0.637417,0.218166
52585,5.882701,-8.891534,3.610797,0.284004,-0.588323,0.267255
52586,5.870817,-9.088030,3.714628,0.324314,-0.528518,0.315462
52587,5.800172,-9.097696,3.935920,0.371322,-0.461435,0.356658
52588,5.813881,-9.205267,4.179021,0.378053,-0.383852,0.408511
52589,5.849624,-9.190875,4.429920,0.366886,-0.295903,0.459194
52590,5.874770,-9.246153,4.619393,0.298967,-0.187113,0.519686
52591,5.693604,-9.436687,4.816981,0.281963,-0.063355,0.573673
52592,5.514502,-9.426976,4.961770,0.300386,0.042549,0.634577
52593,5.481090,-9.538200,5.181875,0.277279,0.168340,0.716740
52594,5.300668,-9.702038,5.283847,0.236589,0.288302,0.821409
52595,5.072222,-10.088177,5.420962,0.184977,0.416512,0.936168
52596,5.071489,-10.746206,5.319603,0.178649,0.504816,1.063051
52597,5.069289,-11.139688,5.329823,0.270458,0.570215,1.198481
52598,5.026342,-11.352211,5.432180,0.300573,0.642879,1.334576
52599,4.801806,-11.347115,5.556173,0.315447,0.712123,1.499119
52600,4.823774,-11.459889,5.753475,0.268124,0.785339,1.649202
52601,4.649678,-11.695926,5.761565,0.308297,0.872262,1.798794
52602,4.400930,-11.400745,5.874135,0.390442,0.931236,1.937272
52603,4.143239,-11.486807,6.088168,0.378830,1.040446,2.087279
52604,3.960915,-11.612108,6.196106,0.420469,1.110255,2.241077
52605,3.766686,-11.570168,6.208425,0.437861,1.189230,2.384840
52606,3.558802,-11.433499,6.083962,0.448134,1.242585,2.544198
52607,3.429103,-11.356098,6.126288,0.413373,1.300847,2.705494
52608,3.257871,-11.663037,5.974255,0.359319,1.363278,2.880967
52609,3.128110,-11.959303,5.873097,0.384257,1.396277,3.048386
52610,2.991481,-12.165231,5.927136,0.491977,1.418742,3.211706
52611,2.871673,-12.243374,5.791632,0.617492,1.452970,3.370810
52612,2.544158,-11.900457,5.910605,0.760325,1.493041,3.517461
52613,2.343104,-11.927382,5.712624,0.824642,1.545053,3.679465
52614,2.061524,-11.355049,5.833770,0.927508,1.572291,3.825552
52615,1.704520,-11.146519,5.688933,0.920667,1.635718,3.967882
52616,1.363389,-10.937055,5.518809,0.987449,1.668683,4.088977
52617,0.819264,-10.588223,5.247555,1.060113,1.706126,4.210218
52618,0.397282,-10.209607,5.438720,1.148216,1.720398,4.318111
52619,0.206989,-10.153396,5.423125,1.211697,1.740879,4.417457
52620,-0.001721,-10.153235,5.367640,1.315761,1.772294,4.516335
52621,-0.238392,-9.754068,5.312476,1.483603,1.797789,4.594100
52622,-0.656039,-9.089496,5.059117,1.614418,1.839782,4.640814
52623,-1.073062,-8.759207,4.724986,1.719915,1.906195,4.687004
52624,-1.578734,-8.336087,4.205666,1.905996,1.930368,4.701767
52625,-1.989718,-7.924762,3.797491,2.102142,1.962246,4.699829
52626,-2.473467,-7.674403,3.454925,2.291865,1.988512,4.698966
52627,-2.856548,-7.375777,3.436788,2.511162,1.986772,4.678978
52628,-3.016370,-7.065110,3.029425,2.732852,1.986245,4.660325
52629,-3.242583,-6.082737,3.144795,3.011437,1.985037,4.585743
52630,-3.525221,-5.151293,3.184114,3.137853,2.023312,4.505311
52631,-3.878320,-4.198178,2.971032,3.230456,2.042746,4.408720
52632,-4.399838,-3.337141,3.104488,3.284667,2.092060,4.286521
52633,-5.025702,-2.642382,3.090684,3.266791,2.120816,4.136656
52634,-5.376651,-2.272328,3.039428,3.213721,2.117272,3.965513
52635,-5.377649,-2.179252,2.844864,3.118335,2.123224,3.799544
52636,-5.559363,-1.802453,2.775586,3.067596,2.113482,3.615390
52637,-5.779195,-1.274728,2.831087,2.986449,2.099753,3.420944
52638,-6.033003,-0.573284,2.781191,2.850868,2.060590,3.210368
52639,-6.169886,0.296496,2.637584,2.678163,2.009479,2.990613
52640,-6.436086,1.444373,2.432206,2.419498,1.943769,2.776147
52641,-6.784003,2.335699,2.538518,2.077437,1.892374,2.529733
52642,-6.862671,2.193065,2.483855,1.660481,1.841770,2.291319
52643,-6.662173,1.331336,2.550698,1.435333,1.773813,2.074924
52644,-6.616893,0.463897,2.896825,1.310106,1.702642,1.900174
52645,-6.575217,0.105883,3.069057,1.244266,1.598635,1.753626
52646,-6.634615,0.288355,3.379045,1.158045,1.509877,1.615010
52647,-6.571264,0.393218,3.444297,0.981445,1.435849,1.508010
52648,-6.492166,0.425162,3.388208,0.794638,1.378938,1.412368
52649,-6.502208,0.119562,3.075199,0.643473,1.325651,1.327609
52650,-6.534678,-0.109152,2.635851,0.592692,1.250651,1.250329
52651,-6.691700,0.003522,2.341294,0.632513,1.158567,1.176644
52652,-6.743566,0.333149,2.226662,0.669718,1.059417,1.106459
52653,-6.666942,0.748814,2.219716,0.676686,0.956151,1.035108
52654,-6.657226,1.090170,2.334603,0.625451,0.887855,0.960366
52655,-6.650619,1.341595,2.284598,0.538079,0.810786,0.885251
52656,-6.726029,1.623485,2.347794,0.447223,0.736868,0.809531
52657,-6.714733,1.851811,2.339428,0.314660,0.664997,0.727889
52658,-6.683644,1.874172,2.324326,0.169085,0.606662,0.647369
52659,-6.692298,1.798369,2.144629,0.072344,0.552760,0.555017
52660,-6.939360,1.832518,2.113066,0.010978,0.482878,0.466243
52661,-7.000005,1.874026,2.005910,-0.012672,0.395732,0.371111
52662,-6.926028,1.940363,1.931244,-0.058535,0.324582,0.272416
52663,-6.924932,1.930751,1.907150,-0.084309,0.247621,0.172206
52664,-6.902000,2.006417,1.825897,-0.106863,0.167430,0.063733
52665,-6.735680,2.149097,1.809123,-0.130322,0.092190,-0.058836
52666,-6.558770,2.247621,1.845678,-0.166018,0.008439,-0.186347
52667,-6.322768,2.356491,1.938836,-0.222352,-0.069118,-0.314569
52668,-6.205643,2.509595,1.981866,-0.303200,-0.153259,-0.447037
52669,-6.113187,2.589882,1.976458,-0.390250,-0.233794,-0.569239
52670,-6.325932,2.585804,2.042570,-0.490207,-0.304541,-0.693223
52671,-6.519537,2.411664,1.949843,-0.578708,-0.387926,-0.824927
52672,-6.514978,2.176193,1.857063,-0.644814,-0.481220,-0.969037
52673,-6.446724,2.018067,1.765791,-0.692100,-0.585621,-1.117836
52674,-6.293889,1.813511,1.858248,-0.741301,-0.690608,-1.273691
52675,-6.179522,1.587356,1.890693,-0.794016,-0.794662,-1.433714
52676,-6.270121,1.394400,2.012020,-0.846908,-0.882311,-1.579953
52677,-6.608795,1.297554,2.213370,-0.918775,-0.969769,-1.716952
52678,-6.955703,1.146853,2.270293,-1.016130,-1.055341,-1.843220
52679,-7.051742,0.795673,2.321850,-1.098932,-1.156911,-1.956941
52680,-6.994173,0.460378,2.316928,-1.153859,-1.267016,-2.070749
52681,-6.936580,0.203319,2.437636,-1.177623,-1.379961,-2.175051
52682,-6.879512,-0.071852,2.779814,-1.184908,-1.489167,-2.274293
52683,-6.845522,-0.320099,3.066917,-1.197812,-1.586488,-2.373013
52684,-6.994100,-0.645075,3.419081,-1.214680,-1.641811,-2.468664
52685,-7.218194,-1.181396,3.684538,-1.236312,-1.701222,-2.551739
52686,-7.431867,-1.672018,3.795290,-1.268404,-1.748367,-2.620722
52687,-7.430350,-2.200137,4.022509,-1.294607,-1.795324,-2.696939
52688,-7.307669,-2.685172,4.368869,-1.293442,-1.832722,-2.766827
52689,-7.079595,-3.076729,4.895789,-1.261319,-1.857861,-2.816771
52690,-6.856031,-3.425334,5.506122,-1.211449,-1.858285,-2.854467
52691,-6.895798,-3.746806,5.933652,-1.168055,-1.838849,-2.862860
52692,-7.013990,-3.969570,6.028595,-1.125381,-1.805220,-2.868261
52693,-7.124620,-4.027976,5.933433,-1.111382,-1.800552,-2.865844
52694,-7.180582,-4.234085,5.809848,-1.132199,-1.784850,-2.865552
52695,-6.979761,-4.778803,5.603100,-1.186236,-1.773861,-2.864057
52696,-6.876679,-5.286060,5.518487,-1.147740,-1.784294,-2.864720
52697,-6.669620,-5.442719,5.637314,-1.098663,-1.811754,-2.865449
52698,-6.224774,-5.730507,5.986957,-1.094637,-1.811714,-2.850656
52699,-5.767448,-6.094797,6.367386,-1.061050,-1.804706,-2.837089
52700,-5.505432,-6.175191,6.778026,-0.991466,-1.783700,-2.807915
52701,-5.322903,-6.280891,6.930363,-0.942392,-1.746409,-2.772116
52702,-5.120077,-6.455640,6.907347,-0.872250,-1.707842,-2.729868
52703,-4.885623,-6.725433,6.991150,-0.803106,-1.656116,-2.706791
52704,-4.617935,-7.095717,6.964141,-0.726272,-1.604594,-2.689313
52705,-4.240135,-7.516692,7.258183,-0.575361,-1.550445,-2.667709
52706,-3.989623,-7.610966,7.649366,-0.381304,-1.511288,-2.643713
52707,-3.685459,-7.441508,8.052803,-0.199444,-1.486161,-2.599769
52708,-3.548443,-7.224593,8.273816,-0.072134,-1.433903,-2.542804
52709,-3.644445,-6.878425,8.418636,0.020977,-1.403746,-2.449810
52710,-3.745128,-6.715183,8.658108,0.010913,-1.370976,-2.346890
52711,-3.784508,-6.661332,8.910040,-0.023374,-1.356870,-2.241650
52712,-3.842883,-6.616871,9.123855,-0.065572,-1.346307,-2.162476
52713,-3.785754,-6.816786,9.350487,-0.114190,-1.313815,-2.091314
52714,-3.694817,-7.015183,9.308925,-0.113920,-1.281328,-2.038099
52715,-3.616776,-6.994326,9.184703,-0.074661,-1.237141,-1.996003
52716,-3.518925,-6.750505,8.914858,-0.041389,-1.194481,-1.971253
52717,-3.434250,-6.322626,8.719504,-0.055209,-1.139135,-1.957507
52718,-3.405817,-6.014936,8.465209,-0.125084,-1.087010,-1.945462
52719,-3.297876,-5.900177,8.376755,-0.247671,-1.033135,-1.924044
52720,-3.181583,-5.853744,8.136125,-0.393735,-0.993739,-1.905128
52721,-3.162847,-5.763171,7.933818,-0.574514,-0.949692,-1.887430
52722,-3.131689,-5.947901,7.656240,-0.794945,-0.891670,-1.877601
52723,-3.190067,-6.447305,7.041730,-0.960309,-0.805968,-1.887467
52724,-3.511114,-6.915214,6.457893,-0.981827,-0.739803,-1.906113
52725,-3.636892,-7.235153,6.018964,-0.873866,-0.704981,-1.940345
52726,-3.364782,-7.412432,5.650190,-0.695502,-0.695815,-1.961427
52727,-3.013940,-7.613065,5.602279,-0.520873,-0.660681,-1.957138
52728,-2.646426,-7.861846,5.386766,-0.373563,-0.646786,-1.924191
52729,-2.207355,-7.773986,5.421159,-0.284173,-0.661350,-1.844168
52730,-1.873520,-7.551922,5.375441,-0.353423,-0.645620,-1.762344
52731,-1.744577,-7.580590,5.274967,-0.478366,-0.618499,-1.695595
52732,-1.629323,-7.795045,5.112894,-0.571813,-0.593966,-1.674891
52733,-1.320930,-7.981231,5.176875,-0.577924,-0.584872,-1.670817
52734,-1.004614,-7.978601,5.289494,-0.597721,-0.565010,-1.675486
52735,-0.569248,-7.700731,5.471555,-0.665519,-0.548234,-1.670946
52736,0.072520,-7.721969,5.599765,-0.873120,-0.497588,-1.642709
52737,0.602568,-8.259898,5.464866,-1.100762,-0.413555,-1.622164
52738,0.996332,-9.256496,5.221110,-1.163538,-0.347117,-1.595895
52739,1.230778,-9.959284,5.040040,-0.969923,-0.313690,-1.567851
52740,1.488716,-10.127747,5.333432,-0.641043,-0.285811,-1.572271
52741,1.846406,-9.927110,5.603029,-0.358610,-0.242819,-1.580319
52742,2.253323,-9.508050,5.917077,-0.182304,-0.185848,-1.565516
52743,2.649980,-9.353889,6.036992,-0.168229,-0.103921,-1.531470
52744,3.011645,-9.489601,5.989213,-0.219510,-0.024639,-1.484950
52745,3.280925,-9.496845,6.112790,-0.242132,0.037045,-1.424946
52746,3.400436,-9.386907,6.438883,-0.277923,0.113300,-1.381921
52747,3.669427,-9.696099,6.461350,-0.270363,0.206919,-1.363742
52748,3.870804,-9.952914,6.297209,-0.129025,0.295137,-1.375737
52749,4.010852,-9.676588,6.185682,0.018513,0.347454,-1.379017
52750,3.980415,-8.821021,5.913969,0.049000,0.368494,-1.375579
52751,3.879923,-7.866854,5.753721,-0.086843,0.367497,-1.369977
52752,3.745129,-7.183595,5.314091,-0.355548,0.332080,-1.349488
52753,4.140617,-6.965619,5.078785,-0.614266,0.279778,-1.333292
52754,4.681989,-7.530693,5.123416,-0.821482,0.270322,-1.307757
52755,5.074810,-8.563912,4.944934,-0.847820,0.283391,-1.311026
52756,5.423426,-9.160236,4.931989,-0.637693,0.259151,-1.284984
52757,5.497507,-8.769460,5.142864,-0.427099,0.244268,-1.264926
52758,5.495565,-8.168222,5.167823,-0.347630,0.219237,-1.232921
52759,5.433480,-7.544830,5.260875,-0.372609,0.197137,-1.213523
52760,5.392938,-7.015685,5.163699,-0.486058,0.172252,-1.197127
52761,5.405045,-6.585523,4.941054,-0.612551,0.142791,-1.190749
52762,5.446161,-6.256410,4.716729,-0.731672,0.122748,-1.186272
52763,5.570973,-6.472698,4.323931,-0.797710,0.117451,-1.196655
52764,5.604309,-6.999658,4.064167,-0.724967,0.114350,-1.193138
52765,5.632330,-7.337003,4.057537,-0.558164,0.077705,-1.172086
52766,5.744776,-7.239752,4.080169,-0.423287,0.041180,-1.150711
52767,5.884538,-6.992670,4.129533,-0.362093,-0.010095,-1.119507
52768,6.032085,-6.796341,4.230203,-0.384598,-0.045521,-1.072626
52769,6.172400,-7.003504,4.113308,-0.402737,-0.060141,-1.042542
52770,6.232086,-7.402900,3.929560,-0.313035,-0.087684,-1.016848
52771,6.134705,-7.339390,3.791473,-0.140016,-0.128282,-0.993260
52772,5.973766,-6.842014,3.834937,0.002668,-0.180790,-0.970577
52773,6.077969,-6.650239,3.877761,0.056510,-0.219084,-0.947175
52774,6.346955,-6.623363,4.041045,0.097135,-0.249566,-0.899922
52775,6.504466,-6.637211,4.305885,0.093441,-0.250714,-0.855631
52776,6.613139,-6.537687,4.439678,0.063456,-0.235866,-0.818982
52777,6.592996,-6.412719,4.491886,-0.014325,-0.219507,-0.772768
52778,6.466676,-6.369850,4.302310,-0.112968,-0.208434,-0.728413
52779,6.477974,-6.434609,4.227641,-0.183170,-0.211557,-0.699698
52780,6.626136,-6.624973,4.259572,-0.203785,-0.218554,-0.658558
52781,6.690707,-6.586591,4.350676,-0.196664,-0.217023,-0.623249
52782,6.747462,-6.509377,4.341410,-0.187115,-0.209494,-0.588086
52783,6.723821,-6.339020,4.329137,-0.164830,-0.207717,-0.556276
52784,6.711635,-6.221577,4.308958,-0.150149,-0.200900,-0.539384
52785,6.699261,-6.143320,4.250799,-0.149435,-0.198077,-0.517952
52786,6.722395,-6.124725,4.189985,-0.155122,-0.204712,-0.493075
52787,6.724007,-6.170913,4.292910,-0.179550,-0.208011,-0.475867
52788,6.796786,-6.361757,4.461377,-0.157177,-0.202247,-0.457882
52789,6.848255,-6.394464,4.508934,-0.128969,-0.193205,-0.435124
52790,6.944574,-6.221665,4.426123,-0.115580,-0.187645,-0.410993
52791,7.021161,-6.058392,4.306147,-0.127113,-0.178052,-0.395399
52792,7.073979,-5.993632,4.171036,-0.146070,-0.171745,-0.375392
52793,7.097094,-6.078650,4.083262,-0.143893,-0.166904,-0.350304
52794,7.069691,-6.065315,3.900423,-0.091522,-0.175519,-0.329933
52795,7.617098,-5.535781,4.804976,-0.088586,-0.207120,-0.219786
52796,8.014254,-6.052152,5.329127,-0.532871,-0.072022,-0.093180
52797,7.560643,-7.577715,4.107700,-0.685023,0.053556,-0.053001
52798,6.839510,-7.718740,3.760654,-0.273840,0.002656,-0.053192
52799,6.689631,-6.494294,4.231364,0.016761,-0.086355,0.021033
52800,7.124676,-5.692173,4.591569,-0.044659,-0.077031,0.051810
52801,7.105000,-6.658282,4.020393,-0.104745,-0.006546,0.044013
52802,6.959203,-6.943168,3.911298,0.168098,-0.061411,0.047120
52803,7.108612,-6.231997,4.107939,0.362776,-0.088258,0.050134
52804,7.305097,-5.584905,4.271506,0.412104,-0.068536,0.030800
52805,7.335703,-5.323197,4.142341,0.419730,-0.012011,-0.020397
52806,7.146842,-4.533200,4.472938,0.387974,-0.057239,0.010058
52807,7.420664,-4.263785,4.404788,0.033005,-0.019204,0.027393
52808,7.326288,-4.997249,3.939015,-0.169036,0.025818,0.023211
52809,7.097310,-5.325006,3.809939,-0.166102,0.015354,0.018630
52810,7.097379,-5.125905,3.628140,-0.081211,-0.008101,0.008282
52811,7.209215,-4.789495,3.541254,-0.038109,-0.019966,-0.000767
52812,7.263970,-4.728164,3.499584,-0.013445,-0.018396,0.003750
52813,7.375046,-4.779508,3.523936,0.013950,-0.018792,0.000462
52814,7.508784,-4.769888,3.524999,0.052881,-0.025827,0.018455
52815,7.559559,-4.855342,3.460186,0.075504,-0.027523,0.033072
52816,7.470580,-4.935528,3.425959,0.095166,-0.031623,0.045157
52817,7.384386,-4.992794,3.401803,0.125997,-0.042173,0.043735
52818,7.383421,-5.122993,3.468969,0.166827,-0.060338,0.044204
52819,7.544851,-5.156263,3.773329,0.196048,-0.075141,0.049645
52820,7.892955,-5.249997,4.103591,0.190464,-0.052480,0.067066
52821,8.229928,-5.352994,4.457603,0.173274,-0.006418,0.100942
52822,8.355857,-5.245982,4.807184,0.096239,0.064989,0.157578
52823,8.429335,-4.880631,4.762153,-0.071250,0.142543,0.220339
52824,8.235717,-4.446800,4.526757,-0.341078,0.209755,0.274670
52825,7.894761,-4.352936,4.223007,-0.655557,0.270242,0.297901
52826,7.592736,-4.823484,3.893693,-0.901845,0.323537,0.276318
52827,7.112190,-5.668024,3.616056,-0.976970,0.358226,0.222714
52828,6.860346,-6.218808,3.525280,-0.866008,0.351904,0.151317
52829,6.632754,-6.294526,3.534597,-0.724805,0.325237,0.070084
52830,6.486475,-6.326123,3.509424,-0.597148,0.290040,-0.009095
52831,6.263874,-6.324142,3.518565,-0.494088,0.246019,-0.078790
52832,6.104611,-6.354915,3.480944,-0.406853,0.168752,-0.140976
52833,6.085669,-6.372175,3.448504,-0.304308,0.086412,-0.201635
52834,6.017330,-6.455972,3.361700,-0.181114,-0.000609,-0.272434
52835,6.105436,-6.573135,3.441172,0.009440,-0.095027,-0.340592
52836,6.190241,-6.414975,3.547867,0.182753,-0.166777,-0.415116
52837,6.165589,-6.361346,3.589766,0.313514,-0.216291,-0.489455
52838,6.229922,-6.265567,3.486441,0.428276,-0.266679,-0.565256
52839,6.273419,-6.176912,3.538487,0.490026,-0.309886,-0.626671
52840,6.164242,-6.099863,3.489576,0.514699,-0.341341,-0.688881
52841,6.167398,-6.172401,3.394626,0.544785,-0.378246,-0.749564
52842,6.053013,-6.320977,3.388840,0.607220,-0.410782,-0.813204
52843,6.084000,-6.487219,3.350373,0.729029,-0.461055,-0.873539
52844,6.245485,-6.571884,3.313080,0.907685,-0.500765,-0.941381
52845,6.325583,-6.685265,3.211259,1.126754,-0.540115,-1.020123
52846,6.484822,-6.671981,3.222203,1.404826,-0.572570,-1.097903
52847,6.722008,-6.502487,3.350152,1.659752,-0.604879,-1.167058
52848,6.802988,-6.068602,3.541881,1.819766,-0.637127,-1.206975
52849,6.762702,-5.524113,3.826064,1.847090,-0.660833,-1.227607
52850,6.539456,-5.200941,4.180866,1.771805,-0.682368,-1.237508
52851,6.474447,-5.034549,4.443461,1.621484,-0.726158,-1.245150
52852,6.668923,-4.842662,4.588651,1.436899,-0.764088,-1.243326
52853,6.893910,-4.814054,4.655429,1.200180,-0.783345,-1.235500
52854,7.118111,-4.984201,4.580517,1.006932,-0.796521,-1.232906
52855,7.414362,-5.214363,4.527100,0.873864,-0.796777,-1.236228
52856,7.646751,-5.366225,4.343677,0.800397,-0.795817,-1.244473
52857,7.825002,-5.428363,4.192631,0.764132,-0.793595,-1.252899
52858,7.909542,-5.414142,4.013064,0.755389,-0.791650,-1.258413
52859,8.003671,-5.289405,4.014095,0.758864,-0.788355,-1.247186
52860,8.087801,-5.121667,4.047113,0.757857,-0.785145,-1.236506
52861,8.001148,-4.962850,4.047617,0.740595,-0.775686,-1.217476
52862,7.999202,-4.918232,4.014781,0.743075,-0.777055,-1.207126
52863,8.039730,-4.823635,4.000468,0.779400,-0.780253,-1.194329
52864,8.045836,-4.687745,4.016054,0.821667,-0.778391,-1.180857
52865,7.995805,-4.509032,4.033967,0.858190,-0.779457,-1.169891
52866,8.080787,-4.266524,4.080122,0.877256,-0.785190,-1.168433
52867,8.204428,-4.138047,4.107603,0.881466,-0.780068,-1.160989
52868,8.305784,-3.861323,4.129546,0.853405,-0.779425,-1.146609
52869,8.428260,-3.609166,4.168892,0.785442,-0.770572,-1.142815
52870,8.557143,-3.402735,4.171217,0.686167,-0.762890,-1.123404
52871,8.557861,-3.143697,4.315282,0.550637,-0.745524,-1.099808
52872,8.531115,-2.986371,4.365717,0.387673,-0.731910,-1.070760
52873,8.541005,-2.905434,4.405440,0.223472,-0.719036,-1.045690
52874,8.738861,-2.889060,4.417805,0.073036,-0.703714,-1.025499
52875,8.953736,-2.944501,4.392577,-0.043290,-0.677944,-1.001570
52876,9.155423,-2.965465,4.443129,-0.137570,-0.641921,-0.986772
52877,9.281597,-2.972618,4.419035,-0.218710,-0.602079,-0.966461
52878,9.346227,-2.955591,4.447628,-0.299025,-0.558066,-0.943970
52879,9.428326,-3.010770,4.443168,-0.379696,-0.513529,-0.913395
52880,9.483183,-2.971676,4.404883,-0.454215,-0.470931,-0.871747
52881,9.474202,-2.906687,4.373811,-0.529200,-0.426569,-0.818822
52882,9.508303,-2.841262,4.370791,-0.613082,-0.386058,-0.758190
52883,9.466631,-2.791179,4.270618,-0.712063,-0.349255,-0.685225
52884,9.430060,-2.703391,4.204831,-0.811866,-0.318188,-0.607793
52885,9.398524,-2.721964,3.973885,-0.896699,-0.294565,-0.532284
52886,9.451823,-2.713824,3.845643,-0.969057,-0.282039,-0.456066
52887,9.485307,-2.738202,3.687489,-1.019169,-0.263363,-0.380641
52888,9.463459,-2.771035,3.580390,-1.051402,-0.250042,-0.305629
52889,9.453570,-2.774697,3.455671,-1.069531,-0.237665,-0.233710
52890,9.420618,-2.807989,3.402451,-1.075754,-0.222089,-0.162857
52891,9.494138,-2.867273,3.365769,-1.076816,-0.200163,-0.101979
52892,9.492832,-3.091686,3.242015,-1.039573,-0.174145,-0.038899
52893,9.457009,-3.222333,3.120213,-0.956766,-0.149715,0.019466
52894,9.415007,-3.202914,3.119466,-0.872195,-0.135145,0.081434
52895,9.423939,-3.112667,3.116876,-0.804754,-0.110746,0.129455
52896,9.421606,-3.070155,3.081848,-0.759627,-0.083141,0.171959
52897,9.317065,-3.037839,3.054433,-0.712159,-0.059965,0.213979
52898,9.273482,-3.043596,3.042074,-0.663566,-0.043513,0.248868
52899,9.256564,-2.992455,3.126799,-0.629730,-0.032352,0.281494
52900,9.251014,-2.973050,3.153143,-0.599803,-0.016144,0.307203
52901,9.248017,-2.978727,3.251635,-0.572656,-0.002013,0.332662
52902,9.238200,-2.947509,3.237293,-0.544820,0.017942,0.351355
52903,9.222988,-2.999777,3.300892,-0.514298,0.030842,0.367383
52904,9.213866,-2.985826,3.337996,-0.474612,0.045505,0.380693
52905,9.196334,-2.942027,3.362733,-0.439887,0.051742,0.392601
52906,9.210909,-2.930171,3.428878,-0.412214,0.063489,0.402388
52907,9.252397,-2.909082,3.421698,-0.384505,0.075160,0.412226
52908,9.307035,-2.931794,3.400042,-0.343671,0.083044,0.418396
52909,9.305195,-2.919249,3.317396,-0.290236,0.090464,0.427784
52910,9.297615,-2.891611,3.268886,-0.227871,0.101851,0.430236
52911,9.306696,-2.825052,3.210555,-0.171005,0.108111,0.430217
52912,9.293522,-2.771465,3.175953,-0.117609,0.117105,0.429182
52913,9.297675,-2.679068,3.131288,-0.073690,0.127422,0.422094
52914,9.322304,-2.668360,3.108520,-0.045341,0.137502,0.413256
52915,9.346285,-2.638531,3.042184,-0.020669,0.152456,0.400626
52916,9.293889,-2.602321,2.980624,-0.002654,0.158430,0.389382
52917,9.254061,-2.514567,2.938807,-0.001946,0.165623,0.376551
52918,9.245153,-2.450535,2.913637,-0.020307,0.176815,0.354760
52919,9.189106,-2.481282,2.825988,-0.039763,0.184042,0.336890
52920,9.122324,-2.483707,2.800818,-0.055359,0.185974,0.316530
52921,9.085599,-2.483730,2.722984,-0.070546,0.183828,0.301660
52922,9.073520,-2.494619,2.691837,-0.092870,0.177804,0.278079
52923,9.080411,-2.476936,2.670225,-0.119987,0.171396,0.262106
52924,9.057292,-2.534907,2.617592,-0.139721,0.169973,0.240970
52925,9.022096,-2.640330,2.544642,-0.149628,0.165664,0.216399
52926,8.999979,-2.703274,2.512871,-0.141710,0.153702,0.201798
52927,8.949888,-2.729232,2.441149,-0.130846,0.144124,0.184614
52928,8.989338,-2.738133,2.454664,-0.117719,0.128739,0.166403
52929,8.963990,-2.773029,2.429014,-0.102182,0.119629,0.149471
52930,8.999219,-2.813206,2.322095,-0.076499,0.103993,0.131619
52931,8.975583,-2.843637,2.295108,-0.046011,0.087027,0.115245
52932,8.982744,-2.823030,2.366599,-0.012440,0.070062,0.100554
52933,8.990421,-2.857411,2.309607,0.012782,0.059150,0.082080
52934,9.011484,-2.849654,2.294865,0.039861,0.044815,0.066152
52935,9.013720,-2.884906,2.313645,0.070351,0.027499,0.051342
52936,9.031649,-2.841972,2.283791,0.092454,0.015669,0.035749
52937,9.006812,-2.846867,2.285084,0.113010,0.003676,0.020080
52938,8.972654,-2.796576,2.280455,0.136777,-0.010091,0.007313
52939,8.987456,-2.726132,2.257295,0.154400,-0.023898,-0.008784
52940,8.942936,-2.645960,2.313349,0.149882,-0.035643,-0.023652
52941,9.027302,-2.661518,2.280903,0.140642,-0.049277,-0.031206
52942,8.999095,-2.655558,2.331590,0.131589,-0.050827,-0.036485
52943,9.029428,-2.684644,2.369115,0.101382,-0.060122,-0.037625
52944,9.083300,-2.718331,2.430409,0.064181,-0.062291,-0.039205
52945,9.082920,-2.815912,2.412629,0.039374,-0.062400,-0.044686
52946,9.118830,-2.876798,2.461532,0.033756,-0.066648,-0.050333
52947,9.098117,-2.876139,2.454064,0.032221,-0.066519,-0.051921
52948,9.047030,-2.884133,2.520914,0.027972,-0.069124,-0.057218
52949,9.055950,-2.900320,2.506566,0.021148,-0.076518,-0.063474
52950,9.058983,-2.911131,2.546019,0.024131,-0.073033,-0.072118
52951,9.009763,-2.899972,2.566405,0.022101,-0.081458,-0.078421
52952,9.072333,-2.935432,2.569850,0.026078,-0.087486,-0.085675
52953,9.111257,-2.983418,2.593519,0.041037,-0.093347,-0.095721
52954,9.153209,-2.927472,2.630293,0.049467,-0.097128,-0.104009
52955,9.129666,-2.899041,2.629166,0.052737,-0.097184,-0.110191
52956,9.092922,-2.936797,2.654739,0.046436,-0.094097,-0.122290
52957,9.109795,-2.977479,2.653396,0.056358,-0.099100,-0.122975
52958,9.075932,-2.902701,2.669396,0.065778,-0.098509,-0.128897
52959,9.076545,-2.884195,2.716542,0.067125,-0.096295,-0.131600
52960,9.024310,-2.836291,2.722465,0.055784,-0.092683,-0.132781
52961,9.059763,-2.857189,2.754972,0.044445,-0.088802,-0.135467
52962,9.089806,-2.838598,2.750189,0.033102,-0.085206,-0.136637
52963,9.107085,-2.886972,2.772617,0.028927,-0.076034,-0.138190
52964,9.142457,-2.890877,2.760027,0.020844,-0.074714,-0.133448
52965,9.190278,-2.853731,2.789156,0.012213,-0.066719,-0.139987
52966,9.225575,-2.874683,2.822938,-0.000045,-0.055146,-0.142819
