// Start Time: Unknown
// Update Rate: 100.0Hz
// Filter Profile: human (46.1)
// Firmware Version: 4.3.5
PacketCounter,Acc_X,Acc_Y,Acc_Z,Gyr_X,Gyr_Y,Gyr_Z
53187,9.222381,-2.732198,2.535641,-0.001309,0.011419,-0.012044
53188,9.245941,-2.724694,2.538896,-0.002410,0.008518,-0.014170
53189,9.216002,-2.707697,2.545253,0.000212,0.001564,-0.016942
53190,9.216431,-2.723351,2.591217,-0.008339,0.007326,-0.020807
53191,9.200113,-2.732835,2.535101,-0.009439,0.003316,-0.016869
53192,9.177006,-2.729301,2.509913,-0.009438,0.003038,-0.015354
53193,9.160712,-2.773811,2.544858,-0.006148,0.001404,-0.012435
53194,9.160963,-2.773043,2.544792,-0.001320,-0.000581,-0.006408
53195,9.177763,-2.735453,2.532763,0.007895,0.000645,-0.005947
53196,9.171124,-2.730134,2.587029,0.009431,0.000571,-0.004354
53197,9.164402,-2.698842,2.572913,0.005922,0.003692,-0.007006
53198,9.164534,-2.698097,2.573225,-0.000003,0.001387,-0.007580
53199,9.171524,-2.727898,2.587970,-0.003513,0.004507,-0.010233
53200,9.171753,-2.726967,2.588139,-0.004612,0.001606,-0.012359
53201,9.195442,-2.702168,2.545052,-0.005051,0.005135,-0.014858
53202,9.202573,-2.731524,2.559793,-0.003077,0.002089,-0.013799
53203,9.226360,-2.715190,2.539434,-0.006150,0.002234,-0.016985
53204,9.216943,-2.764063,2.520479,0.000213,0.001012,-0.013912
53205,9.210467,-2.740788,2.528999,0.001528,0.002982,-0.015084
53206,9.204020,-2.717414,2.537497,0.001966,0.000008,-0.015618
53207,9.221001,-2.687777,2.548260,-0.004614,0.001883,-0.013876
53208,9.197828,-2.693267,2.545864,-0.012730,0.003274,-0.010696
53209,9.151141,-2.696789,2.518130,-0.015802,0.002863,-0.010850
53210,9.151521,-2.704554,2.540630,-0.011855,-0.001839,-0.016313
53211,9.212498,-2.734386,2.528530,-0.010979,0.002827,-0.015435
53212,9.152387,-2.693354,2.517277,-0.001983,-0.004786,-0.018168
53213,9.169679,-2.671761,2.550425,-0.008572,-0.000968,-0.027040
53214,9.170329,-2.652359,2.504357,-0.008349,-0.003289,-0.022759
53215,9.201415,-2.674529,2.520571,-0.014275,-0.005044,-0.026368
53216,9.202307,-2.681043,2.542578,-0.017570,-0.003414,-0.029288
53217,9.193531,-2.720313,2.499667,-0.018445,-0.008079,-0.030169
53218,9.241357,-2.696475,2.480331,-0.018224,-0.009844,-0.028921
53219,9.219203,-2.717967,2.521786,-0.020193,-0.017411,-0.031932
53220,9.196997,-2.713288,2.494546,-0.017344,-0.015510,-0.031511
53221,9.181845,-2.747638,2.504741,-0.005934,-0.018236,-0.033295
53222,9.183366,-2.744421,2.502691,0.003068,-0.025556,-0.037554
53223,9.154783,-2.725177,2.506495,0.012715,-0.026442,-0.042182
53224,9.166157,-2.670693,2.523632,0.018855,-0.025607,-0.041878
53225,9.151491,-2.694602,2.511025,0.019068,-0.026535,-0.045182
53226,9.176843,-2.692280,2.534347,0.015553,-0.024260,-0.043283
53227,9.171572,-2.657373,2.518015,0.004349,-0.022197,-0.046311
53228,9.203749,-2.677154,2.533118,-0.002910,-0.015606,-0.045274
53229,9.182165,-2.688432,2.551668,-0.008151,-0.022947,-0.043618
53230,9.214092,-2.691107,2.520819,-0.004227,-0.017301,-0.045622
53231,9.199641,-2.732912,2.553943,-0.008831,-0.018212,-0.044332
53232,9.231707,-2.744278,2.545993,-0.005538,-0.019275,-0.044453
53233,9.249785,-2.712018,2.554734,-0.005529,-0.019832,-0.041421
53234,9.227962,-2.715029,2.550541,-0.005975,-0.017140,-0.039368
53235,9.205734,-2.700841,2.500668,-0.007056,-0.020602,-0.038465
53236,9.221627,-2.758535,2.527719,-0.004663,-0.015720,-0.037510
53237,9.216025,-2.733259,2.534688,-0.000290,-0.013317,-0.038536
53238,9.273268,-2.657788,2.534092,-0.006180,-0.016771,-0.033036
53239,9.267447,-2.633211,2.540932,-0.014986,-0.010411,-0.032062
53240,9.222029,-2.652761,2.557591,-0.027495,-0.010633,-0.032387
53241,9.293016,-2.621984,2.539966,-0.035617,-0.009011,-0.030704
53242,9.286707,-2.589512,2.524028,-0.042907,-0.001881,-0.032687
53243,9.287329,-2.579143,2.499769,-0.062005,-0.000276,-0.031254
53244,9.201699,-2.626615,2.480210,-0.067894,-0.003740,-0.025758
53245,9.200140,-2.689054,2.427536,-0.067460,-0.006147,-0.029338
53246,9.177823,-2.694364,2.422761,-0.050755,-0.012625,-0.031742
53247,9.193860,-2.753134,2.448771,-0.030553,-0.020512,-0.040608
53248,9.142668,-2.767530,2.518075,-0.005272,-0.031281,-0.046765
53249,9.114897,-2.756113,2.543918,0.018422,-0.040565,-0.062102
53250,9.134434,-2.729378,2.574299,0.030214,-0.043653,-0.078120
53251,9.154112,-2.692121,2.582054,0.034933,-0.041385,-0.094866
53252,9.119465,-2.628039,2.548503,0.024504,-0.033578,-0.103057
53253,9.130957,-2.657052,2.583101,0.008618,-0.031102,-0.112356
53254,9.133271,-2.727469,2.575700,-0.006385,-0.025091,-0.114694
53255,9.144116,-2.739150,2.564955,-0.016983,-0.017788,-0.111989
53256,9.123788,-2.834790,2.601255,-0.028423,-0.015163,-0.110171
53257,9.157763,-2.840349,2.593111,-0.024516,-0.010328,-0.107628
53258,9.152685,-2.890329,2.595117,-0.015047,-0.011321,-0.102923
53259,9.185479,-2.977036,2.582512,-0.007096,-0.012816,-0.096770
53260,9.235075,-3.052943,2.626492,0.011627,-0.013303,-0.087076
53261,9.268425,-3.158059,2.660578,0.029203,-0.006931,-0.072979
53262,9.331302,-3.270440,2.666824,0.061453,-0.006073,-0.042352
53263,9.354549,-3.241769,2.625546,0.086678,-0.001295,-0.004852
53264,9.400948,-3.334255,2.696727,0.097515,0.003391,0.046480
53265,9.511063,-3.528769,2.652659,0.113132,0.016502,0.107306
53266,9.520040,-3.582497,2.642346,0.128561,0.029729,0.175968
53267,9.474539,-3.472907,2.646430,0.133685,0.038460,0.243555
53268,9.536936,-3.437188,2.780313,0.122688,0.050304,0.306638
53269,9.515274,-3.205956,2.887541,0.064323,0.075602,0.360185
53270,9.420687,-3.082744,2.983482,-0.033559,0.103043,0.413205
53271,9.340332,-3.168787,2.976171,-0.175598,0.132419,0.463899
53272,9.249265,-3.530945,3.022039,-0.306157,0.169896,0.506709
53273,9.183159,-4.115376,3.087028,-0.351901,0.195615,0.544513
53274,9.109000,-4.485230,3.077086,-0.315656,0.203580,0.596768
53275,9.054163,-4.520389,3.199673,-0.254677,0.213306,0.648533
53276,9.055014,-4.720116,3.157847,-0.197053,0.224457,0.697428
53277,9.012825,-4.799857,3.193543,-0.127068,0.233650,0.755825
53278,9.085747,-4.837183,3.201226,-0.055379,0.238039,0.822847
53279,9.129542,-4.912161,3.278804,-0.004603,0.259665,0.883057
53280,9.047423,-4.875136,3.323976,0.037509,0.273852,0.943119
53281,9.079322,-4.759878,3.513766,0.031144,0.299224,1.004907
53282,9.054083,-4.808741,3.588185,-0.019861,0.330311,1.068879
53283,8.994552,-4.981143,3.668377,-0.081184,0.370684,1.129207
53284,8.944836,-5.143289,3.782647,-0.140095,0.400268,1.192058
53285,8.876749,-5.293915,3.771406,-0.189496,0.431222,1.246043
53286,8.703158,-5.481544,3.791988,-0.212054,0.459367,1.296092
53287,8.609142,-5.719344,3.774678,-0.207615,0.480796,1.344807
53288,8.459503,-5.964202,3.751844,-0.163239,0.494355,1.385186
53289,8.327045,-6.107382,3.827479,-0.090191,0.503115,1.418952
53290,8.157706,-6.135035,3.736095,-0.020500,0.500912,1.441389
53291,7.970887,-6.085843,3.726406,0.031066,0.497445,1.454791
53292,7.744154,-6.200137,3.591685,0.064463,0.489100,1.463030
53293,7.407241,-6.521686,3.435368,0.146372,0.451295,1.463709
53294,7.051103,-6.808778,3.499904,0.310722,0.391354,1.453699
53295,6.977224,-7.105177,3.639713,0.553561,0.316807,1.436214
53296,7.168808,-7.058359,3.941128,0.813136,0.257941,1.411606
53297,7.371918,-6.632877,4.231560,0.999390,0.242202,1.391775
53298,7.404806,-6.167146,4.314757,1.062874,0.257839,1.366129
53299,7.321948,-5.804362,4.147215,1.060579,0.288133,1.331942
53300,7.259455,-5.636335,4.017250,1.002789,0.322143,1.283393
53301,7.286124,-5.613096,3.934625,0.927262,0.348973,1.231700
53302,7.282595,-5.534446,3.911004,0.854008,0.383620,1.179558
53303,7.270070,-5.503156,4.050343,0.779148,0.427053,1.120401
53304,7.144865,-5.500976,4.126166,0.702498,0.466543,1.067880
53305,7.053822,-5.457289,3.957747,0.640103,0.488975,1.012820
53306,6.947258,-5.586864,3.582022,0.592543,0.502339,0.964272
53307,6.836793,-5.933908,3.462783,0.614062,0.489845,0.928409
53308,6.919306,-5.890286,3.671643,0.668372,0.465530,0.887561
53309,6.965306,-5.335501,4.294877,0.650253,0.476640,0.820227
53310,7.088895,-4.783396,4.823481,0.519668,0.506387,0.757328
53311,7.191842,-4.656501,5.116943,0.296216,0.561482,0.706040
53312,7.161599,-5.008148,4.879789,0.121547,0.605010,0.670132
53313,7.119570,-5.400245,4.472473,0.020932,0.630718,0.620269
53314,6.794480,-5.644237,3.977626,0.030459,0.619218,0.567828
53315,6.662917,-5.498415,4.032342,0.071567,0.568510,0.528247
53316,6.671913,-5.196338,4.235831,0.024446,0.539245,0.485596
53317,6.702026,-5.301290,4.230047,-0.038475,0.538142,0.437126
53318,6.632397,-5.683036,4.054834,-0.044406,0.533354,0.401610
53319,6.549374,-5.918002,3.929631,0.057002,0.516140,0.352206
53320,6.477230,-5.729746,3.865979,0.197599,0.482650,0.295207
53321,6.464970,-5.194567,3.835865,0.243695,0.457326,0.239468
53322,6.453234,-4.914648,3.830175,0.180905,0.440259,0.196118
53323,6.499754,-5.036912,3.896416,0.093473,0.432504,0.155620
53324,6.482762,-5.122174,3.941423,0.044588,0.415061,0.104926
53325,6.485443,-5.138036,3.895529,0.000221,0.383398,0.067477
53326,6.380029,-5.153793,4.015195,-0.023242,0.349608,0.034940
53327,6.281554,-5.285062,3.978050,-0.048141,0.315936,0.002091
53328,6.156880,-5.487718,3.832518,-0.039952,0.279946,-0.032936
53329,6.092624,-5.600871,3.723780,0.028852,0.231812,-0.070770
53330,6.152613,-5.406660,3.666045,0.091453,0.179624,-0.110088
53331,6.100164,-5.211294,3.561006,0.094346,0.144193,-0.131964
53332,5.896586,-5.147403,3.660123,0.069983,0.097443,-0.145938
53333,5.892397,-5.319687,3.816334,0.050474,0.055069,-0.175770
53334,6.059542,-5.672340,3.923983,0.083544,0.028416,-0.213044
53335,6.285607,-5.813852,3.987706,0.160327,0.009982,-0.238265
53336,6.554995,-5.585969,3.977832,0.194483,-0.010387,-0.244953
53337,6.720312,-5.361672,4.030649,0.141771,-0.010436,-0.239016
53338,6.789221,-5.322569,4.034570,0.037926,0.001164,-0.222574
53339,6.711421,-5.391917,3.876774,-0.076996,0.008589,-0.189841
53340,6.576282,-5.456678,3.799590,-0.172194,-0.000729,-0.159850
53341,6.690417,-5.719718,3.806359,-0.244979,-0.006692,-0.131634
53342,6.968737,-5.942020,3.882605,-0.258098,-0.021603,-0.099628
53343,7.164307,-5.943262,3.994967,-0.270867,-0.021537,-0.047248
53344,7.091128,-5.922936,3.979562,-0.312103,-0.014825,0.017827
53345,6.964990,-5.918476,4.020411,-0.366751,-0.015996,0.076507
53346,6.889151,-5.834006,4.097024,-0.425152,-0.020302,0.137318
53347,6.899832,-5.741557,4.075320,-0.501350,-0.021370,0.193715
53348,6.853961,-5.831675,3.963792,-0.586604,-0.026042,0.246546
53349,6.832512,-6.149647,3.729176,-0.585068,-0.034528,0.267885
53350,6.806522,-6.127731,3.756018,-0.480568,-0.062303,0.283762
53351,6.935869,-5.880490,3.846705,-0.376903,-0.085903,0.288916
53352,7.078539,-5.726327,4.006952,-0.301809,-0.086577,0.288472
53353,7.014998,-5.733954,3.916741,-0.277678,-0.065843,0.284537
53354,6.747358,-5.820251,3.836384,-0.231247,-0.069942,0.276828
53355,6.529072,-5.825600,3.741969,-0.152104,-0.096506,0.251790
53356,6.497655,-5.496037,3.854602,-0.071827,-0.149364,0.234530
53357,6.561852,-5.346531,4.122259,-0.090107,-0.165681,0.215085
53358,6.524575,-5.451399,4.071752,-0.090780,-0.183964,0.175041
53359,6.513148,-5.365309,4.074768,-0.005648,-0.216342,0.139108
53360,6.517239,-5.118836,4.067586,0.046220,-0.227512,0.106167
53361,6.566637,-5.261771,3.987249,0.064255,-0.217154,0.062112
53362,6.631042,-5.186619,3.775663,0.101497,-0.226436,0.023624
53363,6.626540,-5.279895,3.659358,0.104385,-0.214728,0.003698
53364,6.653264,-5.430406,3.649821,0.126003,-0.207547,-0.018255
53365,6.855406,-5.493249,3.808613,0.190322,-0.206089,-0.036715
53366,7.117362,-5.161166,4.373622,0.220064,-0.187793,-0.027765
53367,7.214338,-4.952406,4.714813,0.095508,-0.131499,-0.002945
53368,7.247593,-4.800158,4.884648,-0.069231,-0.097761,0.017035
53369,7.433154,-4.796921,5.286808,-0.278447,-0.095560,0.071120
53370,6.989430,-5.714202,3.988681,-0.507196,-0.057669,0.092077
53371,6.843190,-6.357702,4.135256,-0.333678,-0.113008,0.137855
53372,7.167906,-6.148185,4.391312,-0.279743,-0.116908,0.168367
53373,7.425019,-6.119035,4.317745,-0.252639,-0.101255,0.210965
53374,7.477559,-6.232863,4.032472,-0.217118,-0.085678,0.259663
53375,7.585548,-6.282212,4.108889,-0.153847,-0.080758,0.333523
53376,7.651015,-6.406044,3.917940,-0.137504,-0.064471,0.413633
53377,7.559831,-6.344105,3.771908,-0.092685,-0.072095,0.487545
53378,7.535447,-6.177437,3.572752,-0.066078,-0.084576,0.564118
53379,7.486588,-6.111590,3.449859,-0.065711,-0.090156,0.632609
53380,7.460833,-6.094408,3.459595,-0.053131,-0.103969,0.706827
53381,7.490095,-6.208985,3.594048,-0.072288,-0.121594,0.789505
53382,7.584929,-6.571250,3.618439,-0.079690,-0.122622,0.868576
53383,7.448369,-6.892302,3.545342,-0.018130,-0.125575,0.936969
53384,7.270225,-6.870747,3.487691,0.098949,-0.158525,0.988820
53385,7.130253,-6.744019,3.497965,0.164805,-0.187063,1.029762
53386,6.822972,-6.671565,3.567230,0.192706,-0.206541,1.049985
53387,6.635011,-6.903112,3.617548,0.216761,-0.233848,1.048253
53388,6.676883,-7.219579,3.687351,0.287808,-0.246860,1.040389
53389,6.707189,-7.225569,3.792400,0.362493,-0.258923,1.030144
53390,6.765928,-6.925378,3.912319,0.379665,-0.261420,1.024203
53391,6.748742,-6.728068,3.820857,0.318414,-0.260108,1.010557
53392,6.690519,-6.728403,3.804539,0.206749,-0.257792,1.007675
53393,6.532678,-6.894970,3.717749,0.096908,-0.255146,1.003589
53394,6.138874,-7.225483,3.724884,0.040887,-0.268341,0.990833
53395,6.037340,-7.509979,3.714131,0.071342,-0.305709,0.972198
53396,5.958153,-7.627857,3.765435,0.145917,-0.335501,0.952026
53397,5.855113,-7.544637,3.917831,0.189675,-0.366469,0.934688
53398,5.831033,-7.428457,3.865876,0.212263,-0.392488,0.906599
53399,5.836068,-7.187653,4.019349,0.181011,-0.410519,0.888219
53400,5.965275,-7.329614,4.107020,0.094066,-0.396786,0.872185
53401,6.021340,-7.671227,4.114136,0.022862,-0.363515,0.852604
53402,5.878137,-7.960406,4.006466,-0.025364,-0.339353,0.846800
53403,5.672968,-7.956749,4.016479,-0.071344,-0.324693,0.854761
53404,5.421503,-8.189056,4.058698,-0.154831,-0.289866,0.857425
53405,5.250418,-8.390453,4.259630,-0.180720,-0.279695,0.852264
53406,5.106664,-8.398508,4.310198,-0.194275,-0.273003,0.855020
53407,5.021589,-8.531932,4.312950,-0.238964,-0.251329,0.845058
53408,4.931898,-8.793105,4.272296,-0.271103,-0.225322,0.843781
53409,4.996725,-9.042893,4.413024,-0.274339,-0.209762,0.845808
53410,5.149710,-9.124339,4.576363,-0.292392,-0.182153,0.861232
53411,5.145184,-9.150508,4.798260,-0.344844,-0.116073,0.885070
53412,5.079196,-9.713954,4.783998,-0.423245,-0.026546,0.922084
53413,4.906372,-10.233024,4.769067,-0.403210,0.048669,0.973840
53414,4.884553,-10.723997,4.738484,-0.365746,0.128606,1.027319
53415,4.833372,-10.876110,4.567628,-0.321003,0.184372,1.108747
53416,4.582209,-10.562316,4.470043,-0.334212,0.256476,1.190350
53417,4.211177,-10.433588,4.336349,-0.426352,0.335014,1.263167
53418,3.719760,-10.312291,4.258538,-0.511209,0.391838,1.330570
53419,3.196433,-10.359428,4.375976,-0.617548,0.452880,1.397465
53420,2.796307,-10.727637,4.465979,-0.678422,0.506273,1.458309
53421,2.230243,-11.013084,4.608165,-0.648198,0.566057,1.512178
53422,1.752120,-10.930471,4.937968,-0.548644,0.596482,1.564718
53423,1.319535,-10.639991,5.319658,-0.471486,0.663981,1.612362
53424,0.961549,-10.438498,5.487056,-0.472519,0.720919,1.684506
53425,0.811442,-10.523557,5.411641,-0.541001,0.790392,1.760983
53426,0.368088,-10.425936,5.127566,-0.559095,0.847119,1.852649
53427,-0.081932,-10.533370,4.943038,-0.620402,0.898674,1.948991
53428,-0.477602,-10.695773,4.770125,-0.624790,0.909832,2.038652
53429,-0.846396,-10.736520,4.918793,-0.613486,0.927479,2.135539
53430,-1.195618,-10.635116,4.959597,-0.592420,0.927572,2.245612
53431,-1.588857,-10.145622,5.047384,-0.580954,0.922025,2.353278
53432,-1.964810,-10.057144,5.236194,-0.623766,0.938901,2.451572
53433,-2.061013,-10.371922,5.093256,-0.590290,0.932579,2.558316
53434,-2.242269,-10.429794,4.806692,-0.447976,0.923828,2.660513
53435,-2.681474,-10.372403,4.520877,-0.215704,0.919947,2.741873
53436,-3.007491,-10.326840,4.175874,0.008606,0.899567,2.825691
53437,-3.066279,-10.200365,4.122014,0.255504,0.866698,2.910036
53438,-3.055519,-9.739154,3.914794,0.452614,0.839198,2.992363
53439,-3.338805,-8.997317,3.876645,0.614866,0.825931,3.053921
53440,-3.530747,-8.982087,3.895214,0.723237,0.840205,3.099464
53441,-3.484971,-9.611225,3.798842,0.872279,0.839607,3.167742
53442,-3.263258,-9.655828,3.855354,1.110224,0.835906,3.223082
53443,-3.463267,-9.379038,3.903297,1.309198,0.885161,3.276193
53444,-3.739269,-9.242702,3.757447,1.511101,0.917821,3.328719
53445,-3.977623,-8.938457,3.588923,1.702706,0.930833,3.384195
53446,-4.169297,-8.688948,3.255307,1.877117,0.936524,3.430158
53447,-4.216025,-8.584197,3.116840,1.999046,0.962413,3.471016
53448,-4.306912,-8.788670,3.122175,2.139021,0.999371,3.508310
53449,-4.482157,-8.514874,3.210386,2.321725,1.003356,3.550011
53450,-4.640633,-7.440026,3.752766,2.489774,0.993828,3.565928
53451,-4.906613,-6.860417,4.008403,2.434470,1.058634,3.576803
53452,-5.253650,-6.908444,3.827316,2.397726,1.100440,3.582433
53453,-5.548968,-6.679886,3.927445,2.461722,1.115788,3.570708
53454,-5.714560,-6.488069,4.283388,2.473421,1.153559,3.559467
53455,-5.897542,-6.365738,4.232100,2.503073,1.192708,3.543528
53456,-6.069095,-6.072703,4.302960,2.576022,1.223822,3.502042
53457,-6.292344,-5.549359,4.153022,2.609071,1.250851,3.456813
53458,-6.352253,-5.271963,3.967442,2.591220,1.278382,3.417711
53459,-6.457866,-4.898558,3.849669,2.604082,1.301101,3.373270
53460,-6.673941,-4.237045,3.732134,2.622139,1.296524,3.312832
53461,-6.845418,-3.657688,3.731750,2.587557,1.308773,3.251442
53462,-6.957055,-3.391652,3.519404,2.518482,1.322006,3.170202
53463,-7.164973,-2.980121,3.499409,2.520707,1.302456,3.091915
53464,-7.369389,-2.344243,3.690027,2.503353,1.276396,2.988378
53465,-7.363989,-1.806783,3.808252,2.381550,1.266925,2.875526
53466,-7.507912,-1.616421,3.916101,2.205312,1.278552,2.774994
53467,-7.578339,-1.353559,3.742211,2.054875,1.239670,2.664899
53468,-7.590598,-0.894355,3.746253,1.918806,1.196167,2.570218
53469,-7.510295,-0.621572,3.681236,1.707482,1.168261,2.469992
53470,-7.512943,-0.402493,3.696156,1.522541,1.136916,2.371888
53471,-7.541010,-0.175163,3.631362,1.335044,1.088526,2.283399
53472,-7.380528,0.053248,3.653145,1.144033,1.046976,2.207261
53473,-7.335860,0.029014,3.659203,0.936298,1.026436,2.121539
53474,-7.285897,-0.144728,3.611257,0.792509,0.971912,2.040138
53475,-7.115698,-0.192889,3.545913,0.714333,0.917319,1.971230
53476,-7.046567,-0.112033,3.468448,0.642495,0.863117,1.896443
53477,-6.800000,0.045161,3.282316,0.589042,0.803521,1.816946
53478,-6.623734,0.229497,3.084337,0.524799,0.773037,1.747128
53479,-6.635206,0.567686,3.017941,0.469767,0.758498,1.676579
53480,-6.761907,0.780837,2.959082,0.406187,0.728993,1.615467
53481,-6.925445,1.073223,2.958979,0.350715,0.685965,1.557857
53482,-6.951122,1.261477,2.911723,0.277013,0.635375,1.489461
53483,-6.938131,1.463568,2.801185,0.200441,0.595877,1.427096
53484,-6.982961,1.560348,2.668207,0.137945,0.552294,1.360819
53485,-7.044534,1.653653,2.627651,0.112970,0.506133,1.301316
53486,-7.176763,1.771743,2.666645,0.109166,0.467600,1.236625
53487,-7.201961,1.940190,2.616554,0.114971,0.416784,1.177297
53488,-7.190167,2.231826,2.567264,0.118164,0.373214,1.109475
53489,-7.140090,2.533111,2.561486,0.099739,0.332680,1.040101
53490,-7.084059,2.812269,2.519663,0.051540,0.296763,0.964272
53491,-7.043083,2.945700,2.427742,-0.014190,0.285102,0.871443
53492,-7.132730,2.879715,2.407735,-0.057593,0.268225,0.786804
53493,-7.147926,2.926242,2.317111,-0.062096,0.230053,0.711289
53494,-7.048685,3.002937,2.370976,-0.063022,0.182944,0.619281
53495,-6.855467,3.081534,2.276825,-0.076295,0.145920,0.521652
53496,-6.876141,3.161157,2.280974,-0.092109,0.107103,0.422403
53497,-6.735584,3.292211,2.226743,-0.115121,0.047708,0.304466
53498,-6.575888,3.426046,2.128471,-0.140162,-0.006604,0.193735
53499,-6.563667,3.611475,2.218966,-0.198213,-0.054807,0.076441
53500,-6.568316,3.504740,2.240872,-0.245129,-0.110839,-0.040388
53501,-6.432425,3.498007,2.306171,-0.274816,-0.168175,-0.169811
53502,-6.472910,3.545985,2.452048,-0.314515,-0.209064,-0.294409
53503,-6.573557,3.526125,2.637300,-0.358529,-0.256688,-0.423074
53504,-6.579317,3.539698,2.649272,-0.420646,-0.306810,-0.556954
53505,-6.657856,3.508058,2.617375,-0.490082,-0.345036,-0.698094
53506,-6.824250,3.481903,2.538339,-0.557370,-0.400777,-0.852088
53507,-6.799605,3.456201,2.317880,-0.628109,-0.468279,-1.005513
53508,-6.822749,3.363406,2.301386,-0.711711,-0.523243,-1.153469
53509,-6.849620,3.132065,2.288549,-0.799276,-0.597522,-1.301867
53510,-6.719638,2.804827,2.310438,-0.866674,-0.676159,-1.440608
53511,-6.845059,2.487720,2.500005,-0.930054,-0.737041,-1.558733
53512,-7.185507,2.141498,2.707709,-0.991317,-0.794847,-1.661234
53513,-7.286349,1.709838,2.838520,-0.993887,-0.877418,-1.764355
53514,-7.135711,1.352261,2.991580,-0.977122,-0.966856,-1.857546
53515,-7.074988,1.185842,3.163624,-0.940224,-1.042549,-1.924841
53516,-7.278850,0.972026,3.378762,-0.947177,-1.105758,-1.997065
53517,-7.296453,0.698905,3.493736,-0.932690,-1.190294,-2.070207
53518,-7.457120,0.532177,3.673218,-0.947733,-1.225847,-2.122752
53519,-7.841952,0.423373,3.732601,-1.004068,-1.274298,-2.176089
53520,-7.890533,0.174085,3.705059,-1.092403,-1.343032,-2.236799
53521,-7.768315,-0.266984,3.668157,-1.195661,-1.398216,-2.304774
53522,-7.560305,-0.715088,3.780627,-1.257364,-1.465738,-2.374393
53523,-7.242966,-0.980903,4.003331,-1.294211,-1.531611,-2.455454
53524,-6.858740,-1.142632,4.153015,-1.353362,-1.580394,-2.545087
53525,-6.532305,-1.225840,4.129427,-1.426142,-1.613135,-2.643030
53526,-6.200304,-1.371338,4.222577,-1.488472,-1.628050,-2.739200
53527,-6.070248,-1.696009,4.309982,-1.555823,-1.638327,-2.825025
53528,-6.033631,-2.156930,4.632085,-1.577142,-1.648667,-2.888885
53529,-5.894672,-2.709736,4.914628,-1.573742,-1.663321,-2.961566
53530,-5.661493,-3.247710,5.229440,-1.497594,-1.665487,-3.037412
53531,-5.626931,-3.586662,5.434685,-1.467086,-1.665588,-3.094280
53532,-5.633412,-3.842106,5.525597,-1.445267,-1.677375,-3.135757
53533,-5.530753,-3.919745,5.484900,-1.456717,-1.695015,-3.216531
53534,-5.241407,-4.084238,5.525432,-1.529754,-1.679240,-3.287164
53535,-5.017788,-4.378589,5.575834,-1.669105,-1.641533,-3.366097
53536,-4.837690,-4.879559,5.704094,-1.811192,-1.615012,-3.399458
53537,-4.624037,-5.721581,5.760703,-1.922179,-1.578301,-3.403092
53538,-4.595831,-6.348261,5.711007,-1.889611,-1.569923,-3.391803
53539,-4.600062,-6.619086,5.942038,-1.789898,-1.570232,-3.394506
53540,-4.515367,-6.731521,5.921109,-1.690514,-1.576454,-3.387566
53541,-4.469109,-6.614811,5.893082,-1.563555,-1.578075,-3.395016
53542,-4.400036,-6.429626,6.019719,-1.482010,-1.587997,-3.416468
53543,-4.075738,-7.000861,6.105607,-1.463169,-1.557031,-3.416692
53544,-3.679279,-7.680677,6.205992,-1.351208,-1.538936,-3.409696
53545,-3.460705,-8.052572,6.668161,-1.199588,-1.543472,-3.353136
53546,-3.193070,-8.560154,6.908442,-1.113968,-1.521994,-3.264324
53547,-3.009311,-8.553333,6.768810,-0.910195,-1.529467,-3.194405
53548,-3.112450,-8.127659,6.921774,-0.729577,-1.525513,-3.136262
53549,-3.187015,-7.852264,6.783924,-0.566960,-1.522813,-3.078540
53550,-3.189388,-7.515053,6.700682,-0.365443,-1.536032,-3.031948
53551,-3.187970,-7.112195,6.921615,-0.199254,-1.556359,-2.997306
53552,-2.846108,-7.448611,7.276072,-0.092762,-1.547963,-2.946011
53553,-2.323557,-7.954535,7.429468,-0.011201,-1.544794,-2.873126
53554,-1.986449,-7.806861,7.595629,0.051248,-1.540292,-2.795022
53555,-1.870674,-7.267211,7.855448,-0.012787,-1.512390,-2.709672
53556,-1.626558,-6.934324,8.150083,-0.212009,-1.479029,-2.648660
53557,-1.080996,-7.128218,8.016070,-0.443203,-1.415357,-2.590536
53558,-0.813661,-7.397641,7.921705,-0.547250,-1.357352,-2.548959
53559,-0.561665,-8.050216,7.731348,-0.583868,-1.265039,-2.517384
53560,-0.174118,-8.688310,7.477316,-0.410157,-1.192867,-2.495188
53561,0.249644,-9.142825,7.586022,-0.123366,-1.110590,-2.471239
53562,0.650658,-9.717062,7.645256,0.123181,-1.014739,-2.405998
53563,1.027076,-10.244714,7.628142,0.381447,-0.951230,-2.308997
53564,1.350331,-10.138379,7.695488,0.607940,-0.895347,-2.216432
53565,1.335098,-9.776957,7.588950,0.701712,-0.826849,-2.129552
53566,1.299394,-9.500897,7.347324,0.766138,-0.780847,-2.053371
53567,1.376688,-9.393027,7.189579,0.855759,-0.742876,-1.987919
53568,1.381434,-9.079890,7.196099,0.965868,-0.718757,-1.927219
53569,1.453303,-8.519709,7.510845,1.025724,-0.710517,-1.860760
53570,1.856090,-8.205840,7.852001,0.931934,-0.679243,-1.785795
53571,2.309897,-7.954221,8.075848,0.715848,-0.633591,-1.691155
53572,2.632341,-8.064907,8.138096,0.406112,-0.547385,-1.594690
53573,2.908187,-8.665414,7.803908,0.195679,-0.474850,-1.506934
53574,3.026527,-9.050896,7.631909,0.181916,-0.405913,-1.448373
53575,3.056603,-8.920519,7.404043,0.303864,-0.375956,-1.400334
53576,3.208921,-8.335623,7.470393,0.394603,-0.339658,-1.358721
53577,3.328209,-7.849991,7.653865,0.371650,-0.287274,-1.303878
53578,3.554492,-7.537567,7.613259,0.242295,-0.223798,-1.237428
53579,3.687402,-7.442035,7.593994,0.053984,-0.170713,-1.165663
53580,3.860894,-7.437472,7.564953,-0.142954,-0.122050,-1.095478
53581,4.055141,-7.773897,7.532952,-0.262283,-0.060501,-1.064230
53582,4.293163,-8.576302,7.269222,-0.189113,-0.002853,-1.063327
53583,4.384303,-8.850484,6.946757,0.100741,0.036578,-1.069002
53584,4.191083,-8.182641,6.372658,0.408330,0.031434,-1.082319
53585,4.193405,-7.241625,6.237795,0.597659,-0.001690,-1.080663
53586,4.440779,-6.544838,6.329098,0.588496,-0.025951,-1.051705
53587,4.839756,-6.213793,6.646990,0.404610,-0.030843,-1.003167
53588,5.165099,-6.491198,6.753325,0.163773,0.009487,-0.971830
53589,5.343491,-6.913171,6.634411,0.036464,0.017583,-0.945651
53590,5.620721,-7.133122,6.645547,0.013817,0.018992,-0.939685
53591,5.784903,-7.136161,6.561358,0.044645,0.030714,-0.943347
53592,5.810102,-6.837624,6.496895,0.101391,0.043720,-0.942372
53593,5.729954,-6.283572,6.314160,0.123292,0.045023,-0.931569
53594,5.802274,-5.574156,6.167012,0.084640,0.028000,-0.920103
53595,6.000712,-5.337382,6.043108,-0.078567,0.029298,-0.889802
53596,6.254065,-5.631814,5.839218,-0.248970,0.039288,-0.839346
53597,6.462495,-6.167638,5.742823,-0.299955,0.045911,-0.803071
53598,6.629501,-6.359338,5.901597,-0.264271,0.040581,-0.761620
53599,6.907739,-6.274140,6.074376,-0.208168,0.051380,-0.727967
53600,6.914692,-6.230336,5.950489,-0.159098,0.089414,-0.699545
53601,6.722267,-6.143156,5.808421,-0.098628,0.113955,-0.665512
53602,6.576667,-5.794772,5.611398,-0.059319,0.101811,-0.631235
53603,6.537837,-5.472297,5.457719,-0.088097,0.091892,-0.598637
53604,6.483133,-5.301987,5.257779,-0.142149,0.082603,-0.572322
53605,6.454871,-5.488206,5.017770,-0.111901,0.055667,-0.547239
53606,6.500404,-5.757216,5.101356,0.007765,0.034655,-0.513606
53607,6.627698,-5.886377,5.184930,0.171387,0.011442,-0.482705
53608,6.712032,-5.849036,5.457944,0.326524,0.011199,-0.453846
53609,6.673146,-5.538090,5.618241,0.422921,0.011912,-0.418715
53610,6.628335,-4.930410,5.700535,0.422799,0.003883,-0.379456
53611,6.589831,-4.384327,5.653056,0.265117,0.011624,-0.340347
53612,6.567028,-4.228472,5.531027,0.030709,0.018598,-0.307799
53613,6.525249,-4.402484,5.525575,-0.177754,0.029054,-0.287697
53614,6.483295,-4.734854,5.525167,-0.294815,0.038402,-0.273893
53615,6.335848,-4.957216,5.496798,-0.312518,0.041546,-0.269425
53616,6.241397,-4.964060,5.549305,-0.279007,0.028312,-0.270593
53617,6.271693,-4.692000,5.655928,-0.278617,0.022106,-0.275001
53618,6.281600,-4.667837,5.588330,-0.340128,0.026606,-0.277167
53619,6.170606,-4.654282,5.419709,-0.394811,0.014878,-0.288642
53620,6.115781,-4.551403,5.341951,-0.445287,-0.012482,-0.286649
53621,6.166103,-4.465594,5.327328,-0.512331,-0.044999,-0.289273
53622,6.208694,-4.554178,5.339692,-0.576947,-0.054380,-0.296393
53623,6.350163,-4.781270,5.390049,-0.607067,-0.073777,-0.300138
53624,6.514431,-4.985863,5.390879,-0.598310,-0.086367,-0.301431
53625,6.634777,-5.087595,5.474142,-0.600823,-0.078012,-0.301752
53626,6.555093,-5.014711,5.452300,-0.581812,-0.077268,-0.295011
53627,6.482494,-4.921247,5.487009,-0.600318,-0.068007,-0.284219
53628,6.498543,-5.198360,5.297192,-0.570546,-0.058504,-0.291003
53629,6.486550,-5.371130,5.149217,-0.491913,-0.059950,-0.279713
53630,6.464869,-5.320911,5.107136,-0.370746,-0.076280,-0.276538
53631,6.618439,-5.213397,5.110067,-0.299485,-0.088279,-0.262242
53632,6.591312,-5.236592,5.202803,-0.241532,-0.096353,-0.250347
53633,6.509708,-5.200147,5.253184,-0.165512,-0.106862,-0.244630
53634,6.749208,-4.670057,5.592935,-0.101647,-0.140304,-0.221451
53635,7.204943,-4.480661,6.576546,-0.330215,-0.078342,-0.139731
53636,7.192823,-4.931096,6.037803,-0.591385,0.018319,-0.143462
53637,6.725264,-5.321224,5.534774,-0.626712,0.037090,-0.122745
53638,6.609112,-5.274329,5.358535,-0.566253,0.002647,-0.106717
53639,6.732758,-5.508554,5.362485,-0.567204,0.018200,-0.096972
53640,6.784913,-5.851671,5.309007,-0.464642,0.025318,-0.095519
53641,6.803595,-5.870019,5.318944,-0.307489,0.016882,-0.091195
53642,6.857626,-5.529466,5.214756,-0.214123,0.007969,-0.068744
53643,7.003463,-5.143263,5.595789,-0.180965,0.002968,-0.064605
53644,7.041590,-5.142158,5.704901,-0.243067,0.037764,-0.036881
53645,7.014038,-5.216073,5.602810,-0.254731,0.055115,-0.027315
53646,6.969112,-5.042196,5.487009,-0.272243,0.069030,-0.003383
53647,7.022876,-5.086390,5.235867,-0.308345,0.081257,0.010968
53648,6.892979,-5.364563,4.403324,-0.204650,0.111562,-0.056088
53649,6.898843,-4.802676,4.869711,0.023921,0.035376,-0.018870
53650,7.366905,-3.856091,5.280277,-0.119000,0.051297,0.002924
53651,7.560720,-4.094198,4.941072,-0.342588,0.113780,0.020296
53652,7.410458,-4.319159,4.679743,-0.409335,0.126930,0.049416
53653,7.423353,-4.156283,4.538008,-0.449615,0.117277,0.071235
53654,7.488175,-4.024047,4.386412,-0.508769,0.118264,0.088647
53655,7.486857,-4.090380,4.268168,-0.542360,0.113044,0.108781
53656,7.475687,-4.291600,4.051353,-0.537121,0.097989,0.126037
53657,7.304683,-4.459922,4.063694,-0.474870,0.074822,0.143804
53658,7.200358,-4.715835,4.144381,-0.350632,0.037622,0.150136
53659,7.239106,-4.857878,4.242439,-0.181326,-0.003489,0.147250
53660,7.457827,-4.688300,4.343984,-0.038949,-0.043350,0.147256
53661,7.611599,-4.467776,4.506744,0.026754,-0.064526,0.146939
53662,7.796448,-4.178481,4.688826,0.010489,-0.068872,0.157704
53663,8.061154,-3.983430,4.757260,-0.084132,-0.058800,0.167627
53664,8.197300,-3.601454,4.611128,-0.251216,-0.031599,0.179575
53665,8.174481,-3.260670,4.449981,-0.500936,0.004789,0.186578
53666,8.149216,-3.128627,4.129032,-0.798070,0.034031,0.194013
53667,7.957499,-3.534097,3.932931,-1.108144,0.070683,0.231121
53668,7.711896,-4.187442,3.956973,-1.354436,0.082209,0.265780
53669,7.613573,-4.987155,4.047379,-1.497136,0.080930,0.298213
53670,7.626527,-5.674826,4.070962,-1.547036,0.078999,0.316419
53671,7.646904,-6.247029,3.887625,-1.493215,0.053722,0.329322
53672,7.649170,-6.567324,3.735359,-1.365260,0.023306,0.328329
53673,7.511411,-6.669248,3.437114,-1.199316,-0.014311,0.314255
53674,7.176616,-6.721971,3.208701,-0.997016,-0.060131,0.295930
53675,6.588225,-6.609054,3.298663,-0.780776,-0.136237,0.264824
53676,6.145882,-6.533887,3.499914,-0.566716,-0.217066,0.217961
53677,6.021289,-6.677312,3.727304,-0.365136,-0.299429,0.152374
53678,6.075395,-6.822002,3.920876,-0.156313,-0.356317,0.076846
53679,6.167909,-6.916538,3.983961,0.042929,-0.401458,-0.010196
53680,6.187735,-6.806024,3.883989,0.207871,-0.433272,-0.101752
53681,6.183526,-6.518949,3.764854,0.301318,-0.469248,-0.192257
53682,6.239275,-6.062856,3.677133,0.289303,-0.502086,-0.289312
53683,6.144233,-5.750663,3.543510,0.175323,-0.522462,-0.360875
53684,5.821283,-5.825731,3.520417,0.044617,-0.551052,-0.431144
53685,5.580679,-6.165211,3.563937,-0.058650,-0.584017,-0.500214
53686,5.654705,-6.502520,3.631450,-0.057920,-0.626055,-0.570858
53687,5.619540,-6.687196,3.771833,-0.021907,-0.650723,-0.629081
53688,5.723318,-6.858665,3.828023,0.049894,-0.669335,-0.695263
53689,5.855520,-6.899080,3.714072,0.144647,-0.682185,-0.757530
53690,5.939018,-6.713870,3.666736,0.212013,-0.691722,-0.814188
53691,6.009170,-6.490682,3.597752,0.215444,-0.697831,-0.859189
53692,6.090019,-6.386346,3.500004,0.173839,-0.702249,-0.905312
53693,6.115802,-6.299958,3.299415,0.106774,-0.707144,-0.948382
53694,6.064711,-6.211867,3.203941,0.030436,-0.718927,-0.983868
53695,6.063460,-6.199691,3.176488,-0.056023,-0.726715,-1.024397
53696,6.134894,-6.220784,3.153297,-0.131083,-0.734649,-1.070978
53697,6.086285,-6.320606,3.075833,-0.161252,-0.740204,-1.118063
53698,6.055629,-6.272410,3.012780,-0.152996,-0.760628,-1.170520
53699,6.146076,-6.145164,3.021922,-0.136025,-0.784555,-1.221043
53700,6.337939,-6.061541,3.012270,-0.115026,-0.800965,-1.281127
53701,6.423243,-5.982331,3.053871,-0.085635,-0.810652,-1.333487
53702,6.483793,-5.903051,3.115404,-0.053480,-0.820158,-1.385767
53703,6.544088,-5.825775,3.201360,-0.020610,-0.830219,-1.432101
53704,6.656034,-5.721987,3.302247,0.010187,-0.834324,-1.474949
53705,6.711089,-5.562699,3.306591,0.037504,-0.836853,-1.516540
53706,6.845084,-5.461867,3.458633,0.057985,-0.833730,-1.553441
53707,7.074813,-5.389947,3.662986,0.062308,-0.817365,-1.586694
53708,7.291941,-5.374573,3.820715,0.063054,-0.790043,-1.621891
53709,7.471728,-5.364604,3.919408,0.048984,-0.754632,-1.652266
53710,7.608309,-5.315213,3.973299,0.040656,-0.712104,-1.689171
53711,7.625196,-5.308213,4.057704,0.035028,-0.677966,-1.721034
53712,7.641439,-5.246725,4.134240,0.034175,-0.652341,-1.757097
53713,7.818711,-5.050021,4.181773,0.020928,-0.633928,-1.791659
53714,8.032461,-4.936860,4.204076,-0.011494,-0.612584,-1.824977
53715,8.355841,-4.771601,4.316328,-0.059068,-0.582704,-1.852919
53716,8.728708,-4.632093,4.492237,-0.142003,-0.545182,-1.872800
53717,9.029411,-4.584262,4.508573,-0.250846,-0.487215,-1.885441
53718,9.316303,-4.561277,4.437046,-0.344556,-0.447549,-1.895552
53719,9.606668,-4.512992,4.215919,-0.411177,-0.405894,-1.903367
53720,9.848553,-4.393551,4.090377,-0.470284,-0.367455,-1.897509
53721,10.030665,-4.246357,3.923296,-0.535339,-0.323515,-1.875161
53722,10.182899,-4.105933,3.756403,-0.613584,-0.277985,-1.828975
53723,10.349331,-4.107795,3.545885,-0.663228,-0.237960,-1.764570
53724,10.558065,-4.088293,3.315967,-0.668501,-0.192437,-1.683357
53725,10.672213,-4.110473,3.108574,-0.650541,-0.144554,-1.574725
53726,10.697384,-4.121679,2.918210,-0.591232,-0.106723,-1.447002
53727,10.739185,-4.070133,2.782863,-0.506682,-0.074573,-1.294611
53728,10.697103,-4.037571,2.658951,-0.396502,-0.049309,-1.127190
53729,10.669900,-3.887642,2.586346,-0.271660,-0.030777,-0.947824
53730,10.595853,-3.671043,2.553773,-0.164062,-0.009669,-0.756208
53731,10.550612,-3.381827,2.555392,-0.091167,0.005095,-0.568067
53732,10.481791,-3.202181,2.557205,-0.044856,0.027416,-0.373182
53733,10.451180,-3.090008,2.593660,-0.010792,0.055272,-0.188019
53734,10.368476,-2.888741,2.598091,0.013579,0.083755,-0.008861
53735,10.205809,-2.721093,2.632826,0.014665,0.108438,0.146097
53736,10.130457,-2.537216,2.697478,-0.026376,0.135858,0.279709
53737,10.099827,-2.471704,2.722366,-0.106451,0.166476,0.393495
53738,9.952718,-2.526442,2.746920,-0.208716,0.210593,0.485878
53739,9.800059,-2.582735,2.749382,-0.301768,0.247273,0.560725
53740,9.704076,-2.720653,2.720704,-0.376053,0.283858,0.614600
53741,9.564755,-2.762908,2.679678,-0.430450,0.307559,0.657919
53742,9.467898,-2.734543,2.714977,-0.480126,0.330818,0.683561
53743,9.370510,-2.754600,2.655191,-0.525785,0.349624,0.695566
53744,9.255519,-2.732432,2.612813,-0.565100,0.368443,0.697984
53745,9.155814,-2.819767,2.579206,-0.597710,0.377311,0.693710
53746,9.066065,-2.795427,2.561234,-0.619558,0.379695,0.685062
53747,9.024378,-2.805742,2.473659,-0.644440,0.382540,0.663754
53748,8.981046,-2.900620,2.455473,-0.650994,0.380162,0.646442
53749,8.921546,-2.993186,2.356849,-0.639696,0.376927,0.618302
53750,8.862465,-3.029177,2.332320,-0.607157,0.361409,0.591432
53751,8.857121,-2.976871,2.289616,-0.575232,0.340887,0.565220
53752,8.855615,-3.011220,2.260881,-0.539658,0.327911,0.536079
53753,8.840442,-3.070017,2.219307,-0.488288,0.306726,0.505865
53754,8.811621,-3.142156,2.142173,-0.421887,0.282969,0.469484
53755,8.853146,-3.138273,2.151504,-0.344569,0.258739,0.443110
53756,8.819748,-3.109556,2.116619,-0.263988,0.237127,0.406566
53757,8.849825,-3.114733,2.092012,-0.183894,0.206927,0.379387
53758,8.827669,-3.108186,2.070017,-0.103934,0.179058,0.348130
53759,8.868888,-3.066350,2.090867,-0.024145,0.152860,0.315795
53760,8.851559,-2.970995,2.079578,0.047610,0.124925,0.292318
53761,8.882065,-2.869397,2.097109,0.097072,0.099006,0.265162
53762,8.905983,-2.813573,2.090626,0.125025,0.079134,0.238367
53763,8.953129,-2.769476,2.130925,0.151298,0.057006,0.220526
53764,9.003269,-2.752312,2.048708,0.170176,0.033650,0.195775
53765,8.998301,-2.705342,2.110205,0.183445,0.015217,0.173432
53766,9.017732,-2.649735,2.173965,0.189803,0.000041,0.153059
53767,9.036588,-2.662478,2.204088,0.190143,-0.018433,0.136442
53768,9.057928,-2.653301,2.188349,0.193198,-0.032260,0.114665
53769,9.055132,-2.668630,2.212335,0.200561,-0.045000,0.098084
53770,9.053928,-2.672059,2.213123,0.204910,-0.057194,0.076755
53771,9.038326,-2.640894,2.254004,0.211278,-0.064694,0.064411
53772,8.992236,-2.602439,2.322061,0.210571,-0.073936,0.040337
53773,9.031208,-2.586297,2.381505,0.199361,-0.078272,0.023108
53774,8.963361,-2.550263,2.444227,0.179235,-0.084043,-0.001121
53775,8.971332,-2.586171,2.476414,0.152211,-0.086824,-0.021877
53776,9.002582,-2.624215,2.533769,0.126298,-0.086150,-0.043422
53777,9.003387,-2.696930,2.520741,0.108518,-0.087767,-0.063473
53778,9.036054,-2.731736,2.577252,0.096752,-0.085866,-0.088822
53779,9.024173,-2.757500,2.582073,0.088323,-0.084436,-0.117263
53780,9.019560,-2.812148,2.600477,0.088844,-0.080942,-0.141744
53781,9.032459,-2.827214,2.609261,0.084244,-0.075417,-0.164464
53782,9.045406,-2.849955,2.640791,0.083128,-0.073073,-0.184536
53783,9.136708,-2.863238,2.651108,0.086411,-0.068016,-0.207031
53784,9.182406,-2.877972,2.632673,0.070437,-0.062260,-0.223886
53785,9.289633,-2.921394,2.603011,0.070009,-0.057131,-0.233937
53786,9.352225,-2.853612,2.672844,0.066860,-0.044508,-0.244163
53787,9.336050,-2.906730,2.637238,0.052274,-0.041063,-0.248819
53788,9.383084,-2.899193,2.575644,0.049266,-0.031466,-0.251780
53789,9.368060,-2.872111,2.548525,0.040254,-0.026677,-0.243334
53790,9.398745,-2.894309,2.475212,0.023783,-0.025093,-0.232657
53791,9.305248,-2.826509,2.545221,0.016622,-0.012791,-0.221037
53792,9.211112,-2.874574,2.488218,0.004501,-0.010319,-0.203689
53793,9.178291,-2.891901,2.472110,-0.002747,-0.008358,-0.187829
53794,9.145126,-2.901825,2.433603,-0.004120,-0.005550,-0.163688
53795,9.157523,-2.908941,2.424150,-0.006730,-0.002308,-0.150535
53796,9.154299,-2.936484,2.380097,-0.007068,-0.004501,-0.132079
53797,9.150271,-2.894553,2.366271,-0.014005,0.005356,-0.116161
53798,9.169032,-2.927359,2.348438,-0.010979,0.003675,-0.105357
53799,9.203082,-2.913665,2.297721,-0.014853,0.005501,-0.094094
53800,9.182577,-2.903562,2.272040,-0.021539,0.005687,-0.084838
53801,9.184730,-2.906048,2.294284,-0.029492,0.005078,-0.080521
53802,9.233368,-2.866055,2.255025,-0.040257,0.002829,-0.078215
53803,9.212041,-2.895914,2.318282,-0.053329,0.004464,-0.073628
