// Start Time: Unknown
// Update Rate: 100.0Hz
// Filter Profile: human (46.1)
// Firmware Version: 4.3.5
PacketCounter,Acc_X,Acc_Y,Acc_Z,Gyr_X,Gyr_Y,Gyr_Z
37906,9.778257,-0.109297,0.508477,-0.010018,-0.008739,-0.015981
37907,9.789706,-0.111822,0.475261,-0.012658,-0.008576,-0.013819
37908,9.801353,-0.138104,0.444935,-0.015376,-0.010855,-0.025601
37909,9.791227,-0.187202,0.427895,-0.014001,-0.013623,-0.019469
37910,9.770321,-0.214866,0.385736,-0.009049,-0.017161,-0.025086
37911,9.813658,-0.208041,0.416880,-0.005707,-0.021832,-0.023991
37912,9.781413,-0.231780,0.406406,-0.000206,-0.023234,-0.020458
37913,9.781563,-0.229807,0.403909,0.004627,-0.027940,-0.019703
37914,9.792354,-0.225058,0.422835,0.006133,-0.031102,-0.019850
37915,9.770547,-0.222124,0.430473,0.013111,-0.029412,-0.016851
37916,9.802845,-0.170253,0.432918,0.013104,-0.027851,-0.016948
37917,9.781032,-0.167509,0.440576,0.014959,-0.032486,-0.015514
37918,9.836035,-0.189391,0.441013,0.019088,-0.032683,-0.018020
37919,9.846873,-0.184774,0.459545,0.020929,-0.034193,-0.016779
37920,9.869780,-0.256861,0.454891,0.026060,-0.029430,-0.015124
37921,9.881152,-0.300673,0.479870,0.034658,-0.029733,-0.018654
37922,9.914507,-0.345261,0.494497,0.051709,-0.025250,-0.019732
37923,9.958892,-0.369221,0.473807,0.063304,-0.028752,-0.023752
37924,9.948391,-0.411245,0.509975,0.080239,-0.023868,-0.018559
37925,10.135674,-0.529466,0.514528,0.094873,-0.017166,-0.009818
37926,10.194772,-0.874311,0.505235,0.120900,0.021738,0.013025
37927,10.043590,-1.026943,0.495355,0.172758,0.053455,0.025646
37928,9.867672,-1.002772,0.530767,0.228887,0.061493,0.037276
37929,9.767772,-0.956222,0.554381,0.293229,0.078248,0.063697
37930,9.722827,-0.983954,0.590023,0.344896,0.087689,0.096681
37931,9.710879,-0.955034,0.520019,0.382930,0.098481,0.124862
37932,9.762285,-0.772772,0.506009,0.410233,0.100075,0.154600
37933,9.813257,-0.585512,0.544974,0.397850,0.105200,0.182176
37934,9.909407,-0.364034,0.500699,0.372499,0.112021,0.207861
37935,10.004691,-0.152961,0.567459,0.330510,0.125139,0.228975
37936,10.035381,-0.043864,0.627406,0.277526,0.145826,0.242528
37937,10.075524,0.004379,0.775965,0.224482,0.160830,0.242364
37938,10.051430,0.040449,0.848916,0.171430,0.171255,0.242521
37939,10.071360,0.072973,0.902346,0.121201,0.185697,0.233821
37940,10.059019,0.128781,0.941426,0.090392,0.196272,0.221040
37941,10.025253,0.130366,0.945873,0.050628,0.205721,0.210322
37942,9.992079,0.075946,0.904957,0.029565,0.204783,0.193128
37943,9.960356,0.095095,0.851824,0.016179,0.207277,0.181779
37944,9.940371,0.004300,0.729064,-0.000580,0.203590,0.170099
37945,9.954810,-0.011920,0.605241,-0.012919,0.193491,0.157958
37946,9.892554,0.033588,0.533728,-0.031993,0.175700,0.144763
37947,9.733799,0.077056,0.423759,-0.071638,0.147665,0.132143
37948,9.690008,-0.045648,0.364388,-0.116844,0.104625,0.125025
37949,9.711362,-0.223061,0.279120,-0.155221,0.068372,0.126807
37950,9.667886,-0.401561,0.165870,-0.170672,0.037802,0.110620
37951,9.591910,-0.578944,0.037284,-0.160789,0.014264,0.094658
37952,9.544509,-0.792532,-0.020705,-0.125954,-0.018403,0.072427
37953,9.540723,-0.894897,-0.009416,-0.070078,-0.051512,0.053490
37954,9.537314,-0.857949,0.087708,-0.011398,-0.082733,0.040038
37955,9.598724,-0.761602,0.252722,0.039632,-0.111556,0.034298
37956,9.851502,-0.755444,0.503995,0.104782,-0.113551,0.017174
37957,9.994857,-0.711673,1.101247,0.169729,-0.089325,-0.005075
37958,10.348784,-0.737329,1.587742,0.247211,-0.054289,-0.043476
37959,10.509207,-0.793254,1.658897,0.340195,0.001168,-0.093192
37960,10.161836,-0.658751,1.399848,0.470602,0.024540,-0.153290
37961,9.849787,-0.425478,0.836047,0.591347,-0.004392,-0.221072
37962,9.963420,-0.421339,0.434904,0.670890,-0.024418,-0.307172
37963,10.211332,-0.552468,0.490120,0.777238,0.032498,-0.412196
37964,9.997340,-0.369371,0.769980,0.895937,0.136717,-0.504141
37965,9.555075,0.081727,0.724329,0.947220,0.195501,-0.531873
37966,8.792701,0.743233,0.386973,0.871566,0.166533,-0.502995
37967,8.368020,1.554261,-0.328358,0.609397,0.024808,-0.450153
37968,8.675247,1.775339,-0.827597,0.214552,-0.107419,-0.386991
37969,9.355303,1.072467,-0.876679,-0.122596,-0.160213,-0.327676
37970,9.731967,0.293994,-0.273083,-0.334778,-0.145421,-0.279116
37971,9.777082,0.016246,0.366218,-0.503815,-0.144947,-0.233359
37972,9.753666,-0.357582,0.614821,-0.592024,-0.162507,-0.190373
37973,9.726898,-0.790008,0.733440,-0.591034,-0.188293,-0.148525
37974,10.083499,-0.894824,0.981163,-0.505619,-0.195363,-0.109804
37975,10.615771,-0.660352,1.680373,-0.391967,-0.128492,-0.097492
37976,11.093722,-0.181801,2.887084,-0.286951,0.012678,-0.114269
37977,11.199843,0.345051,3.891256,-0.234993,0.187047,-0.152359
37978,11.052258,0.446640,4.020309,-0.216838,0.327112,-0.192028
37979,10.764781,-0.029107,3.221705,-0.171309,0.441160,-0.205101
37980,10.197132,-0.581927,2.028758,-0.053208,0.481377,-0.212238
37981,10.107845,-0.723703,1.357855,0.115576,0.456721,-0.206268
37982,10.781846,-1.043647,1.613183,0.278143,0.500684,-0.172373
37983,11.268025,-1.558330,2.174128,0.436699,0.678284,-0.147369
37984,10.757255,-2.060428,2.293447,0.655967,0.837683,-0.138906
37985,10.084095,-2.321627,1.794430,0.971129,0.876777,-0.116105
37986,9.371484,-2.234129,0.775181,1.331200,0.821923,-0.084215
37987,8.385836,-1.249283,-0.777898,1.611741,0.665822,-0.129916
37988,7.782263,0.455242,-1.978225,1.612482,0.438394,-0.189221
37989,8.099576,0.958182,-2.495729,1.413232,0.263582,-0.163849
37990,8.652110,0.866222,-1.539167,1.166633,0.213513,-0.085299
37991,9.113035,0.509712,-0.757899,0.893899,0.181437,-0.001503
37992,8.855889,1.150396,-0.607124,0.492943,0.122405,0.081069
37993,8.594563,1.519845,-0.924890,0.013342,-0.014061,0.145558
37994,9.182352,0.838903,-0.726807,-0.359523,-0.130477,0.227108
37995,10.203992,-0.018690,0.572447,-0.533999,-0.113673,0.299953
37996,11.245575,-0.634383,2.950431,-0.558429,0.046272,0.363871
37997,11.551982,-0.947593,5.063513,-0.499843,0.296389,0.425284
37998,10.978766,-0.995138,5.822813,-0.346967,0.493648,0.440406
37999,10.363282,-1.155032,4.991492,-0.098303,0.558644,0.446714
38000,9.948964,-1.340004,3.452500,0.257543,0.504335,0.395110
38001,10.308818,-1.122907,2.489587,0.636571,0.446342,0.306506
38002,10.651004,-0.810247,2.187867,0.928975,0.492670,0.239234
38003,10.287407,-0.446296,1.837698,1.101205,0.566474,0.191869
38004,9.686947,0.140509,1.117990,1.135333,0.552592,0.147925
38005,8.687006,0.874408,-0.264813,1.024910,0.426961,0.126399
38006,8.050144,1.409401,-1.640286,0.800621,0.200069,0.106957
38007,8.019590,1.335739,-2.318565,0.554366,-0.015681,0.099112
38008,8.315030,1.140773,-2.293432,0.294213,-0.161957,0.107376
38009,8.833176,0.900049,-1.518732,0.041100,-0.210713,0.145358
38010,8.898713,0.401810,-0.849008,-0.237197,-0.211430,0.218760
38011,8.578415,0.323776,-0.624862,-0.527117,-0.278734,0.285328
38012,8.496395,0.416652,-0.552095,-0.808221,-0.415287,0.326279
38013,9.301655,0.332793,0.246395,-1.000060,-0.520533,0.355300
38014,11.089459,-0.142619,3.197907,-1.051629,-0.424805,0.388587
38015,12.532661,-1.418454,6.336132,-0.999191,-0.086545,0.441489
38016,11.422644,-2.178623,7.069124,-0.821526,0.280773,0.457535
38017,9.298850,-1.874509,5.395801,-0.436116,0.314752,0.437956
38018,9.256387,-1.699089,3.125802,-0.027277,0.094623,0.368638
38019,10.668909,-2.184232,1.596126,0.379441,0.003896,0.277085
38020,10.832423,-2.275955,1.138695,0.763306,0.063618,0.185806
38021,9.991900,-1.308881,0.662955,0.972137,0.078815,0.116782
38022,9.053318,0.016799,-0.253909,0.991441,-0.011557,0.091129
38023,8.305981,0.729306,-1.422502,0.873645,-0.189777,0.074522
38024,7.845215,0.936578,-2.330261,0.693401,-0.439006,0.041403
38025,8.330344,0.828385,-2.324517,0.484206,-0.639952,0.034996
38026,9.051794,0.413496,-1.695095,0.209402,-0.693651,0.097358
38027,8.947936,0.376402,-1.106516,-0.076258,-0.697628,0.170243
38028,8.996209,0.622363,-0.340805,-0.366800,-0.774381,0.239863
38029,9.758970,0.545244,0.692784,-0.663619,-0.817291,0.304773
38030,11.173069,-0.027472,3.499459,-0.812121,-0.678607,0.343153
38031,12.673919,-1.225180,6.336527,-0.919338,-0.316783,0.383848
38032,11.824132,-1.735720,7.192362,-0.863128,0.084588,0.369010
38033,10.414331,-2.020268,6.102510,-0.575168,0.219088,0.353559
38034,9.943925,-3.255888,3.749464,-0.137045,0.168149,0.332181
38035,9.861901,-3.905035,1.632231,0.430917,0.092071,0.221137
38036,9.428346,-3.429020,0.229407,0.912354,0.006280,0.088145
38037,8.762206,-2.580924,-1.239440,1.250730,-0.098357,0.007347
38038,8.265013,-1.773057,-2.556256,1.402714,-0.231115,-0.004659
38039,8.108804,-1.269728,-2.971979,1.385134,-0.408096,0.018807
38040,8.743955,-0.939744,-2.491148,1.177728,-0.554932,0.071746
38041,9.170790,-0.604749,-2.162528,0.816425,-0.617180,0.166142
38042,8.936947,-0.199429,-2.214701,0.450031,-0.709110,0.280912
38043,9.270381,0.191786,-1.665534,0.046179,-0.822420,0.415461
38044,10.082930,0.396779,-0.352853,-0.471473,-0.847188,0.549214
38045,10.618916,0.550672,1.919396,-0.950142,-0.744597,0.622364
38046,11.449209,0.701041,6.088552,-1.293521,-0.504724,0.599456
38047,13.290373,0.150273,8.837842,-1.663665,-0.051468,0.594458
38048,12.690403,0.631776,8.708856,-1.727962,0.465999,0.459843
38049,10.916556,-0.026327,6.949367,-1.483504,0.654352,0.310599
38050,10.653111,-2.327449,4.746836,-0.955630,0.666068,0.132370
38051,10.655490,-4.085294,3.072835,-0.124191,0.704133,-0.109165
38052,10.362904,-4.690632,1.898572,0.724944,0.723313,-0.284068
38053,9.294308,-4.627082,-0.444936,1.444826,0.669202,-0.404557
38054,7.136792,-3.717474,-3.574952,2.084569,0.424114,-0.561469
38055,5.794091,-2.352484,-5.904552,2.503833,-0.062551,-0.698965
38056,6.364604,-1.116740,-6.677917,2.447664,-0.527610,-0.727311
38057,7.772638,-0.297235,-6.335052,2.067294,-0.761612,-0.580745
38058,8.853317,0.210008,-4.722865,1.624001,-0.792901,-0.379441
38059,9.917025,0.581862,-2.105184,1.026717,-0.714533,-0.123361
38060,10.221080,1.424267,-0.266273,0.215293,-0.623322,0.144125
38061,9.968084,2.503574,0.340712,-0.622574,-0.616585,0.330755
38062,10.096565,2.366865,1.662683,-1.304703,-0.622159,0.410136
38063,11.396350,0.575318,5.092638,-1.734458,-0.434884,0.453738
38064,12.940651,-0.562065,8.236842,-1.982488,0.066778,0.463583
38065,12.782375,-0.192649,8.826117,-2.045433,0.642988,0.395578
38066,10.400374,-1.662213,6.231648,-1.775647,0.981244,0.389176
38067,8.058719,-4.273400,2.422791,-0.943364,0.848430,0.405901
38068,7.940279,-6.094299,-0.817748,0.057266,0.369038,0.366134
38069,8.281281,-6.470622,-3.251734,0.867620,-0.062530,0.285836
38070,8.042613,-5.627809,-5.461039,1.524661,-0.423372,0.191892
38071,7.877441,-3.946283,-6.873272,1.977356,-0.719207,0.160107
38072,8.358398,-2.434406,-6.660163,2.043977,-0.957890,0.208799
38073,9.296318,-1.603803,-5.537902,1.742713,-1.083929,0.342283
38074,9.529374,-0.888800,-4.453790,1.203011,-1.126295,0.524247
38075,9.505075,-0.040754,-3.307644,0.557041,-1.202984,0.719677
38076,10.146118,1.089755,-1.578658,-0.214582,-1.282581,0.919472
38077,10.875607,2.182222,0.714524,-1.072877,-1.223583,1.061248
38078,11.314286,2.619327,5.041894,-1.778866,-1.056266,1.055311
38079,13.591057,1.902258,10.366843,-2.360476,-0.556251,0.954942
38080,14.890353,1.849468,11.535217,-2.849419,0.221176,0.807793
38081,12.640359,0.814391,8.771277,-2.791999,0.823392,0.651061
38082,9.863146,-2.739625,5.695546,-2.186598,1.009191,0.611568
38083,8.834494,-5.658240,2.142517,-1.369894,0.852993,0.502438
38084,7.538240,-7.008013,-1.658871,-0.358344,0.541654,0.386337
38085,6.146476,-7.766444,-4.985311,0.783247,0.048456,0.303883
38086,6.270731,-8.089289,-7.264559,1.679815,-0.474009,0.244764
38087,7.599682,-7.159757,-8.053992,2.080487,-0.744640,0.279752
38088,8.869904,-4.748989,-6.871152,2.167828,-0.748667,0.353303
38089,9.748037,-2.047465,-4.506781,2.038524,-0.705728,0.399635
38090,10.753129,0.355674,-1.744322,1.558169,-0.588008,0.487575
38091,11.102839,2.322159,0.402897,0.769891,-0.382376,0.625739
38092,10.860629,2.970091,3.389896,-0.085259,-0.195416,0.701876
38093,11.917548,2.509907,7.266524,-0.881342,0.102873,0.670196
38094,12.785967,3.016272,8.463789,-1.466278,0.578183,0.499232
38095,12.018833,3.092013,7.339007,-1.749605,0.982907,0.316132
38096,10.516235,0.678750,4.968150,-1.749687,1.132114,0.241520
38097,9.248536,-2.643892,2.793241,-1.316506,1.079749,0.122245
38098,9.357323,-5.056398,1.248784,-0.718381,0.932508,-0.019731
38099,8.366699,-6.948558,-2.175293,0.030201,0.687526,-0.147212
38100,6.796992,-8.117242,-5.722509,1.122090,0.287085,-0.260550
38101,6.464031,-8.502873,-7.768142,1.997749,-0.191904,-0.227564
38102,7.183102,-7.577485,-8.343915,2.312110,-0.563574,-0.066989
38103,8.158573,-5.827837,-7.368365,2.348555,-0.701413,0.080409
38104,9.139088,-3.298930,-5.207523,2.263885,-0.721564,0.157323
38105,10.533569,-0.569547,-2.346492,1.901876,-0.632035,0.262879
38106,11.272127,1.817773,-0.194664,1.187623,-0.423759,0.410215
38107,10.805536,3.447179,1.897093,0.334965,-0.277320,0.495100
38108,11.116835,3.361464,5.474920,-0.567281,-0.105788,0.517403
38109,12.475790,2.502080,7.626156,-1.484600,0.294548,0.504588
38110,11.887423,2.053999,6.762360,-2.047517,0.754915,0.444893
38111,9.629412,0.382711,4.227266,-2.210686,0.910538,0.410610
38112,7.828511,-2.760192,1.420936,-1.946671,0.721953,0.404873
38113,7.428766,-5.727320,-0.847766,-1.400786,0.386382,0.332761
38114,7.517557,-7.591290,-2.572178,-0.685917,0.049368,0.256031
38115,8.047778,-8.593862,-4.041646,0.147885,-0.222332,0.213607
38116,8.280313,-8.316885,-5.210195,0.978815,-0.362101,0.220422
38117,8.238610,-6.985948,-5.661909,1.584057,-0.511146,0.210486
38118,8.670850,-5.059387,-4.939776,1.948669,-0.677409,0.188629
38119,10.028947,-2.753510,-2.721679,1.905276,-0.725330,0.191053
38120,11.405656,-0.800800,-0.232227,1.511181,-0.549652,0.241702
38121,11.517182,0.754180,2.491167,0.969854,-0.281801,0.294342
38122,11.206264,1.354938,4.901464,0.314494,-0.006962,0.354139
38123,10.518375,1.636036,5.133360,-0.388799,0.230720,0.391238
38124,9.287977,1.059468,3.810915,-0.990104,0.340202,0.415280
38125,8.696790,-0.730098,2.203005,-1.329224,0.304131,0.461647
38126,8.803687,-2.590093,0.940400,-1.396936,0.223841,0.467077
38127,9.047576,-4.254478,-0.031705,-1.206396,0.156852,0.401318
38128,9.182210,-5.633950,-1.020524,-0.762634,0.099064,0.264261
38129,9.312753,-6.706925,-2.176410,-0.102431,0.081563,0.113472
38130,9.399170,-7.154662,-2.410442,0.680073,0.054662,-0.006204
38131,9.291192,-5.970371,-1.854750,1.312225,-0.007372,-0.077161
38132,9.119622,-4.173505,-1.175371,1.579955,-0.088794,-0.083159
38133,9.265654,-2.326089,-0.383771,1.566442,-0.142864,-0.023495
38134,9.633102,-0.968042,0.489405,1.245100,-0.111250,0.069050
38135,9.696618,-0.437617,0.930602,0.774461,-0.024109,0.141686
38136,9.306538,-0.082627,0.966537,0.304547,0.005375,0.168202
38137,9.504339,-0.234232,1.327663,-0.134237,0.004291,0.183512
38138,9.861010,-0.758588,1.687192,-0.550988,0.071703,0.202825
38139,10.051700,-1.766079,2.018096,-0.720176,0.197086,0.188253
38140,10.193520,-2.333648,2.074483,-0.775026,0.327727,0.173246
38141,9.848582,-2.830627,1.237338,-0.685913,0.391105,0.161141
38142,9.536949,-3.651607,0.104890,-0.445077,0.314478,0.135920
38143,9.561615,-4.535876,-0.844483,-0.119097,0.201894,0.116532
38144,9.438564,-4.959076,-1.568685,0.247350,0.097216,0.078372
38145,9.144548,-4.639914,-1.882905,0.595616,0.004283,0.041931
38146,9.024740,-3.923467,-1.756858,0.836442,-0.072895,0.017630
38147,9.190244,-2.812158,-1.216028,0.903000,-0.110324,0.012275
38148,9.329897,-1.738706,-0.697610,0.759371,-0.133064,0.011519
38149,9.504295,-1.021466,-0.449621,0.500819,-0.144975,0.021255
38150,9.780787,-0.794873,-0.047447,0.174191,-0.138819,0.045589
38151,10.045565,-0.883512,0.512031,-0.169931,-0.099625,0.058454
38152,10.125459,-1.125502,0.936529,-0.474045,-0.056553,0.051954
38153,9.956944,-1.397683,1.141733,-0.661049,-0.014507,0.011252
38154,9.914772,-1.566913,1.233883,-0.738523,0.011123,-0.042495
38155,9.867805,-1.681332,1.015329,-0.728217,0.017047,-0.101505
38156,9.928969,-2.022013,0.785970,-0.647482,0.008338,-0.178687
38157,10.079757,-2.260877,0.743447,-0.496243,-0.003432,-0.294283
38158,10.043000,-2.149839,0.445547,-0.319403,-0.004539,-0.425321
38159,9.608594,-2.159663,-0.360051,-0.156551,-0.050186,-0.531707
38160,9.043359,-2.473289,-1.570786,-0.002151,-0.144386,-0.591382
38161,8.910062,-2.696414,-2.169193,0.080101,-0.264297,-0.592559
38162,9.274990,-2.727516,-1.778477,0.053886,-0.327621,-0.560855
38163,9.613631,-2.435634,-1.071864,-0.042425,-0.329965,-0.518990
38164,9.715607,-1.525910,-0.619036,-0.205658,-0.334666,-0.505502
38165,9.940358,-0.767784,-0.121364,-0.413660,-0.347320,-0.525219
38166,10.637654,-0.540703,1.198168,-0.699362,-0.294365,-0.534345
38167,11.289375,-0.965540,2.789253,-0.963680,-0.119564,-0.551757
38168,11.698714,-1.562784,4.294290,-1.090366,0.156907,-0.547213
38169,11.632095,-2.255803,4.467946,-1.143721,0.450968,-0.480082
38170,10.282810,-3.041040,2.917848,-0.983472,0.579085,-0.410478
38171,9.629482,-4.161364,1.676617,-0.623658,0.467401,-0.345455
38172,10.252154,-5.398516,0.710532,-0.285664,0.331731,-0.301780
38173,10.179219,-6.141089,-0.527528,0.136114,0.297834,-0.305401
38174,9.587756,-6.292651,-1.606431,0.665317,0.248308,-0.302262
38175,8.892372,-5.822881,-2.781129,1.174121,0.143215,-0.320580
38176,8.334356,-4.905590,-3.460589,1.550033,0.009264,-0.358201
38177,8.496963,-3.689331,-3.057800,1.687348,-0.118322,-0.370728
38178,9.213632,-2.244065,-2.050036,1.581170,-0.135374,-0.348984
38179,9.606942,-0.826393,-0.960796,1.316126,-0.067267,-0.314831
38180,9.842977,0.389415,0.177696,0.956621,0.001077,-0.272050
38181,10.110929,1.122236,1.540456,0.440371,0.063132,-0.237294
38182,10.506211,1.316405,2.593186,-0.161102,0.154448,-0.214894
38183,10.658470,0.934788,3.196282,-0.675315,0.282836,-0.217899
38184,10.851838,0.202990,3.356707,-1.012903,0.405442,-0.234011
38185,10.855523,-0.831630,2.955944,-1.154116,0.505054,-0.256387
38186,10.372512,-2.050047,1.541928,-1.065822,0.530158,-0.317654
38187,9.205659,-3.150334,-0.559685,-0.714401,0.452149,-0.437342
38188,8.555982,-4.093134,-1.749666,-0.168289,0.302315,-0.552090
38189,8.739199,-4.429810,-1.930662,0.349744,0.198238,-0.604306
38190,8.978325,-4.013779,-1.807158,0.746408,0.154738,-0.623489
38191,9.085580,-2.936311,-1.823249,1.031201,0.106056,-0.632763
38192,9.027752,-1.511053,-1.923715,1.158337,0.013178,-0.639927
38193,9.110713,-0.289082,-1.849934,1.034958,-0.128880,-0.659083
38194,9.691223,0.431882,-0.911641,0.761510,-0.221201,-0.672901
38195,10.990827,0.893385,1.785728,0.378520,-0.127829,-0.650301
38196,12.258691,1.058877,5.031678,-0.125856,0.215285,-0.590097
38197,12.770779,1.291527,6.459764,-0.613814,0.677110,-0.520458
38198,12.188757,1.196627,5.759944,-0.905000,1.008662,-0.492388
38199,11.601649,-0.118142,4.223142,-0.954126,1.158499,-0.521019
38200,11.275274,-2.082430,2.711297,-0.826327,1.226934,-0.597787
38201,10.129812,-3.524962,1.322368,-0.471350,1.228714,-0.710856
38202,9.059396,-4.312235,-0.274506,0.077058,1.096829,-0.771270
38203,8.456639,-4.317427,-1.883752,0.635025,0.885156,-0.804086
38204,8.510341,-4.332086,-3.172033,1.149973,0.673401,-0.775303
38205,8.632580,-3.414211,-3.272981,1.567207,0.489357,-0.788168
38206,8.862016,-1.981737,-2.650860,1.736964,0.314698,-0.828230
38207,9.293549,-0.572258,-1.567484,1.735467,0.167552,-0.867780
38208,9.831576,1.075173,0.411025,1.526417,0.119432,-0.900578
38209,10.397133,2.628511,2.687361,1.054229,0.172246,-0.897853
38210,10.705263,3.699650,4.406455,0.422550,0.308167,-0.871345
38211,10.773991,3.838196,5.072015,-0.258427,0.481484,-0.818963
38212,10.915085,2.946813,4.900778,-0.800571,0.655203,-0.758766
38213,11.092963,1.600123,4.546097,-1.109507,0.834972,-0.731915
38214,10.847389,-0.058924,3.761881,-1.176904,1.009267,-0.746054
38215,9.702846,-1.408688,2.505130,-0.951248,1.073818,-0.802372
38216,8.750343,-2.505281,0.686064,-0.560679,0.971085,-0.849597
38217,8.152747,-3.378300,-1.244683,-0.042382,0.788109,-0.869010
38218,7.654904,-3.387126,-2.510251,0.506819,0.553273,-0.882140
38219,7.861670,-2.607948,-2.895603,0.952882,0.294338,-0.909622
38220,8.321732,-1.438855,-2.285525,1.207397,0.122916,-0.905385
38221,8.661568,0.055939,-1.101877,1.230953,0.014942,-0.862277
38222,9.139591,1.093841,0.067888,1.025852,-0.050684,-0.766118
38223,9.483315,2.000060,1.445908,0.709801,-0.063684,-0.655945
38224,10.043255,2.775282,3.343193,0.222161,-0.022161,-0.569544
38225,10.614236,3.187240,5.329132,-0.373753,0.127358,-0.512843
38226,11.135935,2.540506,6.275018,-0.967851,0.325064,-0.407020
38227,11.240259,1.678244,5.689409,-1.283079,0.483937,-0.297711
38228,11.207035,0.219913,4.621872,-1.352489,0.612775,-0.243833
38229,10.799249,-1.366431,3.539186,-1.157620,0.715793,-0.253649
38230,9.994441,-2.435917,2.471573,-0.770494,0.719863,-0.297876
38231,9.215949,-2.711663,1.416200,-0.278440,0.653429,-0.333384
38232,8.302030,-2.614254,0.030944,0.198377,0.540729,-0.363387
38233,7.606336,-1.906526,-0.957206,0.608155,0.349893,-0.372526
38234,7.307623,-0.918362,-1.563550,0.828015,0.132731,-0.364802
38235,7.358181,0.274950,-1.693322,0.857337,-0.056554,-0.356037
38236,8.035325,1.461768,-0.937875,0.697286,-0.215816,-0.328485
38237,9.269071,2.497451,1.036451,0.288437,-0.241536,-0.274036
38238,10.054998,3.012203,3.075374,-0.365969,-0.143824,-0.186154
38239,10.639163,2.763410,4.187148,-1.016446,-0.020601,-0.038006
38240,10.828714,2.070965,5.098060,-1.454652,0.142727,0.100655
38241,10.753006,0.663088,5.690011,-1.638619,0.308331,0.189129
38242,10.774789,-0.644403,5.875511,-1.562605,0.444186,0.242166
38243,10.731434,-1.653256,5.356224,-1.235593,0.532438,0.267832
38244,10.632634,-2.287135,4.242461,-0.739033,0.571594,0.258869
38245,10.432408,-2.103891,3.030132,-0.215931,0.581389,0.199931
38246,9.836710,-1.565318,2.038077,0.159799,0.515689,0.101411
38247,9.535402,-0.767461,1.125464,0.427447,0.428187,0.001806
38248,9.123148,0.075243,0.683515,0.508470,0.345011,-0.038556
38249,8.838736,0.723995,0.654451,0.502055,0.240916,-0.036019
38250,8.644690,1.495355,1.159406,0.299059,0.157375,-0.015257
38251,8.512543,1.875674,1.433821,-0.075422,0.082732,0.029851
38252,8.681536,1.807505,1.436182,-0.434909,-0.009127,0.130192
38253,8.940906,1.278458,1.769183,-0.777709,-0.004798,0.230106
38254,9.304135,0.488448,2.094766,-1.011128,-0.024527,0.349503
38255,9.744555,0.000654,3.112068,-1.224312,-0.040525,0.477468
38256,10.264514,-0.800910,3.832117,-1.354761,-0.018509,0.624420
38257,10.598129,-1.953832,4.235725,-1.299412,0.126695,0.729812
38258,10.656342,-2.948074,4.667462,-1.093900,0.273577,0.825012
38259,10.649132,-3.263845,5.378728,-0.862285,0.430590,0.911083
38260,10.450958,-3.513725,5.205624,-0.609592,0.547838,1.005887
38261,10.275536,-3.405375,4.624296,-0.347986,0.651986,1.099805
38262,10.194801,-3.139076,4.234387,-0.160109,0.796249,1.189468
38263,9.791900,-2.839435,3.777827,-0.045170,0.903791,1.273917
38264,9.462908,-2.411437,3.252180,-0.010871,0.945413,1.365316
38265,8.913921,-2.013507,2.847094,-0.036705,0.947198,1.432907
38266,8.500011,-1.935103,2.430921,-0.109023,0.886989,1.484795
38267,8.392094,-1.635589,2.279685,-0.257510,0.799395,1.585417
38268,7.979106,-1.630153,2.346964,-0.496018,0.738801,1.708643
38269,7.633951,-1.749331,2.651509,-0.793717,0.636137,1.862591
38270,7.628918,-2.194232,3.222855,-1.139269,0.490746,2.069895
38271,8.588513,-3.019204,3.938449,-1.468843,0.312266,2.322899
38272,9.814041,-4.199654,3.977713,-1.688559,0.264015,2.599808
38273,10.174580,-5.193185,3.793099,-1.635176,0.310430,2.857570
38274,10.377479,-5.851932,3.914195,-1.463870,0.276709,3.074176
38275,10.846912,-6.260661,4.142737,-1.289513,0.310997,3.160332
38276,10.680332,-6.523106,4.410382,-0.936335,0.439544,3.120439
38277,10.506407,-6.480807,4.754706,-0.474612,0.573343,3.005073
38278,9.806265,-6.176251,4.519804,-0.018441,0.643605,2.859119
38279,9.213110,-5.669881,3.885506,0.442092,0.629665,2.692875
38280,8.850169,-4.663886,3.305709,0.795684,0.637470,2.551814
38281,8.136318,-3.451941,2.927077,0.992047,0.659173,2.426303
38282,7.734342,-2.206519,2.660545,0.969597,0.614428,2.294453
38283,7.442681,-1.207278,2.764952,0.754517,0.577448,2.141824
38284,6.875685,-0.607514,2.820520,0.427653,0.481251,1.972601
38285,6.624457,-0.127932,2.616234,-0.039240,0.337787,1.797718
38286,6.095115,-0.363843,2.591301,-0.483881,0.219745,1.635432
38287,5.885328,-0.939538,3.056199,-0.878703,0.081830,1.488448
38288,6.137865,-2.053136,3.255670,-1.211472,-0.055284,1.434944
38289,6.310279,-3.431159,3.253340,-1.377721,-0.134043,1.404646
38290,6.525613,-4.702998,3.435467,-1.333301,-0.225551,1.367149
38291,7.071585,-5.617086,3.683915,-1.131103,-0.263681,1.298492
38292,7.807730,-6.267725,3.879477,-0.832907,-0.207918,1.204920
38293,7.430896,-6.827907,3.845857,-0.434643,-0.128863,1.091956
38294,7.010611,-6.752376,3.815107,-0.004961,-0.113174,0.944022
38295,6.770898,-6.142009,3.738105,0.359525,-0.075715,0.815843
38296,6.386641,-5.531456,3.654312,0.603026,-0.016439,0.710133
38297,6.057318,-4.786737,3.512868,0.678222,0.031530,0.616921
38298,5.881383,-4.101470,3.373116,0.620703,0.066808,0.515464
38299,5.997343,-3.594484,3.366037,0.410595,0.082149,0.436638
38300,5.976835,-3.344119,3.460465,0.093436,0.104115,0.354326
38301,5.891414,-3.460290,3.332325,-0.211164,0.055634,0.255589
38302,6.001897,-3.624574,3.065482,-0.537033,-0.024417,0.165265
38303,5.822389,-4.157828,2.945468,-0.794466,-0.132359,0.056877
38304,5.736453,-5.108140,3.083155,-0.970396,-0.258204,-0.004630
38305,6.059614,-6.130270,3.329100,-1.082179,-0.362956,0.020648
38306,6.568871,-7.113035,3.489600,-1.056760,-0.413290,0.065671
38307,6.976434,-7.887496,3.862335,-0.948608,-0.430981,0.099355
38308,7.204743,-8.565143,3.986096,-0.729687,-0.418735,0.135496
38309,7.243869,-8.802799,4.347977,-0.455534,-0.363793,0.159041
38310,7.485623,-8.567601,4.777718,-0.118304,-0.264931,0.157772
38311,7.741073,-8.182810,4.917925,0.177789,-0.116029,0.145622
38312,7.221498,-7.740240,4.679514,0.467246,0.034324,0.103947
38313,6.904954,-6.769610,4.373899,0.686113,0.115317,0.043168
38314,6.622434,-5.413822,4.008238,0.738683,0.216964,-0.045962
38315,6.247385,-4.377193,3.304784,0.661746,0.269588,-0.145971
38316,6.073444,-3.647764,2.956482,0.502197,0.266883,-0.284015
38317,5.890476,-3.409502,2.885524,0.302870,0.239191,-0.418357
38318,5.438054,-2.949349,2.713363,0.070662,0.169439,-0.563344
38319,5.312164,-2.546016,2.477888,-0.166160,0.051225,-0.708601
38320,5.510611,-2.578544,2.494085,-0.431384,-0.051922,-0.840394
38321,5.530151,-3.395749,2.803414,-0.617838,-0.131839,-0.939892
38322,5.696115,-4.214507,2.998964,-0.703339,-0.231414,-1.003578
38323,6.459812,-4.995291,2.958155,-0.684734,-0.295272,-1.038429
38324,7.033559,-5.799622,3.111798,-0.602153,-0.291081,-1.058295
38325,7.574091,-6.436384,3.316734,-0.426904,-0.272385,-1.071767
38326,7.987419,-6.702248,3.350233,-0.168766,-0.239161,-1.112741
38327,8.303795,-6.746258,3.492675,0.142804,-0.188204,-1.190068
38328,8.147518,-6.688415,3.470337,0.525653,-0.160448,-1.317410
38329,8.231055,-6.466764,3.379647,0.898450,-0.168074,-1.444039
38330,8.256505,-6.302727,3.324110,1.216456,-0.116610,-1.515090
38331,7.033635,-6.144559,3.336706,1.461445,-0.042490,-1.534722
38332,6.041066,-5.291597,3.558534,1.482638,-0.069360,-1.539988
38333,6.122658,-4.543682,3.469000,1.339898,-0.117747,-1.535100
38334,6.655472,-3.672389,3.227985,1.070580,-0.132818,-1.566606
38335,7.470780,-3.211750,2.578188,0.728657,-0.168446,-1.589413
38336,8.173869,-3.090925,2.042661,0.352276,-0.235939,-1.590339
38337,8.537452,-3.289641,1.689918,0.002597,-0.332217,-1.563582
38338,8.315122,-3.615252,1.361809,-0.286826,-0.504818,-1.528836
38339,8.124198,-4.128866,1.404474,-0.505470,-0.720206,-1.483259
38340,8.308613,-4.686978,2.235990,-0.661075,-0.863245,-1.437076
38341,8.818363,-5.176083,3.225961,-0.734169,-0.905116,-1.339406
38342,9.507491,-5.659093,4.015104,-0.729257,-0.834016,-1.204605
38343,10.031562,-5.978923,4.664533,-0.630810,-0.721255,-1.072870
38344,10.405113,-6.179537,5.167345,-0.473320,-0.559482,-0.986455
38345,10.174267,-6.607402,5.249816,-0.262268,-0.343515,-0.905805
38346,9.689760,-6.841905,5.122639,-0.010382,-0.155370,-0.813432
38347,9.066792,-6.589383,4.648015,0.256175,-0.018086,-0.718854
38348,8.957213,-5.791943,3.809672,0.436401,0.025223,-0.630454
38349,8.798028,-4.667186,2.963678,0.482275,0.051425,-0.573505
38350,8.483473,-3.421886,2.194969,0.417176,0.013822,-0.547820
38351,8.292054,-2.376247,1.428378,0.226661,-0.094031,-0.563933
38352,8.326026,-1.781312,1.007999,-0.049615,-0.213382,-0.602331
38353,7.916658,-1.840439,1.166543,-0.333835,-0.332637,-0.664696
38354,8.215876,-2.305956,2.069485,-0.591991,-0.451735,-0.691195
38355,8.848626,-2.711430,3.225790,-0.784889,-0.454085,-0.660070
38356,9.528242,-3.307616,4.359672,-0.843142,-0.370097,-0.625767
38357,10.223349,-3.955144,5.317477,-0.792170,-0.196829,-0.603454
38358,10.581517,-4.382683,5.860382,-0.609079,0.002461,-0.598231
38359,10.510385,-4.537636,6.045326,-0.317577,0.210472,-0.639096
38360,10.129055,-4.719563,5.733328,0.048112,0.382911,-0.678157
38361,9.636976,-4.500057,4.927093,0.410059,0.493992,-0.703529
38362,9.119070,-4.124528,3.647117,0.728470,0.530115,-0.736414
38363,8.799890,-3.686737,2.394686,0.995255,0.476688,-0.777721
38364,8.679642,-2.929627,1.424049,1.155109,0.412221,-0.831800
38365,8.242942,-2.111901,0.584866,1.191200,0.347818,-0.900476
38366,7.619060,-1.275632,-0.003208,1.149314,0.206901,-0.982704
38367,7.308466,-0.614082,-0.331009,0.981305,0.011488,-1.050012
38368,7.122350,-0.056188,-0.391602,0.690042,-0.219510,-1.087496
38369,7.181206,-0.171619,-0.694380,0.375684,-0.507524,-1.094244
38370,7.674682,-0.757153,-0.397102,0.098289,-0.811249,-1.043419
38371,8.178267,-1.139751,1.208608,-0.253390,-0.959229,-1.033950
38372,8.879798,-1.860827,2.422693,-0.470560,-0.968403,-1.030780
38373,9.979219,-2.775690,3.478303,-0.489907,-0.839691,-0.949282
38374,10.524838,-3.542275,4.654018,-0.378877,-0.577497,-0.777748
38375,10.279096,-3.845036,5.578242,-0.195769,-0.357178,-0.651106
38376,10.446740,-4.176025,5.617974,0.007042,-0.265864,-0.569957
38377,10.512294,-4.463395,4.822144,0.263915,-0.183417,-0.524731
38378,9.987151,-4.279588,3.753845,0.599384,-0.130870,-0.529439
38379,9.111411,-3.327725,3.073037,0.829826,-0.118909,-0.642685
38380,8.852641,-2.480141,2.308062,0.877103,-0.228645,-0.737662
38381,9.057874,-1.843671,0.891780,0.851738,-0.305373,-0.743364
38382,8.723303,-1.522832,0.227713,0.761163,-0.287327,-0.696897
38383,8.239563,-1.436449,0.243517,0.581627,-0.346131,-0.619955
38384,8.030563,-1.503071,0.248866,0.389261,-0.469162,-0.541768
38385,8.056757,-1.624887,-0.063479,0.202616,-0.640887,-0.450487
38386,8.124790,-1.614026,-0.417198,0.111471,-0.835718,-0.357880
38387,8.585411,-1.639606,-0.074244,0.042860,-1.007332,-0.295412
38388,9.931400,-1.708419,1.492963,-0.020406,-0.989087,-0.282314
38389,11.306442,-1.868139,3.989267,-0.174844,-0.785744,-0.228460
38390,11.973593,-2.273550,5.926066,-0.298285,-0.455435,-0.154336
38391,12.374236,-2.473095,6.959217,-0.251850,-0.137743,-0.045476
38392,12.267304,-2.791827,7.256135,-0.048778,0.144680,0.041891
38393,11.525210,-3.003658,6.872311,0.210251,0.368731,0.074409
38394,10.610531,-3.149981,5.782437,0.495377,0.477176,0.053477
38395,9.939742,-2.973299,4.387519,0.764353,0.493272,0.025205
38396,9.420521,-2.781434,2.787900,0.997947,0.454718,0.014899
38397,8.824488,-2.393337,1.270854,1.178628,0.390765,-0.009117
38398,8.117026,-2.080071,0.021744,1.278040,0.274008,-0.045375
38399,7.666611,-1.760082,-0.929476,1.320809,0.103274,-0.080722
38400,7.574460,-1.437866,-1.661311,1.271861,-0.066887,-0.085652
38401,7.445682,-1.243550,-2.099008,1.102083,-0.238298,-0.050332
38402,7.619530,-1.291588,-2.069367,0.882492,-0.422577,0.012991
38403,7.818033,-1.266770,-1.741449,0.710603,-0.588418,0.099732
38404,8.140168,-1.198044,-1.487417,0.527490,-0.811298,0.218926
38405,8.624284,-1.260515,-0.763974,0.335765,-0.947368,0.328373
38406,8.895576,-1.249725,0.995475,0.109627,-0.943434,0.368607
38407,9.749458,-1.230855,3.526967,-0.117805,-0.878037,0.423072
38408,11.592254,-0.992716,6.049804,-0.260790,-0.688061,0.549045
38409,13.176297,-0.811148,7.522944,-0.433219,-0.253287,0.680528
38410,13.461312,-0.992470,7.985597,-0.502575,0.239112,0.794958
38411,12.178745,-1.759262,7.076974,-0.435835,0.577612,0.860759
38412,10.304398,-2.446482,5.183890,-0.142990,0.626327,0.822195
38413,9.071688,-2.687162,3.002166,0.276438,0.445095,0.677074
38414,8.615214,-2.821451,0.936070,0.770652,0.224287,0.479231
38415,8.464233,-2.914954,-0.730156,1.262958,0.024526,0.305785
38416,8.350584,-2.565115,-1.687930,1.648869,-0.146244,0.198446
38417,7.961496,-1.893549,-2.242887,1.852817,-0.306016,0.161892
38418,7.563729,-1.230159,-2.527800,1.854715,-0.475616,0.189232
38419,7.581810,-0.938043,-2.496761,1.703044,-0.653119,0.261049
38420,8.242035,-0.831748,-1.959942,1.438152,-0.804589,0.372266
38421,9.146644,-0.696417,-1.033631,1.026846,-0.860228,0.506469
38422,9.720507,-0.365383,-0.292553,0.529553,-0.864292,0.663905
38423,9.706727,0.255868,0.475967,0.010789,-0.874130,0.754981
38424,9.995029,0.756817,2.322903,-0.432089,-0.858549,0.781832
38425,11.447148,0.717692,5.393934,-0.822966,-0.668476,0.822962
38426,12.888919,0.765036,8.059883,-1.296562,-0.211580,0.885073
38427,13.028556,0.321646,8.425427,-1.687536,0.325919,0.955395
38428,11.710299,-1.441119,7.060875,-1.712485,0.731718,1.063648
38429,9.934597,-3.842244,4.537235,-1.366982,0.760050,1.123798
38430,8.940101,-5.374573,2.131173,-0.722617,0.529879,1.054622
38431,8.641481,-5.835297,0.219041,-0.020522,0.228553,0.891119
38432,8.469372,-5.474523,-1.520086,0.637720,-0.013984,0.698704
38433,7.852695,-4.509369,-3.141965,1.215432,-0.188130,0.530813
38434,7.043985,-3.337805,-4.188587,1.572040,-0.380640,0.435727
38435,6.608752,-2.579026,-4.628261,1.691342,-0.633199,0.420090
38436,7.145905,-2.152161,-4.068871,1.638905,-0.887546,0.479950
38437,8.639355,-1.833161,-2.467298,1.323735,-0.999645,0.606615
38438,9.803156,-1.036756,-1.150455,0.732053,-0.954774,0.761649
38439,10.206645,0.305927,-0.394162,0.029000,-0.909350,0.877454
38440,10.614874,1.900547,0.821927,-0.751466,-0.949594,0.930592
38441,11.289699,2.648193,3.206192,-1.465555,-0.932828,0.886927
38442,12.626508,2.658045,7.289348,-2.161913,-0.654440,0.734177
38443,14.154486,2.248740,9.392173,-2.778276,-0.084223,0.610293
38444,13.239213,1.346085,7.845494,-3.001454,0.593185,0.530904
38445,10.213093,-1.623412,5.156827,-2.765217,0.908679,0.594068
38446,8.016080,-5.128365,2.058365,-2.103956,0.679349,0.591254
38447,7.551832,-6.688226,-0.379514,-1.245449,0.227030,0.440780
38448,7.691628,-7.185843,-2.316629,-0.304850,-0.196253,0.237625
38449,8.279696,-6.906905,-3.742322,0.673511,-0.463387,0.038439
38450,8.857922,-5.903539,-4.134302,1.432048,-0.512323,-0.062197
38451,8.880407,-4.514892,-3.681898,1.834205,-0.477425,-0.065682
38452,8.772867,-2.875595,-2.603660,1.976039,-0.495225,-0.068123
38453,9.379857,-1.242166,-1.072176,1.793380,-0.528191,-0.032633
38454,10.380495,-0.047693,0.666012,1.289336,-0.484479,0.050404
38455,10.855032,0.606829,2.123831,0.602153,-0.348555,0.151835
38456,10.553932,0.923573,2.419491,-0.083468,-0.235299,0.229781
38457,10.112729,0.613540,2.377546,-0.631126,-0.175857,0.275144
38458,10.155141,-0.460218,2.133811,-1.103386,-0.120365,0.315170
38459,10.056765,-1.730668,1.307246,-1.323716,-0.039345,0.319807
38460,9.581447,-2.663335,0.513812,-1.244560,-0.020220,0.293981
38461,9.307463,-3.429734,0.005366,-1.001521,-0.112549,0.220514
38462,9.627552,-4.147734,-0.407561,-0.619304,-0.191313,0.136996
38463,9.963479,-4.487164,-0.083997,-0.220002,-0.185839,0.056861
38464,10.192003,-4.296869,0.582126,0.129988,-0.160381,0.012088
38465,10.312357,-3.783910,1.502328,0.355093,-0.121610,0.009922
38466,10.228992,-2.758917,1.700943,0.439654,-0.099235,0.030677
38467,10.135365,-1.718340,0.983313,0.394379,-0.119703,0.021450
38468,10.433647,-1.446075,0.451657,0.308991,-0.123126,0.007484
38469,10.906330,-1.741620,0.662068,0.157058,-0.048942,-0.029393
38470,10.429870,-1.743351,0.335406,0.007623,0.018425,-0.116176
38471,9.455058,-1.632408,-0.841908,-0.054140,-0.033783,-0.198328
38472,8.850010,-1.785273,-1.875630,-0.020974,-0.158786,-0.245869
38473,8.827835,-1.575417,-1.701152,-0.032083,-0.251108,-0.262643
38474,9.132236,-0.764323,-0.912146,-0.292300,-0.276544,-0.222226
38475,9.428820,0.325866,-0.529338,-0.687650,-0.280159,-0.194005
38476,9.615983,0.852992,-0.256410,-1.085284,-0.282517,-0.178849
38477,9.887540,0.771370,-0.146483,-1.484557,-0.283760,-0.226800
38478,9.995095,0.378469,-0.174874,-1.813340,-0.270275,-0.332283
38479,9.758253,0.167040,0.600484,-1.948050,-0.278532,-0.527678
38480,10.935218,-0.922939,3.134130,-1.823959,-0.181977,-0.694865
38481,11.803324,-1.392206,4.941399,-1.643398,0.136155,-0.822720
38482,11.524362,-1.213694,5.323403,-1.349067,0.448326,-0.975791
38483,11.307026,-1.620288,4.662566,-1.032189,0.651816,-1.057950
38484,10.626929,-2.531618,2.447212,-0.634266,0.707110,-1.153861
38485,10.290492,-3.120981,1.054381,-0.066467,0.598477,-1.283910
38486,11.064203,-3.625793,0.471952,0.496610,0.501769,-1.415069
38487,11.700478,-3.669438,-0.144721,1.026003,0.521398,-1.548953
38488,10.787309,-3.353677,-1.760543,1.474790,0.540368,-1.663677
38489,8.719394,-2.654921,-4.085557,1.906517,0.363251,-1.770810
38490,7.419551,-1.980897,-5.716177,2.143830,0.002733,-1.799403
38491,7.382287,-1.947156,-5.978424,2.073423,-0.335709,-1.739494
38492,8.014771,-1.755430,-4.947100,1.843291,-0.518833,-1.622651
38493,8.838557,-0.815381,-3.031189,1.469123,-0.576348,-1.487169
38494,9.668849,0.912328,-1.314855,0.944875,-0.550152,-1.339739
38495,10.369142,2.787749,-0.060486,0.181484,-0.491079,-1.202765
38496,10.992806,3.665616,0.727942,-0.796060,-0.447096,-1.073877
38497,11.439264,2.905526,1.346424,-1.756792,-0.396199,-0.972701
38498,11.812390,0.952313,2.852155,-2.400207,-0.266109,-0.899988
38499,12.479345,-0.482325,4.360311,-2.738457,0.013240,-0.843655
38500,12.396686,-0.778113,4.597354,-2.759490,0.334381,-0.825337
38501,11.895507,-1.322309,3.910662,-2.562415,0.544550,-0.834553
38502,11.361614,-3.038039,2.513418,-2.097065,0.642921,-0.850918
38503,11.003760,-4.566263,1.389055,-1.337839,0.677303,-0.878214
38504,10.532796,-5.087811,0.102165,-0.534923,0.630748,-0.914982
38505,8.869675,-4.595865,-2.540675,0.208813,0.478669,-0.994120
38506,7.161241,-3.382206,-5.034122,0.951331,0.168313,-1.089052
38507,7.265248,-2.475119,-5.868241,1.476098,-0.198552,-1.053286
38508,8.401925,-1.892370,-5.051391,1.690652,-0.386885,-0.926920
38509,9.155779,-0.614282,-3.751559,1.652340,-0.449525,-0.823233
38510,9.121433,1.164133,-2.521243,1.386039,-0.483597,-0.741786
38511,9.337385,2.871194,-0.902137,0.921747,-0.534893,-0.632882
38512,10.487263,3.997517,1.147559,0.219407,-0.481585,-0.492142
38513,11.377937,4.379140,3.202254,-0.569837,-0.264304,-0.381115
38514,11.666290,4.241064,5.276781,-1.277701,0.004508,-0.331384
38515,12.476465,3.673494,6.606919,-1.834642,0.330999,-0.311365
38516,12.495423,2.569824,5.812002,-2.170264,0.676495,-0.326879
38517,11.429186,0.623601,3.835113,-1.897341,0.881042,-0.377227
38518,11.056853,-1.594797,2.318662,-1.190331,0.902211,-0.427897
38519,11.507363,-3.426018,1.160984,-0.284722,0.895814,-0.538977
38520,11.306553,-3.902094,0.024979,0.672830,0.936118,-0.703312
38521,9.341738,-2.887317,-2.141056,1.449080,0.902732,-0.891282
38522,7.179316,-1.647229,-5.057593,1.975262,0.597741,-1.003457
38523,6.770969,-0.849996,-6.814820,2.307002,0.203805,-0.984789
38524,7.621609,0.009456,-6.468841,2.352325,-0.122410,-0.909949
38525,8.360563,0.452187,-5.728701,2.119770,-0.300286,-0.802482
38526,8.581651,1.397871,-4.420769,1.758808,-0.457703,-0.658485
38527,8.905397,2.681539,-2.471936,1.250400,-0.579281,-0.477495
38528,9.565812,4.074349,0.194885,0.544153,-0.581219,-0.257235
38529,10.528981,4.918488,3.523689,-0.265460,-0.420489,-0.043379
38530,11.185873,4.777177,6.059184,-1.159860,-0.148880,0.122415
38531,11.064527,3.595865,6.587167,-1.876558,0.121917,0.213759
38532,10.801850,1.370547,5.194283,-2.186155,0.352506,0.337413
38533,9.942474,-0.988660,2.651939,-1.999977,0.453474,0.420056
38534,9.728997,-2.473434,0.921693,-1.335861,0.407665,0.392497
38535,10.782887,-3.174389,0.854699,-0.487287,0.398326,0.322481
38536,11.525772,-3.152666,1.238198,0.265477,0.539824,0.251696
38537,10.720127,-2.530338,0.664029,0.856711,0.651592,0.174595
38538,8.886724,-1.285944,-1.409929,1.332850,0.524246,0.072694
38539,7.155841,1.327976,-4.522694,1.541411,0.137101,-0.077907
38540,6.683076,4.218296,-5.974277,1.361604,-0.295216,-0.211268
38541,8.202065,4.317588,-4.966098,0.892372,-0.579369,-0.125320
38542,10.041042,3.158253,-2.364780,0.340945,-0.624931,0.033361
38543,10.464651,2.803196,-0.368983,-0.270669,-0.496100,0.141662
38544,9.715455,3.418117,0.970517,-0.970000,-0.402645,0.253329
38545,9.549020,3.872612,1.589097,-1.581699,-0.432947,0.370348
38546,10.367923,3.414333,2.795126,-1.963310,-0.407706,0.448888
38547,12.359370,1.562334,5.528374,-2.029413,-0.136020,0.434444
38548,13.754691,-0.191274,7.711670,-1.882184,0.442429,0.361692
38549,11.582561,-0.738128,6.459020,-1.628166,0.859022,0.195626
38550,8.189713,-0.744884,3.388157,-0.937331,0.739364,-0.013927
38551,8.980074,-0.651959,1.028213,-0.035329,0.414856,-0.173469
38552,11.491911,-1.327953,0.339575,0.758981,0.470267,-0.263401
38553,10.747382,-0.885517,0.057703,1.257317,0.755617,-0.388223
38554,8.093911,0.607507,-1.835325,1.430205,0.675664,-0.509510
38555,6.879863,2.588637,-4.031560,1.346424,0.276913,-0.547866
38556,7.577519,3.630691,-4.881167,0.959709,-0.122034,-0.470828
38557,8.827464,3.380245,-4.208483,0.349537,-0.350826,-0.351267
38558,9.798369,2.958546,-2.326957,-0.341022,-0.386903,-0.220297
38559,9.837753,2.327848,-0.711561,-1.047439,-0.320060,-0.080726
38560,9.528950,2.289195,0.572806,-1.687971,-0.286280,0.065041
38561,9.615620,2.173465,1.853169,-2.181157,-0.275689,0.187647
38562,11.003984,0.611737,4.156990,-2.285187,-0.130140,0.280575
38563,12.082817,-1.851975,5.905791,-1.998368,0.237993,0.326193
38564,10.721378,-2.904871,5.945996,-1.532368,0.518296,0.294420
38565,9.076968,-2.256595,4.086826,-1.000095,0.503171,0.187921
38566,8.719814,-1.452044,1.630804,-0.415234,0.354182,0.087494
38567,9.926248,-1.209243,0.132121,0.214628,0.314622,0.015933
38568,10.676369,-1.303828,-0.067231,0.727805,0.478027,-0.034960
38569,9.951797,-0.999393,-0.327875,0.990021,0.597809,-0.094066
38570,8.524578,0.306479,-1.361780,1.067861,0.488977,-0.127081
38571,7.730322,2.194378,-2.536857,0.895439,0.214789,-0.119578
38572,7.739190,2.919688,-3.631051,0.453752,-0.088141,-0.063226
38573,8.526520,2.613095,-3.407949,-0.024739,-0.327679,0.011252
38574,9.629210,1.836336,-2.180581,-0.518231,-0.393766,0.126758
38575,9.724381,0.504071,-1.088141,-0.925087,-0.381620,0.249399
38576,9.082716,0.188431,-0.401030,-1.109632,-0.416271,0.327299
38577,8.903306,0.525441,0.154658,-1.237683,-0.518690,0.382766
38578,9.539722,0.166645,0.673026,-1.312711,-0.580235,0.448950
38579,10.059016,-0.604018,1.204930,-1.249735,-0.551266,0.499934
38580,10.163293,-1.306167,1.815342,-1.064236,-0.483606,0.522711
38581,10.529048,-1.828646,2.602975,-0.732428,-0.412103,0.529062
38582,10.755371,-1.839223,3.176088,-0.346468,-0.292800,0.538104
38583,10.413892,-1.176354,3.247286,-0.046193,-0.210865,0.511117
38584,10.352284,-0.030679,2.521471,0.146932,-0.178699,0.439152
38585,10.445125,0.656341,1.444970,0.244677,-0.106396,0.374150
38586,10.274220,0.767436,0.647048,0.321529,-0.026729,0.315209
38587,9.986583,0.849381,0.302422,0.369041,0.006522,0.256582
38588,10.008517,0.928522,0.430917,0.369386,0.023460,0.192471
38589,9.919516,0.886478,0.602082,0.331319,0.009366,0.143083
38590,9.822821,0.705666,0.673003,0.279904,-0.033131,0.109940
38591,9.989219,0.351173,0.735469,0.261938,-0.078498,0.114734
38592,10.407463,-0.266513,1.376518,0.367398,-0.081243,0.119135
38593,11.127158,-0.824116,2.273748,0.633212,-0.006352,0.107730
38594,10.988109,-1.274430,2.180730,0.876392,0.092425,0.025764
38595,10.037106,-1.273282,1.012393,1.113102,0.101087,-0.056195
38596,9.449126,-0.761991,-0.298884,1.374836,0.050411,-0.081077
38597,8.941933,-0.463991,-1.554527,1.501237,-0.013903,-0.055721
38598,8.165215,1.045527,-1.819501,1.389272,-0.055466,-0.039287
38599,8.282841,2.865824,-1.285932,0.951189,-0.100771,0.020872
38600,8.802351,2.894094,-0.707433,0.331601,-0.108412,0.109724
38601,9.141282,2.468281,-0.036028,-0.157973,-0.125982,0.190538
38602,9.470375,1.616245,0.148423,-0.524510,-0.185195,0.236044
38603,9.582433,0.756057,0.108146,-0.665825,-0.216767,0.246587
38604,9.780355,0.594086,0.464501,-0.622370,-0.222185,0.250080
38605,10.417318,0.487265,1.200422,-0.553259,-0.166893,0.246651
38606,10.830354,0.543942,2.498573,-0.444029,-0.050501,0.213466
38607,11.181387,0.429442,3.663918,-0.275508,0.091688,0.140808
38608,10.668727,0.266721,3.461683,-0.097754,0.202773,0.031570
38609,10.005245,1.207805,2.504247,-0.000864,0.203538,-0.060445
38610,10.355431,1.082304,1.150684,0.001031,0.222659,-0.082048
38611,10.375542,0.383408,0.445953,0.025557,0.304419,-0.094030
38612,9.974304,0.239067,0.189499,0.034419,0.344621,-0.110251
38613,9.800918,0.324866,-0.030060,0.018996,0.312632,-0.112685
38614,9.697068,0.350922,-0.210128,-0.004750,0.258634,-0.102957
38615,9.578655,0.223334,-0.293350,-0.019410,0.210974,-0.094152
38616,9.563729,0.180411,-0.173993,-0.041894,0.173128,-0.093045
38617,9.477692,0.160894,-0.038597,-0.070630,0.142647,-0.082424
38618,9.423965,-0.081614,-0.099222,-0.080565,0.099468,-0.064157
38619,9.392936,-0.283813,-0.103929,-0.051011,0.049509,-0.044213
38620,9.461237,-0.338716,-0.055997,-0.011477,0.012191,-0.037030
38621,9.518011,-0.191884,0.098245,0.028125,-0.013965,-0.028165
38622,9.531574,-0.111394,0.203752,0.048709,-0.032795,-0.020006
38623,9.524892,0.003067,0.251479,0.070271,-0.049297,-0.006069
38624,9.598697,0.117677,0.374991,0.078098,-0.071775,0.000135
38625,9.715608,0.193868,0.329999,0.072943,-0.084213,0.013598
38626,9.672122,0.269692,0.341996,0.066818,-0.105329,0.020555
38627,9.809643,0.309197,0.348700,0.058128,-0.130853,0.030117
38628,9.870137,0.384207,0.425242,0.044770,-0.146944,0.040860
38629,9.874978,0.475873,0.488762,0.031090,-0.168050,0.049204
38630,9.965482,0.578611,0.569127,0.009783,-0.181247,0.059471
38631,10.000417,0.581627,0.778326,-0.024625,-0.190390,0.066918
38632,10.037909,0.575886,0.853465,-0.049224,-0.193815,0.068730
38633,10.092602,0.582154,0.972803,-0.064861,-0.187841,0.069258
38634,10.136788,0.505207,1.066542,-0.074408,-0.173453,0.061325
38635,10.113016,0.530202,1.187194,-0.073686,-0.145044,0.051249
38636,10.207183,0.507796,1.278501,-0.069948,-0.116632,0.040622
38637,10.384155,0.420514,1.385053,-0.058196,-0.094752,0.038735
38638,10.544625,0.256375,1.386744,-0.042839,-0.059855,0.015722
38639,10.633153,0.078006,1.343433,-0.017049,-0.024084,-0.026578
38640,10.747394,-0.191726,1.104755,0.023270,0.027581,-0.081472
38641,10.476158,-0.417341,0.958728,0.109963,0.099891,-0.128949
38642,10.221307,-0.510849,0.722206,0.197224,0.137258,-0.143857
38643,10.163729,-0.260309,0.585636,0.289488,0.157589,-0.133986
38644,10.023976,0.080128,0.644861,0.323913,0.190108,-0.105544
38645,9.874738,0.167017,0.617574,0.305965,0.204697,-0.074450
38646,9.777327,0.236892,0.519756,0.281723,0.198553,-0.045700
38647,9.799086,0.197888,0.461308,0.252554,0.193816,-0.017820
38648,9.708956,0.133267,0.452024,0.237243,0.195643,0.009747
38649,9.710198,0.108911,0.476683,0.225463,0.188750,0.030045
38650,9.707240,0.129682,0.488448,0.227237,0.189708,0.048367
38651,9.683424,0.125599,0.515478,0.236450,0.200061,0.065595
38652,9.676390,0.190147,0.515062,0.262814,0.199563,0.081310
38653,9.681688,0.313888,0.545581,0.276063,0.209448,0.094750
38654,9.659254,0.427261,0.643333,0.278391,0.215712,0.116901
38655,9.681340,0.416872,0.654843,0.272181,0.216772,0.125649
38656,9.722717,0.451564,0.644962,0.271547,0.218693,0.139554
38657,9.721535,0.585308,0.726609,0.259271,0.210607,0.139744
38658,9.690727,0.667291,0.725823,0.230754,0.203211,0.145761
38659,9.720634,0.638987,0.683558,0.195477,0.192204,0.148770
38660,9.718206,0.626533,0.619818,0.168930,0.185336,0.157468
38661,9.811961,0.585797,0.612011,0.140697,0.181725,0.156548
38662,9.828748,0.415979,0.619403,0.116247,0.178785,0.159563
38663,9.764994,0.287688,0.613698,0.118866,0.162332,0.164777
38664,9.765984,0.249082,0.635326,0.123614,0.141845,0.164006
38665,9.739531,0.304044,0.715483,0.123832,0.127799,0.164573
38666,9.683817,0.329807,0.786200,0.111058,0.097567,0.161996
38667,9.646471,0.278189,0.765375,0.114621,0.080643,0.164034
38668,9.675962,0.269993,0.705619,0.113967,0.068974,0.159702
38669,9.687528,0.339370,0.733908,0.107322,0.062176,0.166560
38670,9.644219,0.426829,0.747282,0.091402,0.050888,0.164703
