// Start Time: Unknown
// Update Rate: 100.0Hz
// Filter Profile: human (46.1)
// Firmware Version: 4.3.5
PacketCounter,Acc_X,Acc_Y,Acc_Z,Gyr_X,Gyr_Y,Gyr_Z
50384,9.499395,-1.704451,0.933459,0.193562,-0.008043,0.058171
50385,9.547744,-1.464686,1.026454,0.130910,0.001102,0.019835
50386,9.596935,-1.256645,1.118664,0.051938,0.011081,-0.011285
50387,9.692543,-1.149688,1.157854,-0.039294,0.014016,-0.039132
50388,9.647016,-1.077166,1.211226,-0.118186,0.025265,-0.063294
50389,9.666025,-1.071491,1.227732,-0.188634,0.019850,-0.089890
50390,9.721541,-1.253746,1.202534,-0.225997,0.006757,-0.104692
50391,9.729740,-1.452586,1.156189,-0.242583,0.000390,-0.115710
50392,9.775005,-1.615878,1.140395,-0.243542,-0.007263,-0.119122
50393,9.844396,-1.847295,1.096248,-0.226055,-0.013674,-0.114915
50394,9.913106,-2.009856,1.051699,-0.206253,-0.021593,-0.104290
50395,10.029285,-2.120712,1.026079,-0.183873,-0.024801,-0.092137
50396,9.997525,-2.286362,0.985883,-0.154696,-0.003976,-0.082118
50397,9.947201,-2.452874,0.930821,-0.113705,-0.008634,-0.067442
50398,9.921302,-2.569409,0.922270,-0.062735,-0.010420,-0.045251
50399,9.886696,-2.635508,0.886961,-0.008267,-0.009671,-0.021536
50400,9.845396,-2.600511,0.897541,0.043592,-0.005798,-0.006233
50401,9.766692,-2.566814,0.877650,0.083145,-0.003836,0.011444
50402,9.760327,-2.464242,0.923742,0.109232,-0.005976,0.007154
50403,9.793522,-2.291939,0.961033,0.104290,-0.003199,0.021565
50404,9.797139,-1.930171,0.956903,0.073388,0.013859,0.018111
50405,9.824181,-1.294461,1.072620,-0.057516,0.013956,0.020082
50406,9.925255,-0.499210,0.915251,-0.311679,0.032755,0.024433
50407,10.003086,0.065331,0.939906,-0.687979,0.058383,0.011760
50408,10.243866,0.249935,1.007060,-1.079046,0.094410,-0.016093
50409,10.263000,0.135397,1.034154,-1.441772,0.154201,-0.024358
50410,10.263097,0.018043,1.048725,-1.756390,0.214084,-0.028319
50411,10.030905,-0.530170,0.934378,-2.054446,0.265747,-0.019160
50412,9.629658,-1.163366,0.429654,-2.183053,0.274783,-0.009601
50413,9.462525,-1.831189,0.254969,-2.187303,0.229500,-0.035494
50414,9.792622,-2.134356,0.086008,-2.088803,0.219360,-0.055691
50415,9.860149,-2.362896,0.105148,-1.961465,0.232461,-0.061202
50416,9.933863,-2.508225,0.237807,-1.795670,0.242911,-0.064447
50417,9.795923,-2.576601,0.289414,-1.625058,0.249144,-0.060277
50418,9.631255,-2.729592,0.393382,-1.475455,0.246537,-0.059057
50419,9.520565,-2.963918,0.382086,-1.279875,0.233791,-0.053391
50420,9.449706,-2.915878,0.459383,-1.075683,0.225797,-0.065691
50421,9.460759,-2.828867,0.607403,-0.905441,0.222463,-0.070148
50422,9.497157,-2.835355,0.636476,-0.765353,0.210120,-0.056852
50423,9.447200,-2.749975,0.711574,-0.666014,0.201230,-0.046034
50424,9.458045,-2.733004,0.778822,-0.601608,0.199123,-0.031606
50425,9.461638,-2.693051,0.824058,-0.558315,0.195048,-0.023087
50426,9.385851,-2.757586,0.783763,-0.517586,0.186737,-0.013273
50427,9.308951,-2.788794,0.752951,-0.472940,0.182205,-0.012600
50428,9.253537,-2.923091,0.708394,-0.418406,0.169675,-0.004068
50429,9.125313,-3.011425,0.681481,-0.351602,0.155046,0.002158
50430,9.117915,-3.166498,0.651115,-0.271132,0.132730,0.009124
50431,9.111966,-3.214591,0.685068,-0.173996,0.117451,0.013193
50432,9.168963,-3.222170,0.772976,-0.078836,0.102895,0.016365
50433,9.214263,-3.212025,0.807433,0.025675,0.102810,0.014716
50434,9.355098,-3.205341,0.813451,0.124009,0.097589,0.010916
50435,9.480640,-3.082093,0.797475,0.221308,0.103405,0.016147
50436,9.481734,-2.969803,0.806522,0.300098,0.116418,0.010646
50437,9.458858,-2.828024,0.777947,0.345087,0.117788,0.019644
50438,9.365489,-2.707197,0.746610,0.366681,0.110847,0.029359
50439,9.221833,-2.677923,0.707794,0.379994,0.090861,0.041674
50440,9.213861,-2.654763,0.701787,0.388745,0.063413,0.049419
50441,9.315057,-2.578483,0.771724,0.403296,0.044406,0.052474
50442,9.411295,-2.511239,0.807082,0.404774,0.037019,0.064641
50443,9.558756,-2.423443,0.899853,0.406717,0.022264,0.071667
50444,9.628385,-2.440202,0.905419,0.420677,0.029802,0.077490
50445,9.623851,-2.377003,0.936868,0.444540,0.030163,0.075624
50446,9.597051,-2.318905,0.918548,0.461449,0.025903,0.077215
50447,9.593885,-2.288439,0.940799,0.485744,0.027709,0.075183
50448,9.514334,-2.253006,0.937388,0.521521,0.028807,0.068022
50449,9.515399,-2.177094,1.000800,0.562794,0.008427,0.057885
50450,9.608897,-1.938963,0.999767,0.563200,0.001732,0.048094
50451,9.741539,-1.663401,1.069829,0.527052,0.009320,0.039946
50452,9.746952,-1.473552,1.110604,0.461705,0.023524,0.032159
50453,9.653353,-1.385816,1.196973,0.367645,0.022822,0.018777
50454,9.679828,-1.298679,1.227391,0.275864,0.024511,-0.003008
50455,9.672649,-1.238293,1.215214,0.170757,0.026296,-0.015431
50456,9.673709,-1.267995,1.211946,0.063613,0.029959,-0.037716
50457,9.678702,-1.252681,1.247968,-0.033701,0.039433,-0.054334
50458,9.685934,-1.304844,1.268627,-0.138361,0.046714,-0.062224
50459,9.752023,-1.503062,1.235530,-0.229428,0.051048,-0.068944
50460,9.860078,-1.698085,1.193874,-0.276261,0.054013,-0.077822
50461,9.837442,-1.812089,1.089909,-0.302576,0.067607,-0.084287
50462,9.773914,-1.995251,1.050147,-0.325566,0.070009,-0.082697
50463,9.662877,-2.013437,1.055403,-0.322483,0.066556,-0.088926
50464,9.546972,-1.974697,0.969350,-0.331621,0.046496,-0.090394
50465,9.628316,-2.005961,0.911787,-0.354341,0.034184,-0.096749
50466,9.709965,-2.027717,1.032490,-0.368349,0.039020,-0.088747
50467,9.741972,-2.107636,1.086482,-0.369817,0.048454,-0.079627
50468,9.763848,-2.242249,1.139949,-0.365761,0.059300,-0.074808
50469,9.718142,-2.464775,1.174358,-0.330253,0.074032,-0.065117
50470,9.569790,-2.589630,1.159265,-0.247189,0.078094,-0.062338
50471,9.479575,-2.748795,1.219814,-0.174198,0.073362,-0.059889
50472,9.487784,-2.802336,1.238276,-0.083632,0.068442,-0.053146
50473,9.482980,-2.842422,1.274864,0.006926,0.063599,-0.046414
50474,9.507361,-2.720917,1.317927,0.070647,0.062120,-0.043493
50475,9.567083,-2.571760,1.331032,0.089895,0.058087,-0.032695
50476,9.593387,-2.449845,1.301725,0.072112,0.066255,-0.019878
50477,9.601021,-2.401855,1.204893,0.036247,0.069581,-0.012714
50478,9.558826,-2.404407,1.218367,-0.011020,0.069479,-0.009032
50479,9.539845,-2.476888,1.157043,-0.040096,0.068964,0.000496
50480,9.548722,-2.651072,0.938977,-0.047772,0.059694,0.009627
50481,9.601840,-2.806404,0.926878,-0.030858,0.072069,0.018934
50482,9.594910,-3.038162,0.855892,0.074792,0.067506,0.024441
50483,9.527942,-3.092295,0.780021,0.204661,0.037822,0.036186
50484,9.595225,-3.039787,0.802811,0.315815,0.022151,0.034782
50485,9.517348,-2.995212,0.902267,0.403022,0.009420,0.044048
50486,9.531208,-2.966493,0.941484,0.476751,0.005164,0.067756
50487,9.514290,-2.922289,0.980658,0.548984,-0.005915,0.089209
50488,9.527219,-2.828670,0.963558,0.575717,-0.023428,0.103402
50489,9.544058,-2.793085,1.036242,0.621040,-0.013509,0.127086
50490,9.409622,-2.674336,1.102895,0.683290,-0.015239,0.142459
50491,9.383539,-2.363832,1.128256,0.703222,-0.020573,0.127905
50492,9.392661,-2.123115,1.242821,0.685000,-0.005631,0.118208
50493,9.387616,-2.057609,1.270901,0.648765,0.008278,0.104092
50494,9.539710,-1.968543,1.213292,0.590746,0.002042,0.092095
50495,9.739384,-1.899922,1.172800,0.516868,0.014236,0.085374
50496,9.831850,-1.991496,1.110416,0.415428,0.023601,0.094140
50497,9.952478,-2.280595,1.060429,0.357938,0.036525,0.116586
50498,9.943193,-2.479041,1.051485,0.349294,0.055424,0.141772
50499,10.038466,-2.601211,1.020946,0.407101,0.063794,0.154869
50500,10.068864,-2.553868,1.013634,0.535327,0.082957,0.159559
50501,10.106254,-2.314738,1.029286,0.659942,0.091207,0.132068
50502,10.192850,-2.030472,1.002055,0.718222,0.088684,0.134474
50503,10.097552,-1.864399,1.138051,0.759421,0.100033,0.146618
50504,9.905885,-1.555635,1.245823,0.764764,0.094610,0.142480
50505,9.917024,-1.274771,1.352324,0.720703,0.092552,0.130861
50506,9.920851,-1.126703,1.551086,0.657185,0.103713,0.124110
50507,9.968451,-0.914438,1.676929,0.564209,0.105568,0.105863
50508,10.222518,-0.775011,1.729202,0.437978,0.116363,0.084401
50509,10.472401,-0.813472,1.802861,0.236838,0.129430,0.079592
50510,11.000833,-1.156629,1.954126,0.009626,0.141528,0.131168
50511,11.447138,-1.698529,2.200302,-0.201059,0.177390,0.213499
50512,11.828312,-2.015903,2.291293,-0.386913,0.231587,0.325871
50513,12.019941,-2.471739,2.175762,-0.526831,0.301170,0.470747
50514,11.827309,-3.081459,1.999285,-0.568408,0.385043,0.614366
50515,11.276793,-3.850281,1.761460,-0.433303,0.432761,0.729207
50516,10.735325,-4.467924,1.593212,-0.104616,0.440889,0.795936
50517,10.605363,-4.586409,1.520946,0.385364,0.432767,0.812167
50518,10.604625,-4.312107,1.705949,0.845306,0.438933,0.813263
50519,10.818264,-3.750932,1.852978,1.234786,0.445507,0.825012
50520,11.017395,-3.676097,2.548234,1.455318,0.496883,0.847598
50521,11.321969,-4.047531,3.131542,1.631054,0.548746,0.892278
50522,11.536690,-4.313793,3.692041,1.889171,0.672383,0.984711
50523,11.661531,-4.373341,4.338655,2.083090,0.852841,1.035747
50524,11.581364,-4.475995,4.720665,2.187388,1.066727,1.072052
50525,11.372004,-4.779209,4.830872,2.294834,1.300372,1.123093
50526,10.807357,-5.064394,5.024787,2.357172,1.482120,1.162510
50527,10.604185,-5.070001,5.113707,2.362907,1.622330,1.202700
50528,10.499846,-5.009522,5.138334,2.356547,1.779710,1.245773
50529,10.441622,-5.097388,5.493842,2.276738,1.926690,1.255841
50530,10.323478,-4.910834,5.716589,2.186883,2.084377,1.279382
50531,9.988887,-4.710229,6.130509,2.037495,2.238201,1.340407
50532,9.428853,-4.607201,6.744109,1.773029,2.396474,1.449572
50533,8.943044,-4.846936,6.831237,1.532423,2.531143,1.569559
50534,8.428916,-5.300202,7.003082,1.338229,2.651371,1.685793
50535,8.112205,-5.814634,7.055589,1.274634,2.752438,1.788763
50536,7.702280,-6.357379,7.203914,1.272775,2.852087,1.903177
50537,7.537780,-6.912275,7.236531,1.323836,2.936290,2.045169
50538,7.098563,-7.207314,6.696363,1.459309,3.017001,2.180518
50539,6.434807,-6.859670,6.378349,1.692149,3.085063,2.293952
50540,5.478298,-6.232122,6.363077,1.832414,3.170075,2.390193
50541,4.375096,-5.844785,6.179783,1.847976,3.214152,2.499490
50542,3.808449,-5.418195,6.626032,1.881435,3.260164,2.582199
50543,3.244170,-4.948303,6.398425,1.846804,3.310325,2.684535
50544,2.724637,-4.432190,5.972770,1.808932,3.320271,2.734873
50545,2.392475,-4.019195,6.143107,1.724990,3.354584,2.765187
50546,1.772248,-4.081371,5.893903,1.580175,3.365738,2.816488
50547,1.542801,-3.489517,5.826346,1.603453,3.346710,2.811026
50548,1.203403,-2.590563,6.320882,1.508010,3.368561,2.788543
50549,0.785464,-1.505933,6.353995,1.330513,3.368752,2.709312
50550,0.486754,-0.206259,6.397996,1.073028,3.371472,2.581755
50551,-0.280036,0.447957,6.100403,0.610273,3.345318,2.445456
50552,-1.048315,0.476081,5.747508,0.107769,3.250937,2.332419
50553,-1.590697,-0.182939,5.397340,-0.337510,3.097961,2.237735
50554,-1.700813,-1.813915,5.482772,-0.656289,2.924524,2.141282
50555,-1.568416,-4.053786,5.638037,-0.689359,2.788740,2.085415
50556,-1.338707,-6.086315,6.098774,-0.341224,2.663222,2.023842
50557,-1.150747,-7.173459,6.859468,0.234833,2.562105,1.984539
50558,-1.200524,-6.790858,7.482093,0.893655,2.496073,1.893242
50559,-1.539981,-5.643503,7.985268,1.299106,2.464161,1.759637
50560,-2.061971,-4.445922,8.190738,1.489256,2.429985,1.627887
50561,-2.466533,-3.601187,8.333845,1.482107,2.348683,1.479543
50562,-2.358833,-3.404761,8.641212,1.389149,2.236432,1.341470
50563,-1.913155,-3.736775,9.174472,1.300476,2.127167,1.229751
50564,-1.239083,-4.151040,9.813618,1.234934,2.056479,1.158125
50565,-0.790686,-4.356011,10.415676,1.210740,2.032679,1.116004
50566,-0.787417,-4.339791,10.605371,1.140604,2.003318,1.091696
50567,-0.953453,-3.817334,10.548980,1.020632,1.945226,1.080214
50568,-1.343357,-3.275409,10.312096,0.796162,1.861959,1.071246
50569,-1.763409,-2.763544,9.945319,0.532452,1.749250,1.045361
50570,-2.248554,-2.380770,9.218224,0.244061,1.592037,1.012290
50571,-2.669379,-2.095972,8.514554,0.007366,1.387443,0.975213
50572,-3.082639,-1.909329,7.622146,-0.194736,1.153469,0.921516
50573,-3.524147,-1.737158,6.900309,-0.300426,0.890119,0.859190
50574,-3.875084,-1.707568,6.468506,-0.388131,0.602996,0.783247
50575,-4.098410,-2.175175,6.417680,-0.398794,0.333868,0.733529
50576,-4.239308,-2.511192,6.468100,-0.259254,0.072955,0.675694
50577,-3.455284,-3.607423,8.417744,-0.190140,-0.128886,0.627965
50578,-2.230732,-5.613158,10.032741,-0.050885,-0.198539,0.656156
50579,-1.436571,-6.411764,10.655083,0.472384,-0.149081,0.703046
50580,-1.752478,-5.517215,10.535068,0.941800,-0.120126,0.705538
50581,-2.688393,-3.998084,10.018855,1.153176,-0.154163,0.713183
50582,-3.534815,-2.585912,9.155815,1.104854,-0.258070,0.727008
50583,-4.096979,-1.537670,8.288277,0.926387,-0.410246,0.725942
50584,-4.424145,-0.897034,7.836842,0.616881,-0.608655,0.688606
50585,-4.382843,-0.914797,7.386623,0.335820,-0.851664,0.615578
50586,-4.334746,-1.379323,6.955813,0.139044,-1.074503,0.525883
50587,-4.280225,-1.551434,6.610300,0.063583,-1.311057,0.449225
50588,-3.811959,-1.546320,6.440831,-0.032803,-1.552713,0.373844
50589,-2.765153,-1.934932,6.683865,-0.060641,-1.698619,0.300298
50590,-2.932606,-1.920846,6.326463,0.108180,-1.865948,0.239016
50591,-3.018262,-1.693440,5.961059,0.182653,-2.068741,0.107865
50592,-2.888992,-2.342953,5.777260,0.409908,-2.278387,-0.031551
50593,-2.490034,-2.343292,5.882151,0.744123,-2.520335,-0.207356
50594,-1.129869,-2.333893,7.208582,1.034834,-2.711212,-0.409105
50595,0.927735,-2.749227,8.903224,1.201446,-2.758008,-0.547179
50596,3.379456,-2.997355,10.172469,1.382909,-2.676028,-0.626225
50597,5.390131,-3.108638,10.603451,1.452773,-2.467283,-0.644704
50598,6.721405,-2.582696,10.498431,1.432927,-2.193896,-0.629087
50599,6.955027,-1.395931,9.971056,1.230176,-1.906298,-0.575506
50600,5.488160,-0.492398,9.453118,0.815770,-1.678717,-0.479886
50601,3.283957,-0.063030,8.591027,0.379023,-1.606222,-0.391381
50602,1.550527,-0.015544,7.863776,0.024585,-1.652135,-0.399012
50603,0.490370,-0.229602,7.318542,-0.172474,-1.774742,-0.513211
50604,0.391979,-0.256796,7.049043,-0.226139,-1.946619,-0.679798
50605,0.859409,-0.223435,7.135859,-0.239783,-2.106411,-0.832832
50606,1.389508,-0.328114,7.179021,-0.212097,-2.224338,-0.971412
50607,1.868476,-0.458312,7.252285,-0.132393,-2.326705,-1.114572
50608,2.299836,-0.397950,7.231942,-0.047737,-2.422027,-1.232015
50609,2.898248,-0.324230,7.387669,0.001565,-2.529419,-1.346059
50610,3.775645,-0.131589,7.470044,0.002110,-2.626573,-1.442284
50611,4.639214,-0.067935,7.487374,-0.023849,-2.688026,-1.507904
50612,5.416964,0.089357,7.370618,-0.055587,-2.727764,-1.570170
50613,6.040581,0.351233,7.523218,-0.135425,-2.773465,-1.630831
50614,6.643087,0.492922,7.757004,-0.283946,-2.785974,-1.684863
50615,7.068452,0.447992,8.163867,-0.484325,-2.756428,-1.741083
50616,7.505646,0.091893,8.568382,-0.659367,-2.681739,-1.763531
50617,8.109184,-0.020750,9.129807,-0.774289,-2.571105,-1.755186
50618,8.838001,-0.078882,9.675625,-1.016094,-2.381794,-1.726154
50619,9.402467,-0.596215,10.067282,-1.308044,-2.121198,-1.631636
50620,9.604108,-1.319524,10.338971,-1.570001,-1.805185,-1.476377
50621,9.353786,-2.127752,10.194035,-1.726696,-1.470519,-1.290712
50622,8.779783,-2.054658,9.957582,-1.709141,-1.163792,-1.127740
50623,8.417204,-1.312620,9.271028,-1.783285,-0.891969,-1.003403
50624,8.286285,-0.937117,8.828154,-2.142402,-0.635867,-0.812415
50625,8.129622,-1.228607,8.133697,-2.518613,-0.395903,-0.526392
50626,7.885361,-1.964330,7.695876,-2.826126,-0.151257,-0.244925
50627,7.745377,-3.190563,7.771810,-2.981185,0.084529,0.031663
50628,7.357371,-4.456921,7.825538,-2.838304,0.299726,0.322509
50629,7.062557,-5.495297,8.649865,-2.539064,0.459430,0.610046
50630,7.480177,-6.335400,8.970624,-2.050339,0.639960,0.899425
50631,7.911748,-6.175155,8.948805,-1.382087,0.883007,1.181865
50632,7.993459,-5.671491,8.746279,-0.790189,1.100976,1.415719
50633,8.271601,-5.387767,8.271216,-0.293964,1.275926,1.590930
50634,8.608013,-5.209553,7.842397,0.147319,1.453694,1.784423
50635,8.883210,-4.846426,7.320040,0.490014,1.586105,1.978661
50636,9.238660,-4.294633,7.249017,0.616628,1.680141,2.148231
50637,9.264997,-3.777974,7.351311,0.647896,1.762416,2.286185
50638,8.818456,-3.509407,7.684239,0.569031,1.833204,2.350802
50639,8.080183,-3.703924,7.933367,0.495218,1.866046,2.380844
50640,7.084314,-3.967907,8.238872,0.506750,1.891596,2.371953
50641,6.286377,-4.066839,8.615914,0.571924,1.872546,2.316215
50642,5.866557,-3.822915,8.704328,0.649423,1.846071,2.245568
50643,5.688323,-3.422573,9.080754,0.637642,1.841873,2.171699
50644,5.465429,-3.032396,9.278110,0.556477,1.850381,2.113763
50645,4.799342,-2.719388,9.201156,0.422973,1.839455,2.073661
50646,3.958182,-2.662340,9.026595,0.263428,1.785735,2.026277
50647,3.101187,-2.833221,9.018487,0.147063,1.701413,1.957987
50648,2.335247,-3.165476,8.956491,0.086967,1.589882,1.880090
50649,1.764036,-3.431166,8.832928,0.099083,1.474678,1.780871
50650,1.478994,-3.623898,8.885474,0.138861,1.358025,1.667814
50651,1.213989,-3.739350,8.990391,0.178699,1.254439,1.549420
50652,1.043608,-3.660643,9.269193,0.241164,1.156124,1.418524
50653,0.763787,-3.528439,9.374679,0.221681,1.077774,1.308874
50654,0.364159,-3.121182,9.208405,0.211866,1.006409,1.197929
50655,-0.240469,-3.031753,9.119399,0.096292,0.921403,1.087312
50656,-0.820268,-3.138988,9.002492,0.015329,0.815988,0.997917
50657,-1.278867,-3.179058,8.683225,-0.038952,0.710833,0.896846
50658,-1.555518,-3.207522,8.645978,-0.092519,0.586703,0.787466
50659,-1.403166,-3.317977,8.783513,-0.165595,0.474979,0.682433
50660,-1.197960,-3.481351,8.733995,-0.188521,0.399151,0.578047
50661,-1.116944,-3.430461,8.865827,-0.212977,0.339849,0.477255
50662,-1.179197,-3.128625,8.656337,-0.202950,0.297950,0.344220
50663,-1.528646,-3.052752,8.544279,-0.274050,0.245781,0.190856
50664,-1.695236,-3.302207,8.791432,-0.357083,0.186145,0.059829
50665,-1.657908,-3.709981,8.812654,-0.406001,0.126203,-0.030973
50666,-1.779718,-3.575331,8.381952,-0.388289,0.056673,-0.131456
50667,-1.806459,-3.534909,8.290841,-0.459621,-0.043628,-0.246246
50668,-1.840502,-3.796958,8.077429,-0.511025,-0.145950,-0.329378
50669,-1.871103,-3.781229,8.091786,-0.462142,-0.235858,-0.424056
50670,-1.474771,-4.221783,9.069718,-0.505128,-0.305447,-0.510532
50671,-1.096905,-4.813379,8.989967,-0.458135,-0.307986,-0.536677
50672,-1.182975,-4.748610,9.417164,-0.330384,-0.283070,-0.580135
50673,-1.590804,-4.613737,8.927537,-0.293549,-0.301953,-0.623657
50674,-2.162142,-3.836545,8.350036,-0.214826,-0.345810,-0.690139
50675,-2.508540,-3.451563,8.419813,-0.310309,-0.414709,-0.793381
50676,-2.461139,-3.230574,8.151080,-0.375718,-0.473000,-0.899154
50677,-2.399952,-3.039067,7.915375,-0.412177,-0.517138,-1.019259
50678,-2.208154,-3.142498,7.906800,-0.431280,-0.559381,-1.146003
50679,-2.052205,-3.557076,7.840104,-0.388780,-0.572833,-1.258965
50680,-1.992701,-4.104065,7.673368,-0.245418,-0.569647,-1.356330
50681,-2.181852,-4.561788,7.333645,0.020816,-0.580240,-1.456428
50682,-2.520409,-4.153503,6.741278,0.408141,-0.625525,-1.590741
50683,-2.851570,-2.941029,5.812265,0.800720,-0.733474,-1.769572
50684,-2.875766,-1.468720,5.608286,0.922353,-0.866997,-1.969666
50685,-2.452053,-0.925382,5.724665,0.727568,-1.033288,-2.137918
50686,-1.590075,-1.006415,6.172421,0.550998,-1.150720,-2.269987
50687,-0.833886,-1.190780,6.280492,0.407875,-1.229320,-2.395611
50688,-0.242528,-1.401263,6.860622,0.258506,-1.295765,-2.489486
50689,0.129106,-1.682599,7.245300,0.113831,-1.345082,-2.539910
50690,0.269619,-1.417832,7.252827,-0.009744,-1.378714,-2.578038
50691,0.162437,-0.724529,7.119833,-0.197859,-1.438190,-2.645416
50692,0.172203,0.065479,6.909425,-0.521759,-1.527149,-2.737256
50693,0.453688,0.492465,6.785725,-0.964862,-1.622773,-2.829431
50694,0.974180,0.694170,6.380203,-1.408297,-1.714258,-2.921756
50695,1.536136,0.711886,6.083046,-1.815623,-1.790855,-3.019358
50696,1.974910,0.610948,5.755298,-2.173171,-1.860439,-3.118183
50697,2.445693,0.212452,5.415804,-2.469722,-1.932431,-3.201255
50698,2.929358,-0.905601,5.380423,-2.669333,-2.018965,-3.253620
50699,3.608556,-2.062078,5.338883,-2.600483,-2.092920,-3.326179
50700,4.602750,-3.362556,6.419999,-2.392598,-2.136736,-3.394934
50701,6.016825,-5.402386,7.760731,-2.141015,-2.116921,-3.364779
50702,7.234250,-6.407319,7.881599,-1.519670,-2.028681,-3.307179
50703,7.530679,-5.739098,7.556805,-0.931780,-1.938332,-3.302093
50704,7.039010,-4.419745,7.040770,-0.619624,-1.924302,-3.307261
50705,6.208714,-3.011736,6.317445,-0.495732,-1.985154,-3.303937
50706,5.564003,-1.873477,5.517974,-0.599275,-2.134939,-3.322967
50707,5.716624,-1.240654,4.745861,-0.830291,-2.355714,-3.410077
50708,6.597931,-1.080386,3.839402,-1.144020,-2.606814,-3.511291
50709,7.860645,-1.221515,3.082566,-1.445662,-2.842962,-3.577078
50710,8.924988,-1.366583,2.554205,-1.738104,-3.040319,-3.609750
50711,9.844367,-1.474926,2.300271,-2.063249,-3.216206,-3.637385
50712,10.766177,-1.751544,2.500905,-2.453316,-3.357490,-3.630774
50713,11.625434,-2.436047,2.592119,-2.804766,-3.453513,-3.617367
50714,12.557549,-3.161490,2.840142,-3.032101,-3.511382,-3.600027
50715,13.940461,-3.801095,3.166192,-3.124952,-3.516457,-3.565008
50716,15.524271,-4.477655,3.575414,-3.123585,-3.412049,-3.496552
50717,16.799687,-5.130062,3.956213,-3.032038,-3.187786,-3.328609
50718,17.274505,-5.725012,4.189581,-2.908845,-2.870096,-3.130584
50719,17.081591,-6.659572,4.317888,-2.668778,-2.518103,-2.890023
50720,16.354360,-7.803252,4.510453,-2.258549,-2.186412,-2.617404
50721,15.732606,-8.631497,4.441663,-1.661901,-1.908081,-2.315738
50722,15.316449,-8.901800,4.153660,-0.934318,-1.640635,-1.959981
50723,14.616272,-8.042390,3.683194,-0.175177,-1.373005,-1.562248
50724,13.311055,-6.015182,2.677489,0.523429,-1.206604,-1.220092
50725,12.056119,-3.472116,2.158684,0.991606,-1.184928,-0.966947
50726,11.178596,-1.600942,1.848851,1.205052,-1.212269,-0.769308
50727,10.486413,-0.268000,1.801091,1.281597,-1.214319,-0.630757
50728,10.149134,0.459370,2.428886,1.212776,-1.188356,-0.536446
50729,10.293331,0.595831,3.026699,1.121510,-1.100376,-0.486857
50730,10.673430,0.792653,3.344998,1.027923,-0.939789,-0.465302
50731,10.831394,1.023229,3.442093,0.854623,-0.738092,-0.441747
50732,10.721641,1.035040,3.393523,0.542736,-0.554359,-0.382804
50733,10.338605,0.895742,3.133107,0.160365,-0.407007,-0.289580
50734,9.846833,0.649641,3.007689,-0.254282,-0.317807,-0.194985
50735,9.628343,0.087322,2.933264,-0.728677,-0.276626,-0.098786
50736,9.759208,-0.621040,2.762610,-1.113002,-0.223296,0.018800
50737,9.894994,-1.348811,2.710625,-1.382211,-0.168541,0.137272
50738,10.005182,-2.118810,2.561129,-1.493044,-0.102653,0.245519
50739,9.811224,-2.649595,2.226628,-1.403928,-0.039010,0.325443
50740,9.512927,-2.732447,2.102098,-1.152859,-0.019034,0.325056
50741,9.396985,-2.721217,2.073967,-0.902368,-0.022780,0.296163
50742,9.436767,-2.664207,2.069786,-0.605489,-0.018732,0.281900
50743,9.396433,-2.482422,1.875812,-0.329435,-0.004846,0.277992
50744,9.508161,-2.302238,1.884482,-0.118507,-0.010501,0.270647
50745,9.714265,-2.182250,1.804984,0.057787,0.002897,0.275663
50746,9.824637,-2.074175,1.758602,0.189634,0.031790,0.287473
50747,9.797539,-2.078455,1.578810,0.294324,0.040403,0.326293
50748,9.746432,-1.889524,1.317790,0.423029,0.024206,0.362893
50749,9.731015,-1.547758,1.365037,0.510802,-0.005987,0.374046
50750,9.895361,-1.227807,1.367740,0.555309,-0.022314,0.391734
50751,10.016139,-0.931595,1.413273,0.565679,-0.021940,0.411753
50752,10.139252,-0.637604,1.455844,0.546684,-0.010194,0.424063
50753,10.155286,-0.302194,1.432505,0.507816,0.006314,0.418518
50754,10.035055,-0.121166,1.308162,0.425822,0.028525,0.396043
50755,9.898227,-0.118039,1.344137,0.351076,0.028189,0.367828
50756,9.808375,-0.356973,1.302083,0.296182,0.012544,0.351778
50757,9.897083,-0.556398,1.250648,0.255508,0.000380,0.351562
50758,9.974861,-0.623823,1.241658,0.230797,0.005077,0.354688
50759,9.962139,-0.551819,1.148276,0.195525,0.011211,0.360314
50760,9.831593,-0.399179,1.069180,0.145008,0.015129,0.355411
50761,9.722568,-0.274368,1.072725,0.087930,-0.004967,0.333771
50762,9.701062,-0.060908,1.090596,0.056151,-0.009673,0.280905
50763,9.751652,0.058020,1.141456,0.018827,-0.008622,0.219331
50764,9.853485,0.027065,1.211605,-0.029853,-0.006266,0.170857
50765,10.063758,-0.102770,1.277947,-0.031470,0.022259,0.103113
50766,10.225208,-0.500701,1.049924,0.053766,0.048731,0.014786
50767,10.231722,-0.508866,0.631492,0.351520,0.027237,-0.058768
50768,10.145428,0.201511,0.924682,0.565271,0.043682,-0.087657
50769,10.021627,1.101146,1.141244,0.499711,0.063465,-0.110416
50770,9.922000,1.253485,1.168778,0.215121,0.043127,-0.101245
50771,9.974053,0.991227,1.053761,0.027746,0.018320,-0.094325
50772,10.050015,0.867193,1.085467,-0.095729,0.013665,-0.087253
50773,10.105296,0.704630,1.208950,-0.215045,0.010724,-0.083799
50774,10.093334,0.395810,1.265680,-0.323214,0.023848,-0.076576
50775,10.027838,-0.053754,1.344459,-0.379178,0.037633,-0.072067
50776,10.016033,-0.479045,1.332392,-0.371020,0.044029,-0.069163
50777,9.959204,-0.896146,1.224501,-0.307755,0.031790,-0.069762
50778,10.060191,-1.086224,1.126381,-0.173529,0.017481,-0.087606
50779,10.151470,-1.080062,1.139838,-0.019475,0.009401,-0.111034
50780,10.090066,-0.875923,1.201742,0.102982,0.020385,-0.132148
50781,9.922780,-0.654283,1.266649,0.139699,0.029155,-0.148298
50782,9.833417,-0.677511,1.292057,0.102896,0.028400,-0.150063
50783,9.758375,-0.923482,1.273215,0.053494,0.028776,-0.141667
50784,9.757021,-1.173889,1.250352,0.024827,0.029788,-0.124828
50785,9.719480,-1.439662,1.160694,0.028924,0.023972,-0.107008
50786,9.632851,-1.486067,1.080059,0.085059,0.014233,-0.093037
50787,9.595609,-1.472721,1.120328,0.135311,-0.010856,-0.091852
50788,9.689579,-1.451664,1.165932,0.181198,-0.031699,-0.079095
50789,9.765777,-1.359582,1.295284,0.219002,-0.035733,-0.071861
50790,9.755533,-1.270488,1.337986,0.221767,-0.037332,-0.064185
50791,9.727976,-1.320557,1.437441,0.209620,-0.035765,-0.049078
50792,9.700782,-1.444368,1.436218,0.199833,-0.027748,-0.032346
50793,9.672471,-1.528787,1.400520,0.201981,-0.022132,-0.009964
50794,9.612779,-1.548854,1.358985,0.227879,-0.027485,0.002381
50795,9.562495,-1.494363,1.304359,0.248395,-0.028464,0.011264
50796,9.481077,-1.374596,1.242274,0.272332,-0.044426,0.017310
50797,9.434473,-1.252898,1.212766,0.274434,-0.058554,0.006449
50798,9.495394,-1.226389,1.251823,0.250645,-0.074824,0.004793
50799,9.541064,-1.357423,1.244747,0.233988,-0.078612,0.020783
50800,9.597793,-1.496710,1.296461,0.234230,-0.075591,0.044323
50801,9.617109,-1.653667,1.283226,0.253513,-0.074573,0.065470
50802,9.624113,-1.595632,1.235002,0.305042,-0.062810,0.078757
50803,9.513297,-1.403135,1.193397,0.353277,-0.067588,0.090615
50804,9.484320,-1.327671,1.215250,0.372281,-0.072573,0.093996
50805,9.562534,-1.212381,1.228652,0.392911,-0.085330,0.106445
50806,9.671760,-1.163921,1.248984,0.394425,-0.086597,0.114832
50807,9.785133,-1.164419,1.233418,0.387606,-0.081987,0.124071
50808,9.875025,-1.174087,1.242818,0.385650,-0.070723,0.140621
50809,9.887084,-1.251601,1.233369,0.379989,-0.054312,0.161350
50810,9.876449,-1.244904,1.205675,0.388574,-0.050290,0.183266
50811,9.800831,-1.216878,1.173138,0.406203,-0.037943,0.208808
50812,9.776938,-1.146722,1.153928,0.421154,-0.039116,0.220372
50813,9.791734,-1.123661,1.133628,0.420771,-0.040358,0.236584
50814,9.859533,-1.136199,1.202309,0.427904,-0.037732,0.247375
50815,10.095067,-1.370957,1.155094,0.476895,-0.018017,0.226058
50816,10.191804,-1.575848,0.724644,0.751654,-0.028754,0.173851
50817,10.192536,-0.791412,0.931398,1.046894,0.002805,0.151927
50818,10.005434,0.193247,1.161351,1.092235,0.041687,0.138688
50819,9.826770,0.533186,1.093514,0.966680,0.027156,0.128497
50820,9.867883,0.367490,0.998914,0.902073,0.004954,0.108262
50821,9.935073,0.186178,0.951584,0.875748,-0.001816,0.102395
50822,9.996415,0.070525,1.009502,0.859928,-0.000760,0.099386
50823,10.115896,0.001544,1.037373,0.828622,0.012998,0.091385
50824,10.127038,-0.066570,1.039144,0.777262,0.036575,0.073658
50825,10.134719,-0.186885,1.056421,0.705328,0.054179,0.061666
50826,10.191830,-0.280769,1.055780,0.623912,0.067620,0.047052
50827,10.163389,-0.477242,0.988850,0.595074,0.109061,0.054030
50828,10.042147,-0.478562,1.058413,0.587726,0.136540,0.060442
50829,9.927213,-0.374144,1.101736,0.563737,0.138979,0.063088
50830,9.893007,-0.397226,1.155233,0.506219,0.130128,0.083197
50831,9.842497,-0.617247,1.193290,0.439130,0.129580,0.085872
50832,9.838965,-0.760203,1.237976,0.400795,0.114006,0.094352
50833,9.867022,-0.916648,1.287598,0.343060,0.114661,0.106773
50834,9.847839,-1.119497,1.288649,0.286423,0.106676,0.120598
50835,9.744802,-1.442068,1.294803,0.247652,0.114763,0.130675
50836,9.630005,-1.697464,1.299471,0.245497,0.122774,0.140368
50837,9.551614,-1.806973,1.307441,0.284942,0.125005,0.140359
50838,9.525281,-1.713143,1.360598,0.307944,0.119783,0.145050
50839,9.466457,-1.752552,1.298774,0.323608,0.122010,0.133389
50840,9.446846,-1.730879,1.255115,0.371125,0.109423,0.112801
50841,9.529771,-1.512976,1.276253,0.415279,0.110813,0.102655
50842,9.573737,-1.267388,1.259435,0.428126,0.095314,0.094644
50843,9.539591,-1.098403,1.302403,0.407793,0.088293,0.088687
50844,9.548708,-0.891586,1.290337,0.388586,0.075454,0.081886
50845,9.620117,-0.741014,1.331236,0.347378,0.059896,0.075369
50846,9.625863,-0.585368,1.329632,0.306863,0.040440,0.060662
50847,9.638868,-0.431524,1.283357,0.260225,0.022398,0.042620
50848,9.728293,-0.349522,1.280286,0.195062,0.006835,0.029248
50849,9.752189,-0.348218,1.255968,0.140694,-0.008262,0.011568
