// Start Time: Unknown
// Update Rate: 100.0Hz
// Filter Profile: human (46.1)
// Firmware Version: 4.3.5
PacketCounter,SampleTimeFine,Acc_X,Acc_Y,Acc_Z,Gyr_X,Gyr_Y,Gyr_Z,Roll,Pitch,Yaw
57681,,9.340349,-3.141311,-0.134911,0.010515,0.009720,-0.015079,-92.469914,-71.390977,-2.117313
57682,,9.315437,-3.128241,-0.153877,0.000888,0.014247,-0.014857,-92.827837,-71.411946,-1.550986
57683,,9.311332,-3.192539,-0.184596,-0.000718,0.015002,-0.014820,-92.635256,-71.405975,-1.854192
57684,,9.311311,-3.223940,-0.172279,-0.001835,0.010047,-0.012158,-92.620161,-71.413198,-1.871228
57685,,9.270748,-3.192386,-0.190710,0.000163,0.010558,-0.011344,-92.603547,-71.420428,-1.888559
57686,,9.251080,-3.238030,-0.220804,0.003698,0.011475,-0.015777,-92.583101,-71.429756,-1.907894
57687,,9.286759,-3.241319,-0.178329,0.012999,0.004528,-0.011634,-92.563565,-71.436664,-1.926900
57688,,9.301077,-3.199993,-0.113088,0.018062,0.001558,-0.014058,-92.551630,-71.444751,-1.928573
57689,,9.313923,-3.185312,-0.178615,0.015466,0.009440,-0.012013,-92.523430,-71.451457,-1.954079
57690,,9.333995,-3.169839,-0.134934,0.020528,0.006471,-0.014435,-92.501708,-71.459882,-1.964585
57691,,9.334472,-3.168493,-0.133559,0.018354,0.009801,-0.014977,-92.473380,-71.467847,-1.986882
57692,,9.299729,-3.162709,-0.173560,0.014499,0.010752,-0.013440,-92.447695,-71.475805,-2.005210
57693,,9.319815,-3.147102,-0.129857,0.012106,0.008973,-0.015103,-92.430508,-71.483033,-2.013347
57694,,9.294506,-3.166624,-0.137901,0.009320,0.005927,-0.017616,-92.416309,-71.493260,-2.022690
57695,,9.301198,-3.158562,-0.170294,0.003363,0.009049,-0.011415,-92.399157,-71.498340,-2.040961
57696,,9.294965,-3.196735,-0.124770,0.007857,0.008657,-0.014414,-92.380871,-71.506798,-2.055497
57697,,9.317210,-3.207598,-0.157750,0.003185,0.012892,-0.011145,-92.355224,-71.511263,-2.085481
57698,,9.291818,-3.227464,-0.165649,0.007856,0.008658,-0.014412,-92.336907,-71.519717,-2.100049
57699,,9.276720,-3.207311,-0.163719,0.013312,0.006958,-0.015980,-92.319011,-71.525354,-2.113984
57700,,9.277219,-3.205918,-0.162691,0.014273,0.005650,-0.014549,-92.302155,-71.533814,-2.123133
57701,,9.309785,-3.176673,-0.186008,0.012524,0.004426,-0.017677,-92.288608,-71.539113,-2.135265
57702,,9.304012,-3.182078,-0.151811,0.010168,0.007308,-0.010700,-92.270976,-71.545405,-2.147711
57703,,9.320467,-3.166955,-0.163038,0.010275,0.004622,-0.016176,-92.260188,-71.548921,-2.158812
57704,,9.320914,-3.165681,-0.162185,0.003354,0.009049,-0.011412,-92.243505,-71.555658,-2.174373
57705,,9.305323,-3.178365,-0.149233,0.004816,0.006321,-0.014608,-92.239722,-71.558056,-2.176506
57706,,9.289794,-3.190866,-0.136450,0.004424,0.005054,-0.015457,-92.229548,-71.567021,-2.184557
57707,,9.305892,-3.208256,-0.136561,0.006811,0.006837,-0.013792,-92.218428,-71.566868,-2.199228
57708,,9.296972,-3.181505,-0.168231,0.008024,0.004819,-0.014674,-92.206523,-71.575375,-2.206934
57709,,9.287272,-3.220069,-0.177304,0.007201,0.008105,-0.012941,-92.195098,-71.574233,-2.221297
57710,,9.297516,-3.211540,-0.155090,0.013299,0.006967,-0.015969,-92.176542,-71.583523,-2.232828
57711,,9.282754,-3.158780,-0.164506,0.014261,0.005659,-0.014537,-92.168071,-71.580919,-2.238639
57712,,9.292962,-3.150296,-0.142548,0.012194,0.002011,-0.013307,-92.158480,-71.588573,-2.241388
57713,,9.309095,-3.167602,-0.142685,0.012513,0.004433,-0.017664,-92.155699,-71.588038,-2.243514
57714,,9.309973,-3.133485,-0.153208,0.006413,0.005571,-0.014636,-92.143383,-71.596542,-2.252630
57715,,9.294438,-3.146036,-0.140378,0.006412,0.005571,-0.014636,-92.145185,-71.593695,-2.246045
57716,,9.304307,-3.170084,-0.107183,0.006411,0.005572,-0.014635,-92.132876,-71.602190,-2.255134
57717,,9.311001,-3.162131,-0.139625,0.007192,0.008108,-0.012937,-92.129452,-71.598963,-2.255813
57718,,9.311410,-3.160965,-0.138744,0.006160,0.006283,-0.012322,-92.115930,-71.606163,-2.266319
57719,,9.323606,-3.211792,-0.181963,0.000702,0.007975,-0.010760,-92.115978,-71.600082,-2.266069
57720,,9.308284,-3.192132,-0.180626,0.005061,0.001326,-0.009661,-92.111451,-71.605638,-2.267744
57721,,9.324591,-3.177343,-0.192265,0.003271,0.005919,-0.009361,-92.117647,-71.600596,-2.260750
57722,,9.338138,-3.168632,-0.116032,0.006091,0.003152,-0.010274,-92.109471,-71.606580,-2.265635
57723,,9.307150,-3.130234,-0.113812,0.003911,0.006476,-0.010824,-92.114045,-71.599385,-2.260002
57724,,9.323126,-3.148046,-0.113862,0.003659,0.007187,-0.008512,-92.100208,-71.604436,-2.272308
57725,,9.319637,-3.180345,-0.156269,0.002304,0.007226,-0.010791,-92.100830,-71.594703,-2.280961
57726,,9.304345,-3.160571,-0.154666,-0.000267,0.009282,-0.012189,-92.085804,-71.601869,-2.296929
57727,,9.310580,-3.185696,-0.175895,0.000771,0.006822,-0.005553,-92.088023,-71.588057,-2.306320
57728,,9.329915,-3.203282,-0.121408,-0.006227,0.012394,-0.006006,-92.070588,-71.591695,-2.328473
57729,,9.326374,-3.235814,-0.163971,-0.000398,0.003018,-0.008098,-92.083737,-71.584577,-2.319503
57730,,9.336716,-3.195092,-0.153678,0.001272,0.005402,-0.010175,-92.074331,-71.590494,-2.328662
57731,,9.285646,-3.236435,-0.171126,0.006544,0.007556,-0.011466,-92.075635,-71.584572,-2.315243
57732,,9.280690,-3.144179,-0.171047,0.011547,0.001467,-0.011827,-92.067250,-71.591305,-2.317045
57733,,9.300491,-3.128617,-0.128262,0.008911,0.000390,-0.011181,-92.079707,-71.580153,-2.299510
57734,,9.250002,-3.104828,-0.168637,-0.004188,0.007090,-0.008616,-92.070443,-71.585105,-2.311718
57735,,9.325620,-3.165324,-0.237603,-0.003095,0.012049,-0.011274,-92.070408,-71.573521,-2.325887
57736,,9.319081,-3.236315,-0.180760,-0.001164,0.009436,-0.008412,-92.055288,-71.578371,-2.342498
57737,,9.376842,-3.218810,-0.183719,-0.001628,0.009322,-0.014464,-92.062698,-71.573182,-2.337909
57738,,9.371102,-3.223962,-0.149425,-0.000926,0.013013,-0.017970,-92.041905,-71.583584,-2.360333
57739,,9.330631,-3.192094,-0.168003,-0.000098,0.009729,-0.019697,-92.049146,-71.582169,-2.353039
57740,,9.334675,-3.189708,-0.112588,0.006715,0.008006,-0.018973,-92.032666,-71.593037,-2.366265
57741,,9.300206,-3.183775,-0.153137,0.007741,0.009833,-0.019585,-92.035908,-71.590194,-2.368550
57742,,9.253731,-3.125905,-0.149731,0.010565,0.007070,-0.020495,-92.018857,-71.601891,-2.380093
57743,,9.264037,-3.116846,-0.127630,-0.000744,0.009170,-0.018233,-92.020279,-71.592028,-2.370383
57744,,9.292702,-3.152958,-0.182778,0.003748,0.008793,-0.021216,-92.004210,-71.604065,-2.384913
57745,,9.309024,-3.169899,-0.182600,-0.007425,0.012870,-0.015797,-92.008004,-71.596356,-2.398033
57746,,9.299629,-3.208297,-0.191255,-0.004985,0.017795,-0.016172,-91.981089,-71.605713,-2.429330
57747,,9.325830,-3.185532,-0.180806,-0.006401,0.014699,-0.016407,-91.979562,-71.597348,-2.431096
57748,,9.326120,-3.216651,-0.168263,-0.006015,0.015969,-0.015557,-91.956318,-71.606217,-2.459086
57749,,9.332945,-3.208530,-0.200394,0.000993,0.010407,-0.015098,-91.964297,-71.602919,-2.461611
57750,,9.301791,-3.202306,-0.186481,0.002271,0.011526,-0.018018,-91.944056,-71.613128,-2.481480
57751,,9.327957,-3.179553,-0.176227,0.004592,0.010183,-0.014308,-91.946345,-71.604004,-2.471507
57752,,9.296729,-3.173525,-0.162173,0.000794,0.014252,-0.014828,-91.922043,-71.612323,-2.496473
57753,,9.303391,-3.197854,-0.183030,0.003102,0.008243,-0.019744,-91.931511,-71.607387,-2.492766
57754,,9.272249,-3.191562,-0.169459,0.002791,0.005819,-0.015392,-91.920550,-71.615813,-2.502495
57755,,9.310838,-3.187988,-0.214699,0.007087,0.009290,-0.018104,-91.925416,-71.610060,-2.496263
57756,,9.330481,-3.204399,-0.160074,0.005036,0.005633,-0.016881,-91.913524,-71.619258,-2.505605
57757,,9.283601,-3.179403,-0.145899,0.001687,0.005146,-0.019978,-91.933575,-71.621067,-2.490674
57758,,9.258796,-3.166393,-0.165414,0.006246,0.012576,-0.016373,-91.908953,-71.630072,-2.512706
57759,,9.291086,-3.169433,-0.177184,0.008887,0.004703,-0.018397,-91.918394,-71.620163,-2.504701
57760,,9.323188,-3.205069,-0.177782,0.003225,0.010224,-0.016580,-91.899450,-71.629128,-2.522602
57761,,9.292046,-3.198781,-0.164126,0.003676,0.005671,-0.019155,-91.914320,-71.626336,-2.518312
57762,,9.340304,-3.187794,-0.188123,0.011648,0.007769,-0.015877,-91.894639,-71.634810,-2.531970
57763,,9.325262,-3.134994,-0.197624,0.007076,0.009295,-0.018096,-91.900403,-71.632915,-2.527049
57764,,9.319488,-3.140067,-0.163257,0.000004,0.011715,-0.016518,-91.880655,-71.641873,-2.547802
57765,,9.310049,-3.211156,-0.160559,-0.004053,0.016489,-0.014732,-91.876185,-71.630368,-2.565562
57766,,9.278965,-3.172575,-0.158010,0.001557,0.007837,-0.014505,-91.861935,-71.637938,-2.579645
57767,,9.285642,-3.197119,-0.178781,0.000183,0.016830,-0.015399,-91.854702,-71.629980,-2.579889
57768,,9.280023,-3.169601,-0.155531,-0.001355,0.011752,-0.018793,-91.835583,-71.639943,-2.600768
57769,,9.296526,-3.154029,-0.166386,0.000766,0.014257,-0.014815,-91.834188,-71.633915,-2.616076
57770,,9.319045,-3.197099,-0.187835,0.001606,0.010974,-0.016541,-91.814474,-71.642532,-2.635871
57771,,9.297433,-3.183652,-0.152773,0.001605,0.010974,-0.016540,-91.816504,-71.635249,-2.632042
57772,,9.288378,-3.189476,-0.173061,0.007017,0.006169,-0.016044,-91.801894,-71.643374,-2.643153
57773,,9.304696,-3.206629,-0.172912,0.007400,0.007439,-0.015194,-91.807442,-71.637338,-2.630282
57774,,9.311646,-3.166067,-0.216681,0.009341,0.004831,-0.012334,-91.793638,-71.643276,-2.639080
57775,,9.324866,-3.156869,-0.140213,0.014804,0.003162,-0.013876,-91.799151,-71.629578,-2.617531
57776,,9.315869,-3.130306,-0.171870,0.007780,0.008710,-0.014344,-91.779589,-71.636538,-2.633256
57777,,9.357534,-3.158828,-0.151071,0.001931,0.009109,-0.013649,-91.784969,-71.631190,-2.654054
57778,,9.326204,-3.153040,-0.137334,0.000704,0.011122,-0.012772,-91.765023,-71.637273,-2.674632
57779,,9.288312,-3.181362,-0.221140,0.000449,0.011832,-0.010464,-91.768825,-71.634784,-2.674939
57780,,9.333157,-3.177007,-0.157196,0.000400,0.008697,-0.008425,-91.753026,-71.638349,-2.691322
57781,,9.314360,-3.190781,-0.198917,0.000272,0.006718,-0.011580,-91.763725,-71.634496,-2.695491
57782,,9.302060,-3.170561,-0.143074,0.001626,0.006684,-0.009301,-91.750677,-71.638539,-2.708316
57783,,9.318266,-3.188068,-0.142994,0.005146,0.007625,-0.013701,-91.750711,-71.624186,-2.696480
57784,,9.334626,-3.172842,-0.154048,0.009129,0.008681,-0.012058,-91.730025,-71.629666,-2.712732
57785,,9.303375,-3.134513,-0.151704,0.008364,0.006141,-0.013755,-91.736115,-71.622635,-2.688275
57786,,9.319642,-3.151852,-0.151472,0.005526,0.008896,-0.012851,-91.717189,-71.628433,-2.704713
57787,,9.300964,-3.165397,-0.192905,0.002306,0.010381,-0.012795,-91.712443,-71.613275,-2.707796
57788,,9.291796,-3.171727,-0.213001,0.002432,0.012362,-0.009640,-91.689045,-71.617107,-2.730788
57789,,9.266688,-3.192130,-0.221162,0.001287,0.008550,-0.012186,-91.692601,-71.608272,-2.728363
57790,,9.286185,-3.176233,-0.177767,0.002304,0.010382,-0.012794,-91.672786,-71.613765,-2.747639
57791,,9.277002,-3.214987,-0.186683,0.005141,0.007628,-0.013696,-91.674505,-71.602723,-2.741308
57792,,9.312456,-3.184926,-0.155400,0.008360,0.006145,-0.013749,-91.658526,-71.608582,-2.752847
57793,,9.322505,-3.176077,-0.133222,0.010269,0.007830,-0.018119,-91.657928,-71.604726,-2.760712
57794,,9.338948,-3.160565,-0.144144,0.009756,0.009249,-0.013507,-91.635673,-71.610429,-2.778086
57795,,9.333007,-3.165915,-0.109669,0.010392,0.009811,-0.014963,-91.631408,-71.600939,-2.765946
57796,,9.330476,-3.132552,-0.174318,0.009037,0.009844,-0.017241,-91.608726,-71.608657,-2.784097
57797,,9.324623,-3.137632,-0.139674,0.008823,0.013690,-0.016973,-91.594190,-71.600032,-2.804659
57798,,9.306065,-3.151099,-0.180638,0.008902,0.012535,-0.011780,-91.566563,-71.604574,-2.828159
57799,,9.331854,-3.161117,-0.158653,0.005301,0.012746,-0.012575,-91.555312,-71.593121,-2.843362
57800,,9.313211,-3.174891,-0.199836,0.004028,0.011623,-0.009662,-91.531846,-71.596316,-2.865444
57801,,9.281748,-3.201944,-0.174550,0.003310,0.012216,-0.013397,-91.532630,-71.599005,-2.865453
57802,,9.304456,-3.212718,-0.207287,0.002036,0.011093,-0.010483,-91.511294,-71.602690,-2.886471
57803,,9.304758,-3.244381,-0.194753,0.005635,0.010884,-0.009685,-91.507643,-71.593689,-2.884662
57804,,9.298678,-3.217620,-0.171789,0.017879,0.004399,-0.008432,-91.488674,-71.596047,-2.893576
57805,,9.318018,-3.169351,-0.139604,0.021139,0.006054,-0.010520,-91.485782,-71.596256,-2.904684
57806,,9.308868,-3.175833,-0.159438,0.022532,0.009160,-0.010278,-91.455953,-71.599779,-2.922343
57807,,9.293437,-3.123548,-0.168805,0.025885,0.004989,-0.015782,-91.452158,-71.599606,-2.918729
57808,,9.312886,-3.107335,-0.124901,0.020200,0.010494,-0.013986,-91.421509,-71.605278,-2.938685
57809,,9.297532,-3.087256,-0.122671,0.014909,0.012594,-0.019950,-91.408216,-71.599576,-2.937391
57810,,9.292005,-3.152377,-0.207057,0.010198,0.016797,-0.016724,-91.372548,-71.606804,-2.968604
57811,,9.324347,-3.187930,-0.206586,0.009778,0.012390,-0.015531,-91.359611,-71.599295,-2.981597
57812,,9.350287,-3.229966,-0.173037,0.010670,0.012242,-0.019289,-91.331538,-71.607845,-3.004534
57813,,9.344532,-3.169533,-0.161219,0.015755,0.009315,-0.021662,-91.332698,-71.617783,-2.993103
57814,,9.345279,-3.167400,-0.159813,0.023464,0.007483,-0.024664,-91.305786,-71.629429,-3.007045
57815,,9.323637,-3.153428,-0.124174,0.022129,0.015326,-0.020376,-91.281591,-71.622490,-3.017002
57816,,9.301907,-3.139677,-0.088313,0.022723,0.012754,-0.019789,-91.245742,-71.631275,-3.040768
57817,,9.388110,-3.098202,-0.025791,0.019316,0.021213,-0.021518,-91.209827,-71.631811,-3.087505
57818,,9.420124,-3.040033,0.084420,0.014525,0.041799,-0.026193,-91.128581,-71.644559,-3.164171
57819,,9.478140,-3.052786,0.097998,0.017930,0.063818,-0.029864,-91.025041,-71.652995,-3.263114
57820,,9.532698,-3.037930,0.190377,0.024868,0.089926,-0.039948,-90.854816,-71.673948,-3.427239
57821,,9.508518,-3.087931,0.203364,0.021220,0.120621,-0.046130,-90.639790,-71.683295,-3.644446
57822,,9.488419,-3.164082,0.142863,0.037163,0.144906,-0.056870,-90.366648,-71.713697,-3.909526
57823,,9.398152,-3.172674,0.119979,0.056147,0.163016,-0.052899,-90.062703,-71.737152,-4.193544
57824,,9.402077,-3.134360,0.180682,0.061631,0.174363,-0.046647,-89.722701,-71.760744,-4.514149
57825,,9.531795,-3.052758,0.312870,0.052466,0.197779,-0.052641,-89.355123,-71.783607,-4.871903
57826,,9.585499,-2.937717,0.385219,0.019251,0.243650,-0.061353,-88.916487,-71.813694,-5.321804
57827,,9.574946,-2.812692,0.485491,-0.008105,0.287629,-0.081301,-88.409876,-71.838626,-5.867774
57828,,9.603168,-2.650980,0.531940,-0.038387,0.323423,-0.104858,-87.859010,-71.889557,-6.470401
57829,,9.711586,-2.513937,0.557274,-0.068145,0.359833,-0.129797,-87.264523,-71.957187,-7.122394
57830,,9.778863,-2.475777,0.611619,-0.110853,0.406165,-0.148277,-86.598084,-72.026542,-7.889660
57831,,9.765141,-2.442840,0.704791,-0.163396,0.450363,-0.149076,-85.862800,-72.095864,-8.789813
57832,,9.816129,-2.385209,0.820744,-0.218558,0.489662,-0.149473,-85.098773,-72.156125,-9.724063
57833,,9.830453,-2.392279,0.810967,-0.278708,0.544341,-0.135921,-84.255607,-72.209712,-10.783589
57834,,9.843194,-2.434715,0.707262,-0.350107,0.601698,-0.121578,-83.362879,-72.238819,-11.931673
57835,,9.800051,-2.495817,0.661723,-0.427702,0.650560,-0.107916,-82.400990,-72.257024,-13.220561
57836,,9.781262,-2.667516,0.672854,-0.489251,0.698695,-0.091895,-81.419043,-72.249851,-14.545994
57837,,9.779092,-2.858955,0.630436,-0.517621,0.734159,-0.076093,-80.374917,-72.218191,-15.953920
57838,,9.711912,-3.077066,0.619783,-0.524352,0.757547,-0.059505,-79.325895,-72.172182,-17.371368
57839,,9.629456,-3.343337,0.574085,-0.524436,0.779308,-0.041843,-78.229988,-72.113126,-18.837441
57840,,9.453015,-3.565043,0.436064,-0.496424,0.774965,-0.024653,-77.164218,-72.029252,-20.256670
57841,,9.305095,-3.794026,0.446872,-0.449151,0.746176,-0.007679,-76.115515,-71.945649,-21.632349
57842,,9.174594,-3.943632,0.422769,-0.401326,0.713927,0.017034,-75.141589,-71.831703,-22.899123
57843,,9.014351,-4.056767,0.339398,-0.344548,0.675748,0.044415,-74.203206,-71.706248,-24.111685
57844,,8.939773,-4.224881,0.320967,-0.286873,0.636618,0.075343,-73.349448,-71.559965,-25.184724
57845,,8.842043,-4.350549,0.266787,-0.215665,0.586677,0.113208,-72.568793,-71.394883,-26.133743
57846,,8.727563,-4.392117,0.321303,-0.127269,0.523769,0.149722,-71.875212,-71.218662,-26.943163
57847,,8.672384,-4.416210,0.323847,-0.063072,0.475782,0.182655,-71.246037,-71.037572,-27.653564
57848,,8.700212,-4.464721,0.385314,-0.000511,0.423688,0.234590,-70.709843,-70.828613,-28.221468
57849,,8.633162,-4.496528,0.569822,0.033481,0.387636,0.284321,-70.253551,-70.604800,-28.683838
57850,,8.637611,-4.568741,0.637385,0.057402,0.365748,0.346591,-69.856998,-70.344042,-29.069949
57851,,8.660924,-4.629860,0.641224,0.084871,0.341630,0.418861,-69.533345,-70.057278,-29.369797
57852,,8.685190,-4.724250,0.676322,0.094112,0.313673,0.490901,-69.290763,-69.728377,-29.570996
57853,,8.675028,-4.856502,0.595868,0.098859,0.290066,0.562616,-69.127189,-69.374484,-29.700949
57854,,8.633193,-4.985084,0.544032,0.105781,0.259253,0.646762,-69.050088,-68.973124,-29.718979
57855,,8.544333,-5.159919,0.406894,0.105454,0.223369,0.731498,-69.088801,-68.532377,-29.618547
57856,,8.506488,-5.256983,0.385407,0.105764,0.188999,0.819969,-69.194693,-68.052765,-29.439744
57857,,8.475104,-5.353870,0.329163,0.091574,0.151651,0.914116,-69.417991,-67.531726,-29.152929
57858,,8.395833,-5.422835,0.374909,0.079688,0.106683,1.000408,-69.713329,-66.971416,-28.783608
57859,,8.410781,-5.359419,0.431039,0.082004,0.056192,1.082580,-70.115472,-66.379253,-28.305872
57860,,8.395004,-5.263980,0.480747,0.059369,0.028056,1.146707,-70.545772,-65.753539,-27.798355
57861,,8.319798,-5.374314,0.439227,0.028813,0.014927,1.210273,-71.045717,-65.089741,-27.239391
57862,,8.353039,-5.402290,0.498125,0.025733,-0.005929,1.281591,-71.537067,-64.393884,-26.680280
57863,,8.284607,-5.415294,0.576022,-0.023988,-0.021567,1.343449,-72.107157,-63.665577,-26.060808
57864,,8.177365,-5.548211,0.611317,-0.055991,-0.038627,1.413866,-72.668108,-62.898954,-25.469143
57865,,8.245828,-5.629579,0.576723,-0.085015,-0.071055,1.490529,-73.300100,-62.107887,-24.818452
57866,,8.250664,-5.814051,0.551793,-0.111362,-0.097533,1.554311,-73.929630,-61.268408,-24.176276
57867,,8.353684,-5.942339,0.503314,-0.109438,-0.128987,1.616584,-74.597008,-60.415105,-23.493837
57868,,8.387750,-6.055624,0.543810,-0.112168,-0.158357,1.664530,-75.241781,-59.517387,-22.823712
57869,,8.404110,-6.162721,0.426466,-0.097516,-0.191968,1.698617,-75.916541,-58.614946,-22.100238
57870,,8.347824,-6.252605,0.375796,-0.079430,-0.243064,1.714634,-76.555890,-57.693749,-21.401503
57871,,8.250810,-6.337027,0.307363,-0.045530,-0.295712,1.735042,-77.228434,-56.775049,-20.628869
57872,,8.256698,-6.256333,0.326027,-0.009017,-0.349506,1.741579,-77.849626,-55.844101,-19.888725
57873,,8.193952,-6.349024,0.322823,0.022962,-0.395079,1.739318,-78.497031,-54.898986,-19.091310
57874,,8.226101,-6.288885,0.360705,0.053765,-0.438958,1.731702,-79.080915,-53.974944,-18.335844
57875,,8.167644,-6.350134,0.452934,0.072311,-0.468377,1.713244,-79.681615,-53.027836,-17.557451
57876,,8.136430,-6.374316,0.503096,0.117573,-0.497624,1.694282,-80.202509,-52.122134,-16.816873
57877,,8.099146,-6.347987,0.574656,0.154534,-0.514733,1.677536,-80.721300,-51.188581,-16.065827
57878,,7.943900,-6.317084,0.560455,0.189989,-0.537027,1.652467,-81.166563,-50.302353,-15.350397
57879,,7.911826,-6.343222,0.511453,0.205547,-0.569295,1.618217,-81.630863,-49.401050,-14.612735
57880,,7.847925,-6.404390,0.481572,0.229308,-0.583892,1.588210,-82.028663,-48.548181,-13.911468
57881,,7.759765,-6.549816,0.397325,0.257282,-0.603095,1.552794,-82.429928,-47.681459,-13.198666
57882,,7.707426,-6.601439,0.390557,0.282302,-0.632356,1.532047,-82.779430,-46.857921,-12.502856
57883,,7.623571,-6.687180,0.349608,0.289186,-0.648329,1.499614,-83.142767,-46.020274,-11.797423
57884,,7.470074,-6.762330,0.338390,0.292475,-0.662504,1.464118,-83.460543,-45.231716,-11.118611
57885,,7.376052,-6.889518,0.418461,0.281888,-0.670727,1.438733,-83.798404,-44.426229,-10.435310
57886,,7.258792,-6.951262,0.309866,0.262010,-0.669976,1.432166,-84.101093,-43.651001,-9.784133
57887,,7.097615,-7.071281,0.202363,0.248801,-0.675469,1.438898,-84.425261,-42.841946,-9.128248
57888,,6.875904,-7.180065,-0.015271,0.225921,-0.687576,1.427703,-84.725429,-42.065144,-8.492010
57889,,6.769698,-7.208875,-0.191130,0.245398,-0.721376,1.411873,-85.041340,-41.270062,-7.831500
57890,,6.677244,-7.302726,-0.256148,0.227523,-0.746233,1.384455,-85.337658,-40.515776,-7.179979
57891,,6.584798,-7.514587,-0.252814,0.183570,-0.757317,1.353646,-85.673987,-39.751496,-6.522680
57892,,6.674364,-7.542857,-0.177111,0.151925,-0.773859,1.330560,-85.995614,-39.023650,-5.878923
57893,,6.639659,-7.588611,-0.036845,0.089072,-0.756839,1.314660,-86.355894,-38.277010,-5.249397
57894,,6.420888,-7.661686,0.010285,0.035523,-0.736500,1.295804,-86.698860,-37.561778,-4.658491
57895,,6.274582,-7.527820,-0.031924,0.011568,-0.740380,1.283414,-87.068170,-36.827823,-4.066397
57896,,6.035993,-7.648730,-0.135545,-0.062228,-0.731287,1.258534,-87.438985,-36.127920,-3.502950
57897,,5.789861,-7.942109,-0.418078,-0.087535,-0.743942,1.221394,-87.840048,-35.424643,-2.933243
57898,,5.822904,-8.044703,-0.344119,-0.044302,-0.796505,1.191977,-88.202645,-34.758125,-2.346999
57899,,5.791206,-8.031789,-0.326199,-0.071973,-0.778414,1.158154,-88.585015,-34.086335,-1.775405
57900,,5.634226,-8.099384,-0.337490,-0.046584,-0.789290,1.122506,-88.923605,-33.453433,-1.214653
57901,,5.566789,-7.864342,-0.331312,0.042878,-0.840236,1.075938,-89.241990,-32.824546,-0.620123
57902,,5.476356,-7.581414,-0.419373,0.072028,-0.863121,0.999632,-89.520441,-32.257428,-0.026124
57903,,5.330304,-7.609006,-0.387302,0.071951,-0.843274,0.924421,-89.804476,-31.711499,0.554433
57904,,5.340850,-7.724149,-0.300675,0.096932,-0.829427,0.873073,-90.040398,-31.212157,1.112449
57905,,5.575421,-7.388121,-0.026422,0.142689,-0.826786,0.821734,-90.262992,-30.722077,1.670125
57906,,5.914199,-6.679735,0.404037,0.071147,-0.766924,0.757089,-90.479722,-30.285699,2.176967
57907,,5.829884,-6.587205,0.682110,-0.120078,-0.641439,0.659412,-90.778167,-29.888198,2.602797
57908,,5.792351,-6.922579,0.523627,-0.245519,-0.560851,0.614452,-91.099184,-29.531161,2.966219
57909,,5.715600,-7.136508,0.263936,-0.282906,-0.531342,0.604536,-91.444920,-29.165229,3.311631
57910,,5.630915,-7.196243,0.155441,-0.285022,-0.510643,0.580403,-91.765457,-28.824845,3.635506
57911,,5.515529,-7.322773,0.133925,-0.274802,-0.475021,0.529746,-92.081299,-28.501850,3.938406
57912,,5.536060,-7.200111,0.319282,-0.281755,-0.440826,0.477107,-92.373562,-28.219100,4.213310
57913,,5.370638,-7.316468,0.344451,-0.354024,-0.360934,0.391949,-92.695088,-27.977294,4.440258
57914,,5.249914,-7.629776,0.153899,-0.358090,-0.337802,0.350094,-92.997560,-27.767557,4.647852
57915,,5.217551,-7.796190,-0.008447,-0.283838,-0.351805,0.328888,-93.272362,-27.561915,4.866990
57916,,5.219206,-7.863638,-0.129240,-0.222353,-0.356359,0.299481,-93.500808,-27.378774,5.085489
57917,,5.164579,-8.023676,-0.234045,-0.165679,-0.345702,0.253370,-93.703972,-27.216489,5.300888
57918,,5.126001,-8.034093,-0.246828,-0.080027,-0.347939,0.206198,-93.848208,-27.085680,5.515911
57919,,5.078348,-8.040644,-0.151100,-0.032643,-0.338542,0.166264,-93.972347,-26.973753,5.728848
57920,,5.044192,-8.169460,-0.187619,-0.004000,-0.334702,0.132292,-94.069479,-26.884898,5.937672
57921,,4.892326,-8.241581,-0.218402,0.027200,-0.321035,0.118130,-94.153291,-26.801703,6.140583
57922,,4.874544,-8.124275,-0.251728,0.037499,-0.316709,0.092075,-94.221531,-26.736039,6.339199
57923,,4.856436,-8.177732,-0.351160,0.032877,-0.305887,0.074877,-94.297128,-26.678643,6.533785
57924,,4.812527,-8.228069,-0.366755,0.008710,-0.278875,0.066831,-94.371037,-26.628584,6.709056
57925,,4.791709,-8.279734,-0.433468,-0.037323,-0.253725,0.059414,-94.471120,-26.582657,6.870572
57926,,4.700370,-8.424981,-0.542710,-0.079370,-0.223886,0.053984,-94.579692,-26.541899,7.011056
57927,,4.593991,-8.618104,-0.707123,-0.123844,-0.209483,0.050343,-94.716091,-26.503261,7.144376
57928,,4.550915,-8.838487,-0.830204,-0.084245,-0.215261,0.047084,-94.824873,-26.466315,7.279441
57929,,4.629187,-8.795497,-0.785687,-0.023491,-0.225361,0.036615,-94.908205,-26.434492,7.423355
57930,,4.726120,-8.728652,-0.718670,0.015110,-0.219547,0.015755,-94.961839,-26.414871,7.562693
57931,,4.805165,-8.634817,-0.598541,0.055207,-0.210317,-0.010728,-94.996629,-26.410867,7.699492
57932,,4.888413,-8.515434,-0.476054,0.071544,-0.194430,-0.034526,-95.012026,-26.421049,7.825598
57933,,4.826485,-8.387422,-0.452002,0.075498,-0.183919,-0.044934,-95.028074,-26.438392,7.947391
57934,,4.706905,-8.303707,-0.379537,0.068488,-0.164877,-0.059469,-95.037548,-26.464239,8.056107
57935,,4.625219,-8.271642,-0.372089,0.054229,-0.146506,-0.055905,-95.054888,-26.490285,8.154569
57936,,4.533216,-8.459864,-0.396213,0.036209,-0.119622,-0.046317,-95.069762,-26.510864,8.233747
57937,,4.530373,-8.703849,-0.498442,0.025860,-0.098788,-0.030507,-95.088545,-26.525163,8.300211
57938,,4.532904,-8.826832,-0.602101,0.022385,-0.087553,-0.009502,-95.101318,-26.526323,8.356875
57939,,4.505105,-8.851174,-0.709603,0.020863,-0.078943,0.001996,-95.116046,-26.523155,8.408711
57940,,4.470760,-8.924147,-0.781552,0.022198,-0.070430,0.012457,-95.123484,-26.512638,8.453200
57941,,4.453213,-8.924311,-0.800691,0.027590,-0.055063,0.014493,-95.127041,-26.503522,8.489029
57942,,4.435525,-8.924611,-0.819012,0.026446,-0.043078,0.017636,-95.124117,-26.491446,8.515775
57943,,4.414877,-8.924428,-0.802501,0.025174,-0.032223,0.023577,-95.122222,-26.478231,8.536486
57944,,4.379499,-8.899426,-0.804218,0.034040,-0.027655,0.025219,-95.110361,-26.462620,8.552965
57945,,4.359638,-8.875340,-0.786036,0.048384,-0.017145,0.033361,-95.090533,-26.444482,8.563476
57946,,4.371845,-8.753775,-0.661993,0.061464,-0.010387,0.031124,-95.057908,-26.426388,8.568627
57947,,4.387986,-8.707340,-0.639137,0.060981,0.001440,0.027659,-95.025561,-26.412370,8.567577
57948,,4.325948,-8.682997,-0.742745,0.060464,0.002736,0.031442,-94.989792,-26.394756,8.564372
57949,,4.392787,-8.589589,-0.665329,0.048728,0.012435,0.026495,-94.961199,-26.381927,8.556342
57950,,4.446846,-8.545507,-0.674480,0.040658,0.039759,0.017132,-94.926661,-26.374307,8.530361
57951,,4.448936,-8.497660,-0.669563,0.043308,0.062113,0.010024,-94.887328,-26.373410,8.491545
57952,,4.482457,-8.375938,-0.559246,0.034330,0.093149,0.005426,-94.841595,-26.375036,8.432193
57953,,4.521955,-8.130682,-0.415788,0.038034,0.124482,-0.024095,-94.788188,-26.396769,8.355397
57954,,4.621395,-7.863417,-0.318617,0.035473,0.166251,-0.072924,-94.722855,-26.446504,8.253566
57955,,4.695762,-7.593208,-0.291850,0.021999,0.199782,-0.131974,-94.659049,-26.533724,8.134125
57956,,4.928781,-7.402847,-0.300640,0.019386,0.242609,-0.193358,-94.583484,-26.655549,7.989462
57957,,4.995002,-7.318767,-0.195086,0.049181,0.324860,-0.276286,-94.470142,-26.831442,7.796664
57958,,5.078877,-7.249167,0.162871,0.103142,0.432444,-0.394334,-94.294641,-27.075854,7.539181
57959,,5.211104,-7.098022,0.654698,0.163683,0.545350,-0.515789,-94.052709,-27.397860,7.213631
57960,,5.291492,-6.619666,1.106977,0.198029,0.632841,-0.605272,-93.763052,-27.768770,6.832460
57961,,5.584564,-6.051606,1.323223,0.153917,0.705145,-0.648453,-93.472501,-28.171007,6.402603
57962,,5.928730,-5.830826,1.245342,0.023792,0.788984,-0.652457,-93.227396,-28.570831,5.914842
57963,,6.362476,-6.003077,1.070806,-0.123421,0.891276,-0.644319,-93.026157,-28.975322,5.355409
57964,,6.722682,-6.440452,0.810878,-0.292022,1.038312,-0.654773,-92.872946,-29.380821,4.697344
57965,,6.669521,-6.990664,0.478023,-0.416627,1.169058,-0.692085,-92.737670,-29.819983,3.948793
57966,,6.589328,-7.240406,0.319791,-0.484191,1.246487,-0.749705,-92.614388,-30.282646,3.148049
57967,,6.488729,-7.461063,0.151707,-0.496151,1.294785,-0.837564,-92.467578,-30.806922,2.310144
57968,,6.425186,-7.625992,0.054460,-0.475458,1.311661,-0.947283,-92.301189,-31.380721,1.459925
57969,,6.325790,-7.907661,-0.124857,-0.431539,1.320345,-1.062529,-92.088561,-32.031038,0.596124
57970,,6.156928,-8.163204,-0.306765,-0.350997,1.300989,-1.134323,-91.831965,-32.706339,-0.259317
57971,,6.081874,-8.416301,-0.367078,-0.256736,1.253619,-1.159111,-91.516604,-33.404541,-1.095902
57972,,5.954440,-8.698638,-0.530180,-0.134245,1.195579,-1.164110,-91.146753,-34.087541,-1.900614
57973,,5.892253,-8.663761,-0.561886,0.033889,1.116875,-1.177299,-90.688076,-34.785340,-2.666747
57974,,6.020493,-8.590683,-0.696770,0.197801,1.044230,-1.216410,-90.157704,-35.486973,-3.391812
57975,,6.209443,-8.312896,-0.693924,0.347540,0.964354,-1.291001,-89.550177,-36.237796,-4.079444
57976,,6.446640,-7.825820,-0.611282,0.452679,0.905477,-1.380849,-88.897533,-37.022160,-4.738997
57977,,6.791887,-7.633933,-0.535097,0.524556,0.899245,-1.477283,-88.178956,-37.867514,-5.418426
57978,,7.068439,-7.507469,-0.185121,0.569226,0.907967,-1.535125,-87.415970,-38.726743,-6.123678
57979,,7.178491,-7.243715,0.213531,0.552850,0.939763,-1.561306,-86.616564,-39.604653,-6.880811
57980,,7.069634,-6.939575,0.435724,0.470108,0.990864,-1.573337,-85.821664,-40.467039,-7.698151
57981,,6.970866,-6.815940,0.469622,0.377640,1.015567,-1.564527,-85.033899,-41.327122,-8.564062
57982,,7.070212,-6.914648,0.320947,0.313980,1.008939,-1.548388,-84.266959,-42.156866,-9.446125
57983,,7.351083,-6.946805,0.268959,0.264775,0.976342,-1.536587,-83.510779,-42.985726,-10.333137
57984,,7.777482,-6.814898,0.696237,0.202624,0.976452,-1.533181,-82.770757,-43.791425,-11.241713
57985,,8.132806,-7.013308,1.128252,0.008917,1.101502,-1.544983,-82.035920,-44.598615,-12.282398
57986,,8.285540,-7.453007,1.236468,-0.120529,1.229523,-1.535582,-81.281102,-45.367311,-13.448168
57987,,8.127982,-7.853054,1.389356,-0.150221,1.296280,-1.486043,-80.467461,-46.103348,-14.698186
57988,,7.773189,-7.981660,1.302368,-0.138897,1.328780,-1.434262,-79.609203,-46.781420,-15.992596
57989,,7.366379,-7.952018,0.986512,-0.070367,1.281841,-1.397183,-78.701297,-47.441921,-17.280302
57990,,7.229356,-8.016915,0.505944,0.034252,1.179611,-1.362821,-77.778071,-48.069012,-18.501180
57991,,7.330343,-8.099810,0.238525,0.174637,1.062348,-1.352940,-76.807856,-48.702179,-19.659791
57992,,7.459755,-8.031584,0.150563,0.368098,0.926354,-1.367096,-75.789971,-49.337861,-20.728981
57993,,7.642561,-7.771608,0.224166,0.572719,0.784018,-1.395936,-74.702033,-50.007066,-21.721747
57994,,7.766119,-7.367490,0.575468,0.718406,0.696995,-1.438970,-73.555047,-50.691291,-22.677083
57995,,7.839305,-6.984534,0.788711,0.797900,0.662820,-1.474377,-72.335925,-51.396379,-23.654946
57996,,7.763079,-6.763750,0.973963,0.845285,0.649090,-1.488287,-71.064423,-52.089612,-24.657662
57997,,7.570447,-6.618877,1.152807,0.899086,0.619597,-1.482814,-69.739448,-52.779290,-25.678050
57998,,7.521925,-6.338566,1.277871,0.935829,0.557902,-1.468227,-68.405069,-53.451259,-26.676210
57999,,7.514112,-6.019071,1.345062,0.910760,0.524245,-1.448170,-67.071879,-54.112937,-27.681091
58000,,7.636480,-5.756983,1.332916,0.886349,0.464949,-1.442950,-65.759931,-54.764456,-28.669784
58001,,7.839912,-5.631874,1.385366,0.829829,0.420258,-1.423850,-64.478254,-55.410344,-29.652899
58002,,8.027237,-5.560527,1.321939,0.767819,0.385337,-1.423251,-63.220138,-56.045437,-30.643229
58003,,8.066381,-5.487428,1.233027,0.720422,0.345352,-1.421116,-61.980090,-56.684293,-31.637428
58004,,8.047990,-5.359866,1.288908,0.684517,0.313552,-1.402131,-60.752489,-57.303725,-32.633833
58005,,7.863266,-5.182988,1.353301,0.627912,0.289563,-1.386844,-59.544480,-57.917237,-33.639687
58006,,7.795907,-5.264604,1.395548,0.573353,0.240540,-1.351417,-58.381190,-58.510038,-34.622004
58007,,7.775013,-5.294347,1.324018,0.543405,0.187491,-1.286448,-57.276089,-59.083536,-35.549700
58008,,7.581429,-5.376381,1.268736,0.533806,0.124733,-1.218604,-56.223153,-59.628657,-36.418301
58009,,7.240696,-5.496750,1.245037,0.527931,0.060643,-1.148550,-55.239131,-60.159402,-37.207955
58010,,7.030611,-5.578476,1.095353,0.538715,-0.024494,-1.070100,-54.327898,-60.668804,-37.901132
58011,,6.994561,-5.613702,0.942878,0.576865,-0.120823,-0.992531,-53.506428,-61.175074,-38.465198
58012,,7.047595,-5.514586,0.847292,0.628069,-0.233792,-0.925806,-52.758951,-61.680212,-38.906840
58013,,7.045795,-5.402148,0.720196,0.694011,-0.355306,-0.880088,-52.102420,-62.209364,-39.205231
58014,,7.119363,-5.120787,0.661914,0.791386,-0.493280,-0.856173,-51.492906,-62.770042,-39.381491
58015,,7.168442,-4.638427,0.482327,0.886123,-0.641176,-0.841000,-50.975681,-63.380764,-39.397070
58016,,7.307980,-4.200410,0.316140,0.905230,-0.756612,-0.843495,-50.517503,-64.029705,-39.329898
58017,,7.561740,-3.783367,0.366482,0.932928,-0.866441,-0.865884,-50.145539,-64.733536,-39.154733
58018,,8.017512,-3.449797,0.705359,0.863607,-0.898400,-0.868299,-49.810647,-65.445953,-38.978710
58019,,8.427171,-3.060078,1.179230,0.727647,-0.891703,-0.833392,-49.604738,-66.145944,-38.754671
58020,,8.711009,-2.810643,1.513990,0.517840,-0.866132,-0.767834,-49.520241,-66.803089,-38.523547
58021,,8.975556,-2.567515,1.676659,0.292803,-0.857092,-0.678857,-49.675278,-67.423245,-38.181704
58022,,9.240667,-2.565004,1.723515,0.041903,-0.842194,-0.567571,-50.039680,-67.983364,-37.762239
58023,,9.379444,-2.743575,1.679065,-0.204632,-0.833876,-0.468979,-50.685755,-68.500966,-37.200411
58024,,9.453340,-2.944291,1.561310,-0.431509,-0.825155,-0.363280,-51.542915,-68.960231,-36.546258
58025,,9.411603,-3.194083,1.423649,-0.623337,-0.825405,-0.270903,-52.669636,-69.379034,-35.729094
58026,,9.367541,-3.666099,1.355825,-0.742219,-0.833640,-0.190849,-53.947847,-69.752574,-34.819235
58027,,9.299349,-3.991462,1.431049,-0.776782,-0.836807,-0.120292,-55.396442,-70.091349,-33.761031
58028,,9.147171,-4.425869,1.405402,-0.746105,-0.838014,-0.072875,-56.869598,-70.394065,-32.650341
58029,,8.987284,-4.676718,1.485916,-0.635190,-0.861835,-0.046522,-58.419907,-70.684956,-31.403836
58030,,8.963280,-4.767762,1.596939,-0.494440,-0.903896,-0.036278,-59.952402,-70.968585,-30.081675
58031,,8.895401,-4.757039,1.761283,-0.318878,-0.934155,-0.040999,-61.516466,-71.253110,-28.630296
58032,,8.926526,-4.573890,1.853850,-0.128472,-0.997835,-0.031787,-63.069303,-71.535549,-27.069920
58033,,9.042704,-4.253269,1.917816,0.022111,-1.047883,-0.009766,-64.729343,-71.805040,-25.315129
58034,,9.238996,-3.874649,1.902750,0.120747,-1.078053,0.005876,-66.389154,-72.058034,-23.496894
58035,,9.467768,-3.585827,1.775902,0.166742,-1.074992,0.022777,-68.128407,-72.282519,-21.575403
58036,,9.601521,-3.368106,1.737550,0.185649,-1.059629,0.026216,-69.825120,-72.486779,-19.684074
58037,,9.748451,-3.160741,1.557077,0.187572,-1.026670,0.033829,-71.558091,-72.659921,-17.762298
58038,,9.891958,-2.923300,1.361833,0.161560,-0.976128,0.032726,-73.200424,-72.811804,-15.946020
58039,,10.037588,-2.694766,1.312040,0.122488,-0.912215,0.044174,-74.832699,-72.927283,-14.169329
58040,,10.166478,-2.511468,1.292574,0.077932,-0.835684,0.035905,-76.321011,-73.027044,-12.566608
58041,,10.247471,-2.437901,1.292070,0.008211,-0.736837,0.043324,-77.732176,-73.092982,-11.090659
58042,,10.326783,-2.303235,1.268867,-0.093514,-0.631937,0.035129,-78.969545,-73.146773,-9.854060
58043,,10.399912,-2.296753,1.346783,-0.203049,-0.522106,0.023581,-80.109538,-73.183017,-8.789081
58044,,10.407839,-2.357248,1.376498,-0.288978,-0.409744,0.006954,-81.046269,-73.217892,-7.984045
58045,,10.391850,-2.434416,1.461657,-0.340489,-0.311011,-0.003396,-81.864419,-73.241670,-7.339252
58046,,10.389975,-2.504923,1.488527,-0.385560,-0.209895,-0.012426,-82.480047,-73.265458,-6.927567
58047,,10.339025,-2.548357,1.588406,-0.463663,-0.094899,-0.003943,-82.959625,-73.270201,-6.708387
58048,,10.303712,-2.713615,1.688101,-0.570109,0.026922,0.014221,-83.240678,-73.260602,-6.756524
58049,,10.238348,-3.060347,1.572739,-0.652787,0.147149,0.038724,-83.376780,-73.224629,-7.005927
58050,,10.005459,-3.507734,1.288550,-0.650950,0.235218,0.057975,-83.321242,-73.176362,-7.454072
58051,,9.613150,-3.878073,0.837341,-0.562367,0.268431,0.072875,-83.183479,-73.112740,-7.936997
58052,,9.324993,-4.051459,0.345478,-0.445603,0.250680,0.082362,-82.990902,-73.048940,-8.405694
58053,,9.105786,-4.111328,0.062637,-0.331683,0.217433,0.080273,-82.822455,-72.983384,-8.780964
58054,,9.025215,-4.076376,-0.228500,-0.222229,0.183993,0.074741,-82.628590,-72.927888,-9.117466
58055,,8.898930,-4.105982,-0.360291,-0.137984,0.149293,0.090134,-82.482276,-72.860550,-9.357424
58056,,8.706656,-4.096810,-0.484756,-0.067959,0.094965,0.113438,-82.376657,-72.789282,-9.509291
58057,,8.644348,-4.133588,-0.588074,-0.027769,0.036939,0.128251,-82.387425,-72.707985,-9.517032
58058,,8.564785,-4.082302,-0.613417,0.031665,-0.025475,0.149811,-82.454208,-72.625147,-9.428641
58059,,8.573327,-3.918953,-0.639674,0.104087,-0.090214,0.162259,-82.629868,-72.533348,-9.184440
58060,,8.656285,-3.712571,-0.519565,0.172132,-0.148145,0.165956,-82.838623,-72.450073,-8.862715
58061,,8.773077,-3.506675,-0.359240,0.210844,-0.188362,0.163907,-83.127138,-72.363164,-8.436617
58062,,8.906482,-3.291078,-0.268968,0.225771,-0.216571,0.162066,-83.421024,-72.285778,-7.993002
58063,,9.074056,-3.206769,-0.138904,0.213494,-0.226475,0.155268,-83.768913,-72.204601,-7.500514
58064,,9.095401,-3.157478,-0.048782,0.196527,-0.220808,0.148196,-84.077840,-72.133844,-7.058327
58065,,9.271691,-3.167086,0.031901,0.184083,-0.216516,0.143512,-84.416222,-72.057054,-6.594338
58066,,9.351883,-3.193430,0.160025,0.178412,-0.201459,0.131353,-84.692735,-71.993356,-6.196794
58067,,9.441750,-3.177048,0.296485,0.185766,-0.185797,0.107818,-84.964680,-71.933909,-5.801853
58068,,9.516854,-3.171390,0.446768,0.181351,-0.167806,0.082262,-85.169121,-71.895473,-5.478119
58069,,9.606074,-3.159888,0.476927,0.173215,-0.149922,0.063219,-85.375046,-71.858901,-5.160226
58070,,9.656475,-3.114025,0.539608,0.164866,-0.125145,0.042125,-85.507153,-71.840782,-4.922446
58071,,9.698418,-3.012573,0.555300,0.143639,-0.097924,0.030205,-85.632346,-71.820368,-4.707768
58072,,9.698002,-2.951050,0.522735,0.109980,-0.074059,0.016789,-85.703116,-71.814211,-4.567617
58073,,9.706639,-2.879441,0.512527,0.053398,-0.034775,0.007288,-85.765710,-71.804206,-4.471696
58074,,9.620976,-2.898644,0.384711,0.001598,0.002349,-0.002095,-85.763257,-71.805524,-4.473991
58075,,9.503367,-2.975608,0.298339,-0.046043,0.032801,-0.002520,-85.762981,-71.798525,-4.504308
58076,,9.392895,-3.048576,0.179574,-0.075064,0.053381,-0.003151,-85.715700,-71.798265,-4.600040
58077,,9.330702,-3.113241,0.036754,-0.101407,0.059926,-0.001127,-85.699839,-71.789480,-4.680104
58078,,9.270443,-3.235831,-0.024310,-0.131918,0.066079,0.001457,-85.663808,-71.786001,-4.798303
58079,,9.211641,-3.290390,-0.059488,-0.149988,0.072498,0.007647,-85.655436,-71.771720,-4.900029
58080,,9.186560,-3.376894,-0.038338,-0.122783,0.058614,0.011452,-85.628645,-71.762822,-5.003014
58081,,9.186206,-3.377872,-0.037184,-0.118421,0.055178,0.010817,-85.633138,-71.747458,-5.072990
58082,,9.144980,-3.446058,-0.018182,-0.112874,0.047609,0.006324,-85.619251,-71.741954,-5.156434
58083,,9.134459,-3.492154,-0.079638,-0.098444,0.032140,0.005672,-85.652098,-71.730463,-5.183907
58084,,9.116598,-3.542629,-0.108749,-0.092868,0.017440,0.010618,-85.679646,-71.723822,-5.211664
58085,,9.104481,-3.656917,-0.199491,-0.090218,0.004358,0.007986,-85.756773,-71.712079,-5.187265
58086,,9.045363,-3.775297,-0.212604,-0.073590,-0.002145,0.020503,-85.808444,-71.700623,-5.177997
58087,,9.069429,-3.659556,-0.249164,-0.024632,-0.042989,0.021097,-85.931928,-71.683105,-5.066902
58088,,9.103819,-3.530244,-0.212044,-0.014053,-0.062743,0.020780,-86.054040,-71.673897,-4.947508
58089,,9.170402,-3.469534,-0.160119,-0.002993,-0.073917,0.025337,-86.219337,-71.654810,-4.779898
58090,,9.195970,-3.476604,-0.090623,0.005274,-0.076190,0.026382,-86.353907,-71.642697,-4.635704
58091,,9.264216,-3.475406,0.042977,0.019756,-0.073285,0.033913,-86.505927,-71.618309,-4.468115
58092,,9.257456,-3.478656,0.125106,0.027262,-0.068031,0.042723,-86.615117,-71.596344,-4.337369
58093,,9.316647,-3.487685,0.239478,0.030338,-0.055257,0.044885,-86.730589,-71.564752,-4.200407
58094,,9.331313,-3.478313,0.223612,0.034705,-0.038365,0.042010,-86.784024,-71.542081,-4.123912
58095,,9.312015,-3.468623,0.166356,0.041573,-0.029586,0.044919,-86.848219,-71.509460,-4.032799
58096,,9.310800,-3.408688,0.137957,0.047858,-0.024360,0.030406,-86.868811,-71.492935,-3.982979
58097,,9.273891,-3.447791,0.054357,0.049951,-0.016496,0.035313,-86.904476,-71.465310,-3.915864
58098,,9.238958,-3.386967,-0.015595,0.064458,-0.019711,0.026084,-86.907140,-71.451091,-3.874922
58099,,9.238252,-3.294269,-0.056477,0.064119,-0.017944,0.023147,-86.934944,-71.430491,-3.813373
58100,,9.221502,-3.277915,-0.056999,0.055864,-0.012580,0.019995,-86.929806,-71.419521,-3.785862
58101,,9.211922,-3.288691,-0.077168,0.039949,-0.007481,0.016490,-86.953505,-71.402388,-3.740745
58102,,9.236375,-3.331041,-0.040880,0.033538,-0.006703,0.013238,-86.950571,-71.395092,-3.724412
58103,,9.211055,-3.322618,-0.062077,0.025603,0.000931,0.005669,-86.967468,-71.383892,-3.694376
58104,,9.178687,-3.381149,-0.022188,0.015300,-0.002544,0.002834,-86.967033,-71.382411,-3.686444
58105,,9.194552,-3.399966,-0.020590,0.006228,0.005190,0.006471,-86.987758,-71.370635,-3.665603
58106,,9.169416,-3.391031,-0.041808,0.014096,0.002555,0.001470,-86.979297,-71.369769,-3.666881
58107,,9.210559,-3.386942,-0.032085,0.010783,-0.000214,-0.004782,-87.006326,-71.364508,-3.632891
58108,,9.194805,-3.367827,-0.032844,0.000890,0.003756,-0.011078,-87.002349,-71.370776,-3.637435
58109,,9.170108,-3.389175,-0.040460,-0.003507,0.007226,-0.010395,-87.024264,-71.368515,-3.619464
58110,,9.202531,-3.424946,-0.037736,-0.005442,0.006635,-0.011252,-87.019087,-71.374787,-3.629116
58111,,9.195751,-3.459705,0.010224,-0.002528,0.009057,-0.011033,-87.037539,-71.372802,-3.613627
58112,,9.244354,-3.513486,0.014340,-0.000713,0.008508,-0.018475,-87.025903,-71.383142,-3.627246
58113,,9.212982,-3.474896,0.013105,-0.001290,0.014126,-0.021293,-87.033965,-71.386833,-3.623463
58114,,9.220871,-3.468690,-0.019064,0.009815,0.012162,-0.023120,-87.009730,-71.399710,-3.644024
58115,,9.214513,-3.470821,0.015963,0.007952,0.013674,-0.020895,-87.013197,-71.403147,-3.640778
58116,,9.206319,-3.446365,-0.017144,0.003200,0.015832,-0.021026,-86.986731,-71.414703,-3.667702
58117,,9.155113,-3.494325,-0.086039,0.001057,0.018136,-0.016535,-86.987330,-71.415433,-3.669850
58118,,9.162803,-3.520314,-0.104309,0.006665,0.009571,-0.015848,-86.970040,-71.424201,-3.685010
58119,,9.197305,-3.518986,-0.060538,0.018981,0.002514,-0.016305,-86.987119,-71.425201,-3.660230
58120,,9.197883,-3.517486,-0.059985,0.019490,-0.005207,-0.016565,-86.987651,-71.434814,-3.648850
58121,,9.246710,-3.507669,-0.083840,0.025240,-0.002461,-0.019203,-87.009872,-71.437521,-3.613358
58122,,9.249179,-3.469319,-0.042760,0.034736,-0.006766,-0.018930,-87.004203,-71.448522,-3.599319
58123,,9.267672,-3.417756,-0.014498,0.032521,-0.006565,-0.017520,-87.029807,-71.450297,-3.554940
58124,,9.228913,-3.383810,0.017364,0.025977,-0.000795,-0.012354,-87.019646,-71.457344,-3.550945
58125,,9.211406,-3.432773,-0.009607,0.020925,-0.000916,-0.008085,-87.042986,-71.453545,-3.516985
58126,,9.154573,-3.417698,-0.019307,0.013636,0.003189,-0.009766,-87.033406,-71.458982,-3.519849
58127,,9.169088,-3.440443,-0.071928,0.017107,-0.003065,-0.004584,-87.062829,-71.453202,-3.482849
58128,,9.178276,-3.462252,-0.036961,0.014498,-0.003220,-0.009207,-87.063814,-71.458497,-3.474062
58129,,9.194686,-3.384718,-0.077667,0.018127,-0.011415,-0.014584,-87.106227,-71.458626,-3.422755
58130,,9.186194,-3.361005,-0.112921,0.017149,-0.013245,-0.013942,-87.122482,-71.466906,-3.396274
