// Start Time: Unknown
// Update Rate: 100.0Hz
// Filter Profile: human (46.1)
// Firmware Version: 4.3.5
PacketCounter,Acc_X,Acc_Y,Acc_Z,Gyr_X,Gyr_Y,Gyr_Z
23097,9.693523,-1.780486,0.887452,0.020152,0.000867,-0.029163
23098,9.726407,-1.788186,0.948009,0.023521,0.001325,-0.024043
23099,9.708885,-1.721732,0.929814,0.022876,0.004540,-0.022786
23100,9.701998,-1.746068,0.909955,0.019236,0.002850,-0.023073
23101,9.704706,-1.670819,0.902127,0.009937,0.005490,-0.026487
23102,9.680827,-1.690786,0.911986,0.009575,0.005296,-0.029152
23103,9.690268,-1.719692,0.922314,0.006559,0.009690,-0.032496
23104,9.646240,-1.747960,0.921951,0.003562,0.007113,-0.034485
23105,9.656633,-1.775443,0.872449,0.005564,0.008065,-0.033000
23106,9.639995,-1.768501,0.903296,0.014571,0.011171,-0.026111
23107,9.656599,-1.770991,0.934333,0.021527,0.002754,-0.025930
23108,9.673228,-1.773433,0.965143,0.025168,0.004459,-0.025632
23109,9.665406,-1.737934,0.896939,0.027883,0.008132,-0.019266
23110,9.637469,-1.772286,0.926814,0.025171,0.004468,-0.025621
23111,9.613619,-1.792557,0.936756,0.022897,0.002281,-0.022277
23112,9.647254,-1.799489,0.937816,0.027902,0.003499,-0.018347
23113,9.642299,-1.883203,0.907159,0.035559,0.002461,-0.014182
23114,9.629405,-1.863897,0.918023,0.038298,-0.000834,-0.006459
23115,9.675893,-1.890273,0.908620,0.034395,-0.006098,-0.001477
23116,9.679966,-1.876150,0.888710,0.024199,-0.010814,0.002973
23117,9.655767,-1.899259,0.896941,0.013008,-0.017169,0.006910
23118,9.601017,-1.971606,0.833206,0.010127,-0.027767,0.013769
23119,9.673880,-1.965557,0.911025,0.009900,-0.040616,0.020871
23120,9.724579,-1.972465,1.097218,-0.012192,-0.038870,0.055060
23121,9.734083,-2.001144,1.262790,-0.068976,-0.020604,0.093315
23122,9.773502,-2.117324,1.437424,-0.162275,-0.003944,0.144952
23123,9.790278,-2.318958,1.490491,-0.241761,0.022744,0.184750
23124,9.719273,-2.513888,1.472508,-0.311757,0.043470,0.209842
23125,9.689329,-2.812861,1.511692,-0.338490,0.058682,0.226391
23126,9.619876,-3.118458,1.569904,-0.315553,0.079311,0.247000
23127,9.646229,-3.334785,1.593659,-0.252391,0.090179,0.264111
23128,9.651558,-3.430960,1.673884,-0.172032,0.107451,0.282031
23129,9.672656,-3.471083,1.680885,-0.085040,0.124045,0.303089
23130,9.691919,-3.453365,1.704483,0.000956,0.138887,0.323692
23131,9.710322,-3.436795,1.731979,0.066192,0.149113,0.349913
23132,9.811063,-3.445942,1.733871,0.123213,0.161515,0.373947
23133,9.860408,-3.443710,1.768136,0.169495,0.171810,0.411644
23134,9.848858,-3.408413,1.724231,0.191640,0.177440,0.449882
23135,9.834745,-3.378943,1.740864,0.193419,0.183792,0.495649
23136,9.895642,-3.395562,1.808601,0.179298,0.185860,0.543912
23137,9.923037,-3.512097,1.892928,0.156717,0.191630,0.594453
23138,9.992629,-3.721691,1.897512,0.141603,0.200212,0.653735
23139,10.009695,-3.920758,1.872380,0.141535,0.212261,0.710881
23140,9.967762,-4.018054,1.879002,0.160838,0.216972,0.769548
23141,9.977912,-4.124095,1.839408,0.178679,0.223987,0.829716
23142,10.026427,-4.210766,1.923043,0.189654,0.222886,0.889041
23143,9.967577,-4.339087,1.952674,0.196535,0.229554,0.961695
23144,9.933941,-4.440989,2.014607,0.197119,0.227418,1.031942
23145,9.899340,-4.627819,2.116186,0.215509,0.221160,1.100881
23146,9.886016,-4.937386,2.180103,0.258724,0.215150,1.162971
23147,9.915328,-5.214025,2.290629,0.329527,0.211005,1.226022
23148,9.942365,-5.496180,2.287978,0.434378,0.212903,1.291089
23149,9.950415,-5.672346,2.362039,0.540961,0.217558,1.358671
23150,9.912100,-5.569659,2.486908,0.631470,0.225121,1.428122
23151,9.948500,-5.444610,2.569220,0.680707,0.244787,1.493429
23152,9.941753,-5.383293,2.601540,0.681528,0.264063,1.558539
23153,9.956726,-5.485666,2.551314,0.657269,0.286586,1.619493
23154,10.007091,-5.700676,2.520455,0.638173,0.307679,1.679393
23155,10.027705,-5.994878,2.506104,0.646837,0.330057,1.738672
23156,9.993531,-6.319324,2.586689,0.689946,0.344217,1.800443
23157,9.964720,-6.493992,2.646761,0.769010,0.360534,1.859210
23158,9.944232,-6.615330,2.722377,0.856411,0.379103,1.906135
23159,9.870770,-6.740429,2.843027,0.951501,0.394626,1.955688
23160,9.753554,-6.877328,2.890129,1.050002,0.412272,2.006952
23161,9.727747,-6.933727,2.854354,1.135178,0.427074,2.055632
23162,9.726680,-7.002304,2.777843,1.206011,0.439380,2.099875
23163,9.745432,-6.984798,2.756485,1.253743,0.461869,2.142050
23164,9.735129,-6.931460,2.738303,1.284770,0.477597,2.178534
23165,9.633258,-6.987116,2.749914,1.301532,0.502106,2.202677
23166,9.509813,-7.123064,2.756165,1.319881,0.519767,2.227002
23167,9.365030,-7.284174,2.749880,1.354261,0.541949,2.242629
23168,9.177557,-7.403077,2.766891,1.394245,0.552648,2.255975
23169,9.004974,-7.347635,2.809287,1.417711,0.564090,2.273085
23170,8.796329,-7.313274,2.963570,1.410789,0.568203,2.293797
23171,8.667008,-7.296963,3.125632,1.377187,0.565270,2.317150
23172,8.462965,-7.517583,3.197453,1.327278,0.570116,2.349252
23173,8.356972,-7.872258,3.174829,1.316122,0.561043,2.385327
23174,8.313243,-8.340581,3.024119,1.357017,0.557226,2.416993
23175,8.329140,-8.725711,2.919765,1.474608,0.555489,2.447033
23176,8.176643,-8.869264,2.892615,1.636297,0.556954,2.470417
23177,7.940645,-8.766368,3.005799,1.814193,0.554447,2.483769
23178,7.733981,-8.514275,3.253771,1.953260,0.563469,2.497909
23179,7.497901,-8.218097,3.436641,2.014224,0.576933,2.512124
23180,7.318941,-7.920068,3.546748,2.000160,0.589386,2.529998
23181,7.122895,-7.690006,3.626135,1.928983,0.601659,2.545256
23182,6.910566,-7.504677,3.674690,1.815818,0.623590,2.548712
23183,6.582877,-7.512005,3.779530,1.713393,0.632827,2.548744
23184,6.423920,-7.803924,3.978599,1.654243,0.643146,2.556480
23185,6.252407,-8.172977,4.116588,1.662971,0.656539,2.557847
23186,6.056502,-8.506066,4.285699,1.737756,0.671245,2.565506
23187,5.804507,-8.492294,4.316641,1.837267,0.685519,2.571202
23188,5.624092,-8.106471,4.315459,1.912903,0.703793,2.574471
23189,5.399810,-7.646667,4.249488,1.901049,0.707587,2.577766
23190,5.168321,-7.284966,4.314638,1.826727,0.704468,2.575504
23191,4.842104,-7.124247,4.447696,1.725568,0.690274,2.562183
23192,4.479167,-7.194512,4.638104,1.664866,0.665179,2.549355
23193,4.104219,-7.473104,4.681852,1.640662,0.629498,2.550564
23194,3.915642,-7.778677,4.697025,1.647039,0.585884,2.566823
23195,3.780928,-7.686714,4.695590,1.688801,0.546544,2.579629
23196,3.609242,-7.439114,4.823775,1.689560,0.513737,2.572243
23197,3.385198,-7.160220,4.976213,1.636399,0.487342,2.570437
23198,3.075976,-7.198376,4.945722,1.544259,0.446268,2.574105
23199,2.990929,-7.412701,5.016564,1.495965,0.402053,2.588885
23200,2.735923,-7.546925,5.122703,1.482983,0.353941,2.611768
23201,2.379134,-7.476259,5.152908,1.489326,0.293518,2.646387
23202,2.167324,-7.337877,5.218974,1.502580,0.225625,2.680761
23203,1.979776,-7.104796,5.269609,1.492836,0.163073,2.698081
23204,1.828308,-6.953288,5.261042,1.472330,0.103252,2.713176
23205,1.662185,-6.726387,5.262447,1.463163,0.059789,2.718067
23206,1.501275,-6.564589,5.426422,1.466984,0.010660,2.730257
23207,1.184645,-6.438484,5.497066,1.467203,-0.028962,2.742494
23208,0.975732,-6.221508,5.557317,1.476189,-0.079828,2.752997
23209,0.844175,-6.140881,5.540545,1.477571,-0.134569,2.759794
23210,0.770524,-5.993924,5.452558,1.545585,-0.178010,2.754591
23211,0.625551,-5.956967,5.311838,1.645517,-0.221922,2.735194
23212,0.555430,-6.050221,5.046324,1.817268,-0.268603,2.737317
23213,0.485344,-5.973599,4.801841,2.071139,-0.322856,2.736982
23214,0.459994,-5.616067,4.747743,2.356086,-0.374513,2.720707
23215,0.528561,-5.270342,5.032058,2.586675,-0.391837,2.740732
23216,0.420846,-4.715180,5.469496,2.711924,-0.393648,2.763828
23217,0.345119,-3.452588,6.156621,2.671852,-0.405214,2.764204
23218,0.146586,-1.648417,6.951707,2.366418,-0.419547,2.748964
23219,-0.048826,-0.187663,7.686075,1.761508,-0.447814,2.753846
23220,-0.243318,0.427753,7.991272,0.964168,-0.465773,2.759837
23221,-0.488934,0.200107,7.911556,0.204481,-0.498059,2.758087
23222,-0.670622,-0.838146,7.449808,-0.347315,-0.551930,2.721354
23223,-0.824093,-2.132429,6.987485,-0.574250,-0.621994,2.697938
23224,-0.908801,-3.026192,6.687859,-0.529595,-0.692649,2.662620
23225,-0.801892,-3.547371,6.826962,-0.357885,-0.747478,2.642017
23226,-0.740928,-3.121805,7.200392,-0.214857,-0.790266,2.620843
23227,-0.774491,-1.979507,7.776582,-0.160010,-0.806873,2.551536
23228,-0.809966,-0.958218,8.279217,-0.301576,-0.825323,2.489702
23229,-0.767957,-0.528437,8.451520,-0.540699,-0.829020,2.435855
23230,-0.748549,-0.594975,8.489452,-0.734054,-0.826197,2.356327
23231,-0.702737,-1.119375,8.384267,-0.862138,-0.829090,2.282911
23232,-0.794881,-1.540085,8.302655,-0.840872,-0.824626,2.204536
23233,-0.878748,-1.622367,8.342720,-0.773986,-0.831753,2.110564
23234,-0.913770,-1.547143,8.388555,-0.688860,-0.818849,2.032808
23235,-1.032885,-1.157099,8.596155,-0.675700,-0.796097,1.926623
23236,-0.988290,-0.900841,8.704102,-0.744798,-0.777598,1.834140
23237,-0.922035,-0.745727,8.809741,-0.838907,-0.743351,1.723973
23238,-1.060635,-0.830137,8.800430,-0.968198,-0.705331,1.618974
23239,-1.188081,-1.176947,8.752869,-1.025995,-0.679442,1.509939
23240,-1.301452,-1.649642,8.686417,-1.010992,-0.639568,1.380680
23241,-1.287622,-2.187896,8.784213,-0.923360,-0.623376,1.258948
23242,-1.080338,-2.464809,8.870029,-0.767360,-0.601489,1.151211
23243,-0.965632,-2.940065,8.612237,-0.551840,-0.533621,1.052861
23244,-1.141323,-3.739306,8.383982,-0.248955,-0.490909,0.979983
23245,-1.084729,-4.455043,8.069674,0.183334,-0.477755,0.937833
23246,-1.013580,-4.809895,8.156818,0.698855,-0.450005,0.904591
23247,-1.183164,-4.067743,8.698741,1.145247,-0.452138,0.880952
23248,-1.183657,-2.246259,9.251894,1.310801,-0.433729,0.856081
23249,-1.239836,-0.456472,9.705915,1.058298,-0.405942,0.827871
23250,-1.233368,0.291234,9.771885,0.454936,-0.372198,0.823613
23251,-1.508509,-0.602921,9.334394,-0.129898,-0.336027,0.798395
23252,-1.603099,-2.467894,8.853466,-0.397886,-0.338981,0.768065
23253,-1.739883,-3.963856,8.621229,-0.345871,-0.379713,0.769848
23254,-1.842897,-3.966207,8.645616,-0.123984,-0.458397,0.767108
23255,-1.783432,-2.302403,9.044816,-0.075994,-0.516474,0.776624
23256,-2.008717,0.110980,9.561069,-0.389972,-0.549982,0.776917
23257,-2.033333,1.790640,10.423152,-1.038132,-0.557154,0.705410
23258,-1.755239,1.353221,10.780885,-1.801543,-0.521286,0.622183
23259,-1.666359,-1.024560,10.110940,-2.102674,-0.445923,0.488451
23260,-1.454952,-2.966357,10.289125,-1.614130,-0.379127,0.228101
23261,-0.559737,-2.624232,11.478836,-0.733420,-0.274394,-0.084698
23262,0.253847,-1.029513,12.582311,-0.112454,-0.096580,-0.273987
23263,0.027638,-1.395128,12.138436,-0.002478,0.081983,-0.327016
23264,-0.695726,-3.763377,10.832042,-0.003944,0.184002,-0.359677
23265,-1.322871,-5.447363,9.630341,0.205862,0.186245,-0.437169
23266,-1.353328,-5.234953,9.061764,0.494906,0.146907,-0.503123
23267,-1.250450,-4.022837,8.957271,0.591465,0.120635,-0.499274
23268,-1.274624,-3.064136,8.914459,0.478059,0.111939,-0.443858
23269,-1.399892,-2.756922,8.982468,0.283071,0.092895,-0.419338
23270,-1.358919,-2.617693,9.205317,0.132104,0.065760,-0.432905
23271,-1.304622,-2.225384,9.420058,0.039278,0.034280,-0.491378
23272,-1.203331,-1.754761,9.654231,-0.041556,0.002062,-0.584894
23273,-0.984631,-1.419845,9.763345,-0.117466,-0.016280,-0.704619
23274,-0.822281,-1.246547,9.937355,-0.145914,-0.029720,-0.853284
23275,-0.647689,-1.315100,10.052123,-0.120353,-0.042705,-1.014507
23276,-0.429712,-1.466962,10.164312,-0.000668,-0.043317,-1.205277
23277,-0.225930,-1.536546,10.052649,0.155428,-0.033034,-1.386251
23278,-0.092655,-1.478942,10.093324,0.355793,-0.012261,-1.585359
23279,0.034510,-1.437945,10.028668,0.517961,0.003963,-1.774879
23280,0.053680,-1.260378,9.666202,0.651646,0.007053,-1.946952
23281,-0.039885,-0.691691,9.612985,0.737118,-0.021530,-2.131975
23282,-0.056767,0.005857,9.744520,0.711338,-0.066347,-2.310732
23283,0.110920,0.543536,10.023458,0.575287,-0.118840,-2.489374
23284,0.611130,0.701863,10.128404,0.358382,-0.152684,-2.669720
23285,1.052539,0.557144,10.138949,0.176396,-0.163106,-2.862022
23286,1.517247,-0.095541,10.218616,0.010950,-0.155681,-3.025237
23287,1.965265,-0.963434,9.952844,-0.065631,-0.119880,-3.137762
23288,2.166064,-1.519011,9.742294,-0.017596,-0.101986,-3.267671
23289,2.065551,-1.866981,9.555872,0.083333,-0.083906,-3.356126
23290,1.897089,-1.976697,9.609913,0.191108,-0.073895,-3.432451
23291,1.988663,-1.952168,9.848841,0.293965,-0.075196,-3.517383
23292,2.246463,-1.731478,10.221389,0.355624,-0.071938,-3.594714
23293,2.650501,-1.588864,10.496068,0.318896,-0.058663,-3.662884
23294,3.046129,-1.425362,10.842343,0.182036,-0.023836,-3.696274
23295,3.426427,-1.123355,11.178248,-0.111035,0.037849,-3.704413
23296,3.620197,-0.686629,11.268507,-0.549964,0.112584,-3.713554
23297,3.868584,-0.567728,11.450861,-1.174119,0.227831,-3.688117
23298,4.235763,-1.186656,11.418107,-1.880990,0.388367,-3.622062
23299,4.566551,-2.413256,11.043745,-2.509242,0.584017,-3.554544
23300,4.733049,-4.098015,10.664618,-2.886181,0.796769,-3.480190
23301,4.805298,-6.083040,10.514475,-2.913031,1.014154,-3.397017
23302,4.704681,-7.593935,10.395981,-2.564465,1.230605,-3.324228
23303,4.492355,-8.212742,10.278244,-1.940663,1.431702,-3.280023
23304,4.225336,-8.015682,10.028382,-1.226754,1.605435,-3.255595
23305,3.914755,-7.248491,9.533605,-0.538656,1.723014,-3.249749
23306,3.756975,-6.223965,9.081413,0.029565,1.785517,-3.264165
23307,3.596160,-5.395755,8.563598,0.425963,1.795811,-3.271581
23308,3.506495,-4.744547,8.297876,0.662061,1.752728,-3.282691
23309,3.555518,-4.190967,8.399771,0.743597,1.685970,-3.305354
23310,3.628899,-3.622205,8.419302,0.745410,1.612937,-3.348703
23311,3.766734,-3.228210,8.509126,0.703260,1.531733,-3.403280
23312,4.010589,-3.352120,8.650583,0.643409,1.477171,-3.437022
23313,4.106926,-3.774192,8.627675,0.633551,1.430229,-3.470625
23314,4.171885,-3.949056,8.502472,0.717327,1.390132,-3.526055
23315,4.082594,-4.077662,8.429514,0.860868,1.362712,-3.571956
23316,3.966602,-4.014905,8.528718,1.049861,1.327383,-3.613621
23317,3.948906,-3.862569,8.643800,1.230712,1.284334,-3.657083
23318,3.967568,-3.538628,8.883996,1.327690,1.216826,-3.682879
23319,3.970735,-2.928526,8.933247,1.326093,1.136468,-3.699163
23320,4.058710,-2.374512,8.937495,1.229896,1.061649,-3.719547
23321,4.174351,-2.036995,8.991484,1.072739,1.006595,-3.736444
23322,4.206436,-1.950522,8.989317,0.942760,0.974228,-3.758199
23323,4.065640,-1.895870,8.861396,0.883216,0.963789,-3.798061
23324,3.885155,-1.877233,8.708881,0.902413,0.937540,-3.841198
23325,3.864243,-1.841891,8.496995,0.953130,0.897029,-3.881550
23326,3.827918,-1.474891,8.264794,1.009778,0.836416,-3.923743
23327,3.827277,-0.912149,8.406162,0.983433,0.760012,-3.972893
23328,4.031734,-0.505730,8.541349,0.834944,0.655554,-3.979908
23329,4.462662,-0.452090,8.440257,0.645687,0.571100,-3.975036
23330,4.773309,-0.671884,8.439542,0.484825,0.522328,-3.966612
23331,4.912028,-0.879242,8.338942,0.414528,0.502783,-3.948374
23332,4.943912,-1.316975,8.252218,0.431893,0.490387,-3.930516
23333,5.033116,-1.618866,8.235723,0.549190,0.478798,-3.895287
23334,4.931597,-1.276000,8.358844,0.681617,0.488950,-3.877649
23335,4.774302,-0.525608,8.694600,0.697315,0.473914,-3.865024
23336,4.715101,0.064566,8.936189,0.539460,0.454607,-3.833128
23337,4.896107,0.428642,9.114120,0.306141,0.444853,-3.815292
23338,5.048612,0.419572,9.280201,0.044069,0.445198,-3.797162
23339,5.096308,0.008955,9.288101,-0.175094,0.449891,-3.751577
23340,4.975628,-0.570130,9.154659,-0.283786,0.450553,-3.697220
23341,4.881141,-1.102823,9.065747,-0.280249,0.445320,-3.638482
23342,4.746267,-1.453193,8.875688,-0.180688,0.437363,-3.570306
23343,4.681039,-1.529348,8.760200,-0.042404,0.421331,-3.503240
23344,4.574259,-1.564723,8.676504,0.079247,0.389691,-3.413313
23345,4.555213,-1.417851,8.556894,0.167450,0.364189,-3.305880
23346,4.411854,-0.880810,8.301209,0.191328,0.336694,-3.199906
23347,4.147967,-0.174171,8.170278,0.131262,0.306051,-3.125505
23348,3.832137,0.379229,7.967509,-0.071838,0.252171,-3.044082
23349,3.318043,0.578448,7.711666,-0.344565,0.175640,-2.965175
23350,3.006228,0.373366,8.026478,-0.601950,0.067310,-2.899724
23351,3.185642,-0.342482,8.531597,-0.781328,-0.013212,-2.839281
23352,3.518779,-1.229806,9.035897,-0.781761,-0.034256,-2.795059
23353,3.837040,-1.729321,9.397273,-0.635328,-0.016340,-2.783495
23354,4.033688,-1.583981,9.428472,-0.458377,0.027867,-2.753904
23355,3.627525,-0.595895,8.872316,-0.378292,0.030872,-2.756627
23356,2.895747,0.444436,8.348093,-0.534438,-0.020838,-2.755516
23357,2.305512,0.824044,8.438372,-0.860180,-0.118837,-2.732830
23358,2.640410,0.153237,8.901768,-1.223671,-0.189420,-2.704915
23359,3.404262,-1.248495,9.442041,-1.422121,-0.192457,-2.667040
23360,3.937742,-2.547955,9.660597,-1.359002,-0.156905,-2.625927
23361,4.082507,-3.017815,9.690894,-1.109806,-0.110145,-2.575875
23362,3.753036,-2.592227,9.356098,-0.857722,-0.068448,-2.537022
23363,3.216976,-1.769070,8.770704,-0.781328,-0.070483,-2.492492
23364,2.800985,-1.316892,8.762818,-0.883587,-0.108579,-2.441180
23365,2.817662,-1.539268,8.983666,-1.076895,-0.143772,-2.388952
23366,3.110961,-2.360293,9.344062,-1.226607,-0.147363,-2.328839
23367,3.295452,-3.484849,9.512127,-1.242781,-0.142142,-2.248381
23368,3.379655,-4.286815,9.578308,-1.095116,-0.132456,-2.137030
23369,3.524967,-4.375917,9.487689,-0.864132,-0.119331,-2.027886
23370,3.568555,-3.807903,9.370766,-0.676237,-0.105972,-1.924395
23371,3.527429,-2.939683,9.054679,-0.627859,-0.099611,-1.826214
23372,3.237036,-2.375441,8.851728,-0.728199,-0.109758,-1.750116
23373,2.845983,-2.530022,8.848494,-0.909424,-0.133986,-1.662586
23374,2.769441,-3.242821,8.681099,-1.043197,-0.156908,-1.582289
23375,2.778145,-4.386258,8.561771,-0.986665,-0.167963,-1.507830
23376,2.732757,-5.295989,8.563543,-0.728598,-0.192727,-1.435208
23377,2.912666,-5.421678,8.639723,-0.360177,-0.216962,-1.365008
23378,3.070127,-4.670822,8.650380,-0.032893,-0.234854,-1.316591
23379,2.947059,-3.721321,8.723519,0.109974,-0.257502,-1.287955
23380,2.705890,-2.895483,8.967078,0.078696,-0.280509,-1.261134
23381,2.512390,-2.462481,9.322504,-0.110081,-0.298042,-1.264178
23382,2.490459,-2.859698,9.447566,-0.367197,-0.304056,-1.250075
23383,2.688652,-3.468794,9.541484,-0.543709,-0.308898,-1.239211
23384,2.976150,-4.032833,9.460462,-0.616127,-0.300850,-1.215973
23385,3.114169,-4.384675,9.439396,-0.617328,-0.293648,-1.179391
23386,2.990208,-4.662700,9.434892,-0.576198,-0.282584,-1.136658
23387,2.981994,-4.660506,9.286577,-0.525184,-0.276877,-1.069988
23388,3.024366,-4.618881,9.393817,-0.498861,-0.282215,-1.013611
23389,2.702127,-4.877954,9.890064,-0.469317,-0.276199,-0.922653
23390,2.426807,-5.145684,10.143192,-0.412831,-0.270707,-0.835650
23391,2.536509,-5.285338,10.089970,-0.332902,-0.253120,-0.751195
23392,2.823108,-5.213695,9.884933,-0.246794,-0.246762,-0.663179
23393,2.940248,-4.993064,10.031051,-0.204405,-0.238409,-0.569841
23394,2.857957,-4.798966,10.135918,-0.216259,-0.223694,-0.481549
23395,2.858506,-4.827524,10.208181,-0.247482,-0.208670,-0.390674
23396,2.762304,-4.950175,10.199598,-0.257127,-0.180663,-0.308472
23397,2.661054,-5.074880,10.191787,-0.231397,-0.171190,-0.234876
23398,2.687950,-5.150885,10.257649,-0.186543,-0.147213,-0.167966
23399,2.720181,-5.266441,10.176263,-0.133578,-0.127757,-0.096268
23400,2.739884,-5.221062,10.141291,-0.058757,-0.109593,-0.035329
23401,2.870055,-5.190795,10.152732,0.021330,-0.091100,0.011889
23402,2.959956,-5.077852,10.048769,0.082126,-0.065921,0.068328
23403,2.926547,-4.970549,9.957271,0.105561,-0.058633,0.121231
23404,2.946662,-4.841744,9.963441,0.111247,-0.050229,0.183003
23405,2.940307,-4.860817,9.942370,0.111205,-0.046129,0.250958
23406,2.899387,-4.918937,9.886740,0.119855,-0.043069,0.316272
23407,2.945413,-4.936215,9.861840,0.147202,-0.046447,0.377222
23408,3.030402,-4.971667,9.854059,0.169603,-0.041383,0.446494
23409,3.034418,-5.032034,9.873940,0.192089,-0.039205,0.522398
23410,3.139054,-5.079241,9.854165,0.226020,-0.027106,0.604727
23411,3.153863,-5.088603,9.805108,0.277212,-0.022216,0.684807
23412,3.151772,-5.064572,9.752614,0.323282,-0.006448,0.772329
23413,3.129710,-5.090732,9.753221,0.362220,-0.002281,0.874010
23414,3.155051,-5.143848,9.803689,0.405582,0.016922,0.986093
23415,3.294249,-5.192287,9.770285,0.473599,0.026644,1.101764
23416,3.413319,-5.069874,9.694397,0.563195,0.044528,1.205995
23417,3.345536,-4.660038,9.500753,0.651185,0.062004,1.289116
23418,3.451481,-4.087727,9.316822,0.678452,0.073448,1.343330
23419,3.461635,-3.610138,9.203864,0.615433,0.082966,1.390800
23420,3.220514,-3.314194,9.199040,0.482933,0.082922,1.434981
23421,3.015049,-3.239947,9.255300,0.346126,0.068782,1.472383
23422,3.104259,-3.420226,9.133647,0.248249,0.057300,1.512898
23423,3.216456,-3.709573,8.880332,0.226782,0.041696,1.550413
23424,3.318649,-3.942941,8.512393,0.273874,0.025886,1.595532
23425,3.418578,-4.038913,8.201032,0.345152,-0.001492,1.663478
23426,3.745011,-4.004688,8.203636,0.432331,-0.037017,1.757162
23427,4.029656,-3.922835,8.313335,0.523044,-0.065170,1.868158
23428,4.101341,-3.937081,8.532471,0.616593,-0.075942,1.998982
23429,4.030507,-3.937462,8.655282,0.709881,-0.086104,2.140810
23430,4.037056,-3.996701,8.717997,0.814881,-0.088721,2.285790
23431,4.134299,-3.914173,8.751922,0.916091,-0.090142,2.434637
23432,4.299874,-3.699394,8.875428,1.012358,-0.090351,2.571464
23433,4.434249,-3.324703,9.015169,1.069093,-0.075157,2.700666
23434,4.488807,-3.039304,9.120518,1.076610,-0.059942,2.822992
23435,4.550522,-2.723638,9.231467,1.045660,-0.040842,2.935700
23436,4.531206,-2.455447,9.429142,0.976055,-0.017831,3.040760
23437,4.557164,-2.321022,9.487389,0.886667,-0.004485,3.135855
23438,4.585093,-2.275796,9.542787,0.795588,0.018242,3.226330
23439,4.644670,-2.320825,9.660874,0.717882,0.033028,3.311053
23440,4.704641,-2.390178,9.756481,0.669298,0.051414,3.393791
23441,4.766976,-2.480406,9.885194,0.653949,0.070075,3.474062
23442,4.843789,-2.528601,9.968736,0.662888,0.097047,3.548318
23443,4.931200,-2.465652,10.027044,0.691175,0.121664,3.615492
23444,5.018913,-2.402508,10.107762,0.708362,0.151088,3.679031
23445,5.053669,-2.258106,10.024682,0.728348,0.177820,3.744664
23446,4.969571,-2.046292,10.022294,0.729775,0.191745,3.804654
23447,4.862559,-1.932445,10.035194,0.711087,0.197331,3.852719
23448,4.803425,-1.839701,10.088003,0.691276,0.207882,3.893843
23449,4.797263,-1.803386,10.172328,0.682889,0.224679,3.925524
23450,4.750393,-1.806327,10.218047,0.684815,0.245743,3.947189
23451,4.762437,-1.758270,10.179892,0.690860,0.278296,3.969349
23452,4.682235,-1.590798,10.095777,0.688820,0.309540,3.978816
23453,4.542359,-1.386556,10.044749,0.666309,0.332904,3.986821
23454,4.423987,-1.202686,10.002512,0.586596,0.352910,3.997808
23455,4.300311,-1.011782,9.979171,0.481161,0.365286,4.008042
23456,4.178004,-0.906235,10.058879,0.342897,0.370138,4.022459
23457,4.010095,-0.848951,10.022298,0.195549,0.369080,4.026527
23458,3.917526,-0.890939,9.975417,0.044522,0.364618,4.028357
23459,3.732445,-1.069910,9.844871,-0.070058,0.360832,4.040743
23460,3.579675,-1.299596,9.680461,-0.138408,0.347869,4.036479
23461,3.500128,-1.510740,9.605993,-0.158294,0.331581,4.035874
23462,3.401514,-1.667745,9.560447,-0.132903,0.311447,4.030947
23463,3.316405,-1.748649,9.442677,-0.096565,0.285583,4.034093
23464,3.344731,-1.667111,9.438906,-0.074754,0.264382,4.046368
23465,3.259587,-1.510520,9.395199,-0.081506,0.245335,4.056040
23466,3.041542,-1.222295,9.408609,-0.123800,0.225211,4.054455
23467,2.860692,-1.077587,9.384220,-0.192713,0.200765,4.052273
23468,2.651804,-1.173856,9.383719,-0.275080,0.172959,4.043698
23469,2.569708,-1.378456,9.311573,-0.302175,0.141616,4.031788
23470,2.512958,-1.525549,9.200628,-0.302738,0.112625,4.017026
23471,2.332102,-1.371042,9.055646,-0.254411,0.074290,4.002173
23472,2.214642,-1.113481,9.026841,-0.218118,0.034241,3.980531
23473,2.066271,-0.849456,9.079342,-0.239773,-0.009663,3.972102
23474,1.969273,-0.702606,9.143162,-0.315477,-0.046769,3.960267
23475,1.923261,-0.665764,9.205413,-0.427622,-0.079578,3.944048
23476,1.768127,-0.611312,9.198985,-0.545294,-0.120422,3.914308
23477,1.723000,-0.731419,9.205787,-0.653679,-0.156871,3.897268
23478,1.519606,-0.921209,9.220964,-0.708272,-0.201596,3.871073
23479,1.500435,-1.169549,9.217927,-0.720186,-0.245017,3.841263
23480,1.578133,-1.551206,9.220083,-0.702383,-0.277631,3.826940
23481,1.626919,-1.560378,9.192847,-0.639509,-0.308056,3.803319
23482,1.655027,-1.391302,9.200702,-0.617288,-0.339052,3.787371
23483,1.563297,-0.979035,9.326544,-0.624643,-0.362657,3.768316
23484,1.411320,-0.640859,9.438500,-0.723679,-0.378154,3.741164
23485,1.214984,-0.381168,9.467839,-0.859881,-0.402552,3.700610
23486,1.105769,-0.387738,9.493434,-1.028571,-0.438673,3.654463
23487,1.152619,-0.735723,9.314666,-1.156517,-0.470990,3.611838
23488,1.200618,-1.142067,9.174999,-1.194575,-0.511482,3.553406
23489,1.090415,-1.244861,9.137783,-1.160537,-0.560613,3.480588
23490,0.969588,-1.189430,9.114721,-1.155150,-0.600785,3.427175
23491,0.912543,-0.890510,9.110382,-1.191139,-0.635990,3.376869
23492,0.892053,-0.641292,9.104982,-1.301903,-0.668373,3.307475
23493,0.825019,-0.621196,9.033842,-1.435945,-0.704732,3.232352
23494,0.628507,-0.859741,8.919722,-1.552495,-0.742751,3.158540
23495,0.386837,-1.074069,8.742104,-1.577544,-0.787660,3.065343
23496,0.260542,-1.128458,8.817293,-1.559079,-0.835020,2.957889
23497,0.121905,-0.812383,8.773658,-1.588723,-0.877147,2.866330
23498,-0.101890,0.085533,8.611737,-1.731563,-0.915938,2.766146
23499,-0.562312,1.533159,8.180557,-2.121293,-0.982728,2.652822
23500,-1.259262,3.046346,7.946505,-2.788383,-1.066714,2.549661
23501,-1.820707,3.497255,7.538327,-3.743298,-1.160385,2.443509
23502,-1.915578,2.517386,7.181196,-4.665460,-1.281319,2.296378
23503,-1.386451,0.066610,6.684814,-5.347068,-1.388034,2.134536
23504,-0.861452,-3.171069,6.407334,-5.524439,-1.458867,1.963599
23505,-0.381393,-5.970582,6.414079,-5.148889,-1.501922,1.771894
23506,0.056890,-7.464168,6.899535,-4.407528,-1.494951,1.577762
23507,0.356886,-7.466190,7.308300,-3.622520,-1.437649,1.429453
23508,0.461859,-6.592087,7.721734,-2.998503,-1.335805,1.316583
23509,0.645623,-6.012193,8.320166,-2.562418,-1.187452,1.189958
23510,0.892569,-5.863626,8.847258,-2.274780,-1.013509,1.069821
23511,1.078237,-5.936849,9.316884,-2.072143,-0.825175,0.947368
23512,1.115806,-5.921557,9.586324,-1.945347,-0.615794,0.831327
23513,0.837282,-5.804879,9.522919,-1.874430,-0.409357,0.724837
23514,0.450973,-5.778215,9.474651,-1.835546,-0.210557,0.606708
23515,0.173848,-6.174498,9.275504,-1.775633,-0.026356,0.508287
23516,0.083457,-6.729065,9.157157,-1.671485,0.155167,0.415172
23517,0.091851,-6.919274,9.196722,-1.489350,0.338874,0.316515
23518,-0.019068,-6.823774,9.111999,-1.306215,0.508903,0.201837
23519,0.037516,-6.822081,8.850461,-1.146969,0.675378,0.081692
23520,0.051897,-6.963041,8.383670,-1.002225,0.831843,-0.042669
23521,-0.022094,-7.143360,7.851607,-0.825828,0.969553,-0.161123
23522,-0.238104,-7.141647,7.403703,-0.636081,1.079374,-0.274628
23523,-0.338233,-6.919797,6.996685,-0.482013,1.160903,-0.382835
23524,-0.461109,-6.376383,6.705855,-0.362515,1.225349,-0.501516
23525,-0.668147,-5.649843,6.516106,-0.323867,1.282663,-0.636160
23526,-0.884657,-5.123155,6.250088,-0.383791,1.333017,-0.753735
23527,-0.954907,-4.923251,5.783531,-0.518294,1.374007,-0.865132
23528,-0.956554,-4.837347,5.398656,-0.669447,1.399401,-0.997197
23529,-0.912002,-4.930112,5.117448,-0.806541,1.413387,-1.128421
23530,-0.885394,-5.280814,4.860794,-0.873889,1.406209,-1.259418
23531,-0.861493,-5.651598,4.647556,-0.878755,1.388388,-1.390410
23532,-0.933895,-5.877674,4.484706,-0.766693,1.377685,-1.523585
23533,-0.936257,-5.984328,4.358053,-0.647156,1.362487,-1.655993
23534,-0.798825,-6.359134,3.980814,-0.563388,1.341805,-1.736729
23535,-0.712781,-6.195322,3.667981,-0.455374,1.334110,-1.844871
23536,-0.812970,-5.602091,3.612403,-0.399266,1.316863,-1.973706
23537,-0.940201,-5.081430,3.514477,-0.442881,1.278345,-2.087645
23538,-0.811385,-4.712142,3.456447,-0.585636,1.235921,-2.198195
23539,-0.456240,-4.826959,3.364879,-0.833310,1.176991,-2.306005
23540,0.010042,-5.632799,2.938267,-1.129989,1.140978,-2.356707
23541,0.249254,-6.277152,2.826782,-1.291294,1.117128,-2.442762
23542,0.216083,-6.845873,2.727255,-1.363453,1.092980,-2.521918
23543,0.181878,-7.468439,2.577335,-1.354466,1.058838,-2.561660
23544,0.319972,-7.654224,2.505253,-1.271724,1.039339,-2.620060
23545,0.336769,-7.409894,2.370347,-1.300191,1.010858,-2.667697
23546,0.522782,-6.841503,2.105383,-1.442491,0.974193,-2.681386
23547,0.846619,-5.950435,1.894002,-1.669009,0.954263,-2.755599
23548,1.350094,-5.707677,1.699748,-1.992345,0.937885,-2.814054
23549,1.721261,-6.052965,1.455661,-2.250758,0.923615,-2.873310
23550,2.211835,-7.320847,1.259965,-2.422739,0.908058,-2.914631
23551,2.686133,-9.257260,1.001738,-2.413996,0.899371,-2.894920
23552,3.064033,-10.470764,1.119922,-2.162389,0.911306,-2.926516
23553,3.176339,-10.581782,1.173919,-1.848137,0.901210,-2.932722
23554,3.200782,-9.506145,1.354995,-1.556093,0.882698,-2.956881
23555,3.250325,-8.355620,1.593812,-1.425089,0.865497,-2.996638
23556,3.443709,-8.221600,1.609511,-1.435796,0.841021,-2.999965
23557,3.887624,-8.775741,1.544385,-1.438997,0.825420,-3.025400
23558,4.425360,-9.917787,1.289833,-1.401791,0.801020,-3.039351
23559,5.047147,-11.089382,1.056104,-1.234560,0.783947,-3.008795
23560,5.651952,-11.675581,0.942961,-0.990953,0.772397,-2.984231
23561,5.889247,-10.842839,1.137101,-0.702435,0.748982,-2.991350
23562,5.923735,-9.719221,1.494156,-0.586826,0.695215,-2.981489
23563,5.837320,-8.878213,1.852647,-0.659221,0.646770,-2.922070
23564,5.812046,-8.569602,1.999601,-0.847200,0.601698,-2.883325
23565,5.852662,-8.548586,2.032669,-1.051357,0.568164,-2.868085
23566,6.051765,-8.824987,1.975574,-1.178514,0.545665,-2.884511
23567,6.377393,-9.281333,1.779715,-1.213594,0.516162,-2.899655
23568,6.780572,-9.687720,1.619839,-1.170339,0.482235,-2.896312
23569,7.387317,-9.748153,1.563268,-1.071508,0.454302,-2.867111
23570,7.848690,-9.504274,1.775454,-0.967651,0.416161,-2.844859
23571,8.126351,-9.141358,2.072231,-0.923626,0.400454,-2.788534
23572,8.132557,-8.678691,2.118702,-0.920180,0.377647,-2.743552
23573,8.252994,-8.376048,2.229699,-0.951088,0.360467,-2.690131
23574,8.367308,-8.370265,2.286629,-1.007753,0.378048,-2.628995
23575,8.453418,-8.343192,2.224108,-1.034746,0.395428,-2.595928
23576,8.373149,-8.167025,2.151265,-1.019524,0.413561,-2.586022
23577,8.373219,-7.735595,2.053052,-0.974913,0.423965,-2.606087
23578,8.441739,-7.167175,1.847969,-0.933807,0.426254,-2.646267
23579,8.562948,-6.540012,1.673959,-0.903252,0.411214,-2.708200
23580,8.830751,-6.235507,1.666643,-0.931783,0.404652,-2.736632
23581,9.135240,-6.213426,1.631185,-0.988686,0.396392,-2.738435
23582,9.463461,-6.154783,1.608343,-1.048236,0.385983,-2.751393
23583,9.710985,-5.841955,1.672419,-1.125822,0.375137,-2.758881
23584,10.120939,-5.405773,1.743582,-1.297846,0.349729,-2.750533
23585,10.345307,-5.462995,1.596673,-1.467222,0.358117,-2.716255
23586,10.558663,-5.635092,1.456801,-1.565853,0.351580,-2.680600
23587,10.855333,-5.998778,1.169242,-1.557545,0.341547,-2.637671
23588,11.032890,-6.077471,0.905456,-1.427836,0.348556,-2.614004
23589,11.094841,-5.262150,1.115030,-1.220705,0.325872,-2.617160
23590,11.371928,-4.743355,1.082576,-1.112549,0.285558,-2.587550
23591,11.643501,-4.747519,1.272015,-1.011160,0.244004,-2.546362
23592,12.235012,-5.379066,1.490853,-0.854387,0.180677,-2.471660
23593,12.702705,-5.969767,1.666974,-0.564590,0.141314,-2.392284
23594,12.693072,-6.385072,1.738943,-0.179671,0.113986,-2.266067
23595,12.139328,-6.172509,1.675016,0.239259,0.083761,-2.092344
23596,11.444210,-5.396477,1.584777,0.654074,0.031118,-1.941427
23597,11.043181,-4.495449,1.587992,0.956272,-0.035920,-1.751535
23598,10.939943,-3.648774,1.687825,1.113521,-0.096973,-1.544616
23599,10.984295,-3.131423,1.790850,1.139031,-0.148802,-1.322040
23600,10.980282,-2.728179,1.959480,1.080455,-0.177619,-1.128061
23601,10.804629,-2.475518,2.082591,0.966779,-0.194113,-0.952451
23602,10.620980,-2.334058,2.111903,0.826417,-0.202935,-0.800847
23603,10.524336,-2.430044,2.050884,0.685573,-0.202236,-0.662023
23604,10.378219,-2.551047,1.859207,0.610954,-0.183275,-0.553291
23605,10.128305,-2.495235,1.796505,0.590394,-0.147556,-0.479092
23606,9.837696,-2.254474,1.673704,0.592475,-0.117947,-0.422925
23607,9.688725,-1.904389,1.679553,0.556170,-0.087384,-0.396614
23608,9.629521,-1.628126,1.632593,0.449203,-0.055253,-0.371206
23609,9.579499,-1.442396,1.651801,0.304150,-0.018152,-0.350176
23610,9.556450,-1.319237,1.556792,0.130215,0.015437,-0.337914
23611,9.590901,-1.328606,1.484602,-0.054198,0.044583,-0.315151
23612,9.675223,-1.372817,1.346715,-0.221381,0.062623,-0.289184
23613,9.791978,-1.406843,1.308558,-0.371439,0.079269,-0.261849
23614,9.792000,-1.509315,1.209103,-0.487773,0.087988,-0.236121
23615,9.783432,-1.655438,1.110035,-0.553049,0.090758,-0.216345
23616,9.783192,-1.829998,1.080676,-0.570857,0.091748,-0.194841
23617,9.774679,-2.047326,1.050933,-0.539421,0.085360,-0.178919
23618,9.757074,-2.219265,1.046703,-0.467558,0.082483,-0.159608
23619,9.799280,-2.274932,1.039702,-0.375590,0.071872,-0.143232
23620,9.857231,-2.160871,1.057240,-0.276396,0.059968,-0.125532
23621,9.920805,-1.934064,1.063059,-0.198772,0.065033,-0.108527
23622,9.814692,-1.673837,1.060991,-0.160594,0.053554,-0.094502
23623,9.736456,-1.520341,1.114103,-0.163907,0.047512,-0.077105
23624,9.707799,-1.480364,1.133227,-0.181871,0.043149,-0.063224
23625,9.678976,-1.441563,1.151932,-0.196471,0.041597,-0.058804
23626,9.720079,-1.489345,1.186669,-0.208904,0.043705,-0.050718
23627,9.734195,-1.519613,1.139644,-0.204402,0.046453,-0.042319
23628,9.742600,-1.476395,1.140586,-0.203430,0.048364,-0.041611
23629,9.743893,-1.389277,1.110554,-0.200160,0.049165,-0.036347
23630,9.755171,-1.404888,1.163714,-0.197533,0.054601,-0.020502
23631,9.765030,-1.451189,1.137363,-0.201441,0.048043,-0.008347
23632,9.802696,-1.432377,1.160827,-0.192018,0.046277,0.012172
23633,9.817161,-1.439415,1.193225,-0.181386,0.040219,0.027262
23634,9.832249,-1.376338,1.154531,-0.167179,0.036029,0.042734
23635,9.828683,-1.310769,1.144743,-0.146676,0.031529,0.058904
23636,9.828178,-1.303797,1.185220,-0.142583,0.020480,0.054768
23637,9.829585,-1.383553,1.195988,-0.126602,0.015831,0.062243
23638,9.794717,-1.384369,1.194038,-0.096792,0.015997,0.066557
23639,9.748633,-1.367785,1.141621,-0.062695,0.011038,0.061035
23640,9.720138,-1.253197,1.129712,-0.031387,0.010593,0.054749
23641,9.713254,-1.199511,1.139527,-0.013840,0.006461,0.044310
23642,9.698624,-1.172338,1.188826,-0.005392,0.003631,0.040124
23643,9.689668,-1.216940,1.189208,0.012611,0.008118,0.026314
23644,9.642524,-1.280948,1.167924,0.033741,0.005850,0.016273
23645,9.623753,-1.277605,1.197928,0.067842,0.004336,0.003000
23646,9.685106,-1.231708,1.212693,0.087422,0.008531,-0.004603
23647,9.689084,-1.216082,1.194836,0.099831,0.008961,-0.013013
23648,9.680086,-1.269200,1.157050,0.105142,0.009384,-0.013218
23649,9.680117,-1.266974,1.159227,0.112087,0.007148,-0.006797
23650,9.684078,-1.251797,1.141208,0.117445,0.001697,0.001165
23651,9.680027,-1.264494,1.162679,0.114721,0.000419,0.008622
23652,9.696920,-1.181170,1.163887,0.121100,-0.002166,0.009854
23653,9.726611,-1.201334,1.186928,0.109849,-0.004403,0.012456
23654,9.800176,-1.273848,1.183112,0.103330,-0.006646,0.009598
23655,9.829373,-1.308202,1.166279,0.103644,-0.002909,0.004521
23656,9.842403,-1.237720,1.187048,0.111918,0.001422,-0.000903
23657,9.827214,-1.233641,1.157598,0.101598,0.000873,0.002209
23658,9.854797,-1.181072,1.169426,0.086190,0.002478,0.007693
23659,9.869833,-1.183944,1.201361,0.058939,0.001349,0.010470
23660,9.818803,-1.261022,1.200726,0.033825,0.000352,0.024636
23661,9.790777,-1.315575,1.190315,0.025253,-0.007599,0.035242
23662,9.773721,-1.387603,1.230730,0.034153,-0.002542,0.051734
23663,9.762453,-1.361523,1.219445,0.052554,-0.009522,0.057009
23664,9.741224,-1.290034,1.236360,0.063464,-0.008485,0.059200
23665,9.734648,-1.235637,1.244854,0.077767,-0.004638,0.051916
23666,9.713677,-1.162495,1.262340,0.067970,-0.001724,0.035714
23667,9.721939,-1.123344,1.262744,0.062568,0.006082,0.027292
23668,9.759377,-1.118261,1.246234,0.053709,0.010679,0.011595
23669,9.710209,-1.108632,1.215244,0.040281,0.020227,0.003023
23670,9.682044,-1.160365,1.207716,0.025828,0.026972,0.001212
23671,9.705534,-1.121537,1.240724,0.010609,0.024899,0.000233
23672,9.719734,-1.139368,1.234611,0.001500,0.026233,0.006413
23673,9.729282,-1.185774,1.208851,-0.006409,0.023262,0.007189
23674,9.724872,-1.199784,1.231048,-0.007350,0.021548,0.006660
23675,9.724499,-1.200329,1.233465,0.011125,0.027702,0.005015
23676,9.742800,-1.204558,1.207384,0.013701,0.024038,-0.004088
23677,9.731569,-1.187589,1.159039,0.027071,0.026133,-0.011906
23678,9.746607,-1.188072,1.192655,0.025428,0.022492,-0.027108
23679,9.716460,-1.179755,1.133583,0.026255,0.028956,-0.027477
23680,9.678648,-1.183027,1.154536,0.017290,0.029002,-0.028149
23681,9.712351,-1.187292,1.159834,0.013202,0.030532,-0.024795
23682,9.720913,-1.143629,1.162046,0.001262,0.026705,-0.020229
23683,9.693054,-1.194127,1.154157,-0.008400,0.021788,-0.011083
23684,9.707533,-1.210740,1.147605,-0.020080,0.023988,-0.012118
23685,9.751736,-1.247403,1.163001,-0.017751,0.014292,-0.015619
23686,9.719926,-1.311127,1.174385,-0.011897,0.020955,-0.018799
23687,9.757825,-1.302896,1.158188,-0.001656,0.014247,-0.023057
23688,9.777081,-1.289820,1.170675,0.011285,0.017442,-0.026616
23689,9.752077,-1.238668,1.169460,0.012064,0.014214,-0.027780
23690,9.781513,-1.271046,1.153805,0.006034,0.014666,-0.025955
23691,9.767087,-1.250490,1.163863,0.001544,0.014479,-0.034664
23692,9.803135,-1.326354,1.179490,-0.008021,0.010630,-0.032823
23693,9.809899,-1.367268,1.212270,-0.000832,0.014494,-0.031946
23694,9.843603,-1.385709,1.176466,0.011233,0.013615,-0.035576
23695,9.858912,-1.384725,1.209078,0.022136,0.014672,-0.033355
23696,9.880214,-1.285204,1.189531,0.013387,0.017280,-0.031887
23697,9.865998,-1.249710,1.239564,-0.004051,0.020113,-0.028509
23698,9.828192,-1.253847,1.259309,-0.024589,0.023802,-0.020810
23699,9.760371,-1.253243,1.217051,-0.045513,0.025798,-0.025149
23700,9.724427,-1.345349,1.208806,-0.047088,0.016731,-0.015422
23701,9.681885,-1.394240,1.168791,-0.045447,0.023835,-0.007956
23702,9.696456,-1.411418,1.161742,-0.026670,0.018196,-0.007286
