// Start Time: Unknown
// Update Rate: 100.0Hz
// Filter Profile: human (46.1)
// Firmware Version: 4.3.5
PacketCounter,Acc_X,Acc_Y,Acc_Z,Gyr_X,Gyr_Y,Gyr_Z
27397,9.618785,-1.303420,1.853892,0.001020,-0.004656,0.001022
27398,9.635728,-1.343156,1.820354,0.010988,-0.002673,-0.001357
27399,9.586957,-1.302641,1.783256,0.032845,-0.005113,0.001169
27400,9.605589,-1.276863,1.834271,0.054912,-0.006753,0.001134
27401,9.600783,-1.215024,1.794254,0.050112,-0.006795,0.004265
27402,9.572117,-1.207045,1.824156,0.042966,-0.008318,0.006338
27403,9.551995,-1.163593,1.833026,0.037127,-0.010011,0.009536
27404,9.606109,-1.164916,1.824630,0.018219,-0.012335,0.014224
27405,9.604356,-1.219932,1.816018,0.012035,-0.009615,0.012452
27406,9.614444,-1.242809,1.810625,0.010048,-0.009210,0.015263
27407,9.587226,-1.305232,1.779914,0.017358,-0.006580,0.019633
27408,9.617596,-1.260479,1.757352,0.036702,-0.004967,0.022586
27409,9.649363,-1.262396,1.827685,0.035079,-0.002668,0.029268
27410,9.579660,-1.293168,1.808464,0.001603,0.000068,0.035784
27411,9.582578,-1.311382,1.755891,0.025339,-0.006140,0.041864
27412,9.588885,-1.310082,1.879964,0.051602,-0.007799,0.033658
27413,9.556493,-1.289812,1.962621,0.047298,-0.002560,0.034314
27414,9.537504,-1.306164,1.988130,0.043153,-0.009132,0.034617
27415,9.518667,-1.322510,2.012879,0.055722,-0.020059,0.036734
27416,9.545468,-1.375631,2.049608,0.055196,-0.037893,0.041460
27417,9.577762,-1.389311,2.040636,0.091611,-0.042744,0.038455
27418,9.647634,-1.362761,2.056764,0.131896,-0.051752,0.036209
27419,9.651542,-1.377959,2.001035,0.147878,-0.057217,0.026593
27420,9.751697,-1.425759,1.926640,0.218110,-0.070161,0.015776
27421,9.907182,-1.336833,1.988591,0.309008,-0.054475,0.003432
27422,10.007750,-1.162605,2.195773,0.346990,-0.034621,-0.000093
27423,10.138671,-0.940969,2.380598,0.307158,-0.011962,-0.002523
27424,10.233871,-0.886791,2.500066,0.198995,0.017368,0.001312
27425,10.173817,-0.921497,2.557794,0.046598,0.045084,0.009777
27426,10.095544,-1.238302,2.459407,-0.082846,0.059578,0.023082
27427,9.961353,-1.512392,2.274786,-0.118714,0.064463,0.031042
27428,9.829027,-1.732554,2.097140,-0.087168,0.080834,0.035636
27429,9.740701,-1.906328,2.069833,-0.012368,0.086594,0.050679
27430,9.701281,-1.995413,2.148766,0.087152,0.108618,0.067232
27431,9.636253,-1.967400,2.275535,0.181143,0.142833,0.091233
27432,9.624926,-1.829084,2.388761,0.271754,0.179691,0.115918
27433,9.643332,-1.645481,2.482528,0.305114,0.216237,0.136679
27434,9.642910,-1.547072,2.546268,0.281761,0.249931,0.162136
27435,9.653041,-1.601484,2.568252,0.228964,0.283688,0.189271
27436,9.596468,-1.660040,2.427668,0.182414,0.316928,0.205369
27437,9.649427,-1.714640,2.376921,0.172548,0.364841,0.236184
27438,9.702632,-1.761511,2.430761,0.164641,0.402483,0.262904
27439,9.630470,-1.780153,2.456362,0.123800,0.440303,0.295418
27440,9.662706,-1.906507,2.583973,0.090960,0.455694,0.321654
27441,9.754122,-2.001979,2.661813,0.055115,0.485251,0.356277
27442,9.784814,-2.142309,2.843937,0.050793,0.532150,0.400439
27443,9.756162,-2.236053,2.893994,0.052399,0.584836,0.439472
27444,9.739335,-2.243365,2.932919,0.093045,0.627902,0.462620
27445,9.668635,-2.182072,3.086717,0.140020,0.664799,0.485637
27446,9.674984,-2.059671,3.219523,0.134505,0.688258,0.517774
27447,9.696585,-2.047724,3.390091,0.016463,0.706884,0.572079
27448,9.719382,-2.195493,3.297724,-0.127980,0.719792,0.626593
27449,9.715297,-2.419564,3.248226,-0.186290,0.746317,0.663266
27450,9.596910,-2.563307,3.239525,-0.161611,0.791360,0.696197
27451,9.455730,-2.661413,3.435173,-0.130357,0.810287,0.721656
27452,9.345334,-2.710142,3.536921,-0.156863,0.819411,0.754048
27453,9.331173,-2.734896,3.491607,-0.201657,0.825229,0.787437
27454,9.303712,-2.877896,3.481700,-0.226308,0.829037,0.835964
27455,9.250766,-3.027413,3.422652,-0.210791,0.848576,0.886930
27456,9.171399,-3.192527,3.413073,-0.143778,0.871999,0.927615
27457,9.098582,-3.146689,3.409015,-0.034092,0.897913,0.950536
27458,9.052207,-3.058624,3.587585,0.059333,0.914198,0.967485
27459,8.992433,-3.032283,3.833816,0.062334,0.918642,0.985134
27460,8.946931,-3.009559,3.907028,0.022071,0.912531,0.989447
27461,8.987487,-3.084415,3.898743,-0.028737,0.910407,1.010370
27462,8.991618,-3.226810,3.905142,-0.066558,0.922236,1.035214
27463,8.926884,-3.416665,3.926227,-0.060061,0.938929,1.046961
27464,8.850504,-3.584737,3.974573,-0.010321,0.937210,1.049053
27465,8.813386,-3.645000,4.090239,0.047953,0.926938,1.057515
27466,8.770915,-3.748330,4.127325,0.093696,0.923495,1.073882
27467,8.744992,-3.822194,4.171831,0.135722,0.927372,1.084557
27468,8.704466,-3.948517,4.210273,0.144568,0.933121,1.093776
27469,8.508967,-4.043458,4.080055,0.157166,0.926333,1.101908
27470,8.464149,-4.024002,3.858515,0.220104,0.891250,1.091631
27471,8.417602,-3.900836,3.596741,0.325702,0.878210,1.078929
27472,8.356007,-3.769762,3.582302,0.416112,0.876641,1.061964
27473,8.353162,-3.614217,3.779814,0.411618,0.878095,1.039260
27474,8.304543,-3.464910,3.965661,0.336622,0.899680,1.027338
27475,8.248480,-3.543131,4.204750,0.246719,0.924982,1.025790
27476,8.202562,-3.649002,4.494842,0.151437,0.960279,1.034882
27477,8.127284,-3.684348,4.735303,0.111192,0.996096,1.045572
27478,8.051792,-3.727338,5.154521,0.075210,1.042794,1.049800
27479,7.855463,-3.811708,5.618701,-0.048754,1.094273,1.067382
27480,7.700048,-3.991119,5.907751,-0.256095,1.115989,1.094388
27481,7.579520,-4.259951,5.788166,-0.424383,1.123687,1.107113
27482,7.496015,-4.532153,5.699390,-0.462852,1.139877,1.125597
27483,7.388799,-4.729294,5.582590,-0.390045,1.144009,1.138257
27484,7.306441,-4.779024,5.613681,-0.293699,1.138536,1.128813
27485,7.208475,-4.832182,5.769797,-0.279630,1.134809,1.134068
27486,7.088276,-4.901995,5.760073,-0.317020,1.118671,1.138749
27487,7.053896,-5.070255,5.798576,-0.296972,1.117959,1.137426
27488,6.987843,-5.417101,5.974039,-0.248736,1.133475,1.146046
27489,6.766017,-5.635428,6.130249,-0.141921,1.150404,1.141105
27490,6.608377,-5.740592,6.190522,-0.043391,1.126710,1.129393
27491,6.459195,-5.674932,5.999230,0.033752,1.100895,1.131199
27492,6.297873,-5.706518,5.902299,0.106414,1.099299,1.136122
27493,6.172885,-5.760535,5.848064,0.194102,1.090740,1.142993
27494,6.046871,-5.686665,5.827595,0.322621,1.070053,1.145340
27495,6.044103,-5.494076,5.869667,0.425648,1.050561,1.140404
27496,5.991184,-5.324715,6.023109,0.463008,1.058139,1.141805
27497,5.843334,-5.261680,6.071305,0.454671,1.042429,1.122327
27498,5.829140,-5.209289,6.128578,0.459396,1.042305,1.095752
27499,5.734248,-5.198841,6.226146,0.433160,1.063393,1.076656
27500,5.545803,-5.301317,6.358858,0.406521,1.089149,1.068160
27501,5.272981,-5.288146,6.412474,0.402162,1.083386,1.045920
27502,4.984984,-5.368293,6.511328,0.384836,1.075904,1.028727
27503,4.835544,-5.460201,6.460619,0.362383,1.072921,1.011000
27504,4.761707,-5.540694,6.479376,0.368727,1.044901,1.010199
27505,4.736551,-5.623974,6.326233,0.379314,1.008284,1.026395
27506,4.645691,-5.796194,6.255434,0.441746,1.005279,1.014796
27507,4.371069,-5.935160,6.477342,0.524798,1.028329,0.986641
27508,4.076643,-5.833530,6.664582,0.596481,0.976408,0.964085
27509,3.869131,-5.536501,6.700924,0.632842,0.881822,0.951914
27510,3.952724,-5.251284,6.799856,0.563584,0.825207,0.964964
27511,4.004920,-5.189655,6.659497,0.440854,0.816914,0.979255
27512,3.786875,-5.298539,6.622046,0.373650,0.870123,0.959767
27513,3.577754,-5.410840,6.772286,0.358863,0.903141,0.933979
27514,3.420263,-5.406893,6.847365,0.358357,0.862941,0.922900
27515,3.158882,-5.423228,6.721964,0.300303,0.848827,0.911848
27516,2.996302,-5.648169,6.794712,0.183173,0.849107,0.920928
27517,2.740579,-5.925197,6.557051,0.147121,0.832564,0.931166
27518,2.484516,-6.095059,6.357161,0.248146,0.816944,0.910280
27519,2.449012,-6.013822,6.307140,0.439174,0.800407,0.862617
27520,2.450844,-5.751560,6.408754,0.623452,0.795183,0.824858
27521,2.350273,-5.342908,6.422242,0.655969,0.785624,0.782599
27522,2.289959,-5.252453,6.800677,0.575455,0.740246,0.776732
27523,2.219089,-5.267364,6.738325,0.460386,0.676683,0.766797
27524,1.966808,-5.246322,6.699726,0.443846,0.652555,0.753149
27525,1.868824,-5.247151,6.892669,0.493722,0.601072,0.742557
27526,1.956590,-5.050739,7.112194,0.505244,0.549280,0.732334
27527,2.001884,-4.898494,7.001431,0.380585,0.519813,0.717602
27528,1.856352,-4.867003,6.753120,0.239506,0.549563,0.683852
27529,1.575216,-5.037261,7.023673,0.229113,0.536731,0.666655
27530,1.358430,-5.043466,7.289069,0.261279,0.444327,0.628853
27531,1.455629,-4.917084,7.198472,0.215950,0.398181,0.598739
27532,1.479371,-4.895389,7.142288,0.139023,0.401120,0.578293
27533,1.372129,-4.974716,7.380110,0.101536,0.375302,0.566346
27534,1.333923,-5.028781,7.735169,0.073967,0.316381,0.557119
27535,1.261528,-5.004172,7.325406,-0.017866,0.224363,0.522939
27536,1.315630,-5.138700,7.155486,-0.047376,0.218567,0.487296
27537,1.169339,-5.254590,7.281331,0.059409,0.198977,0.450163
27538,1.246990,-5.165864,7.460661,0.170898,0.166497,0.410122
27539,1.150924,-4.967525,7.501548,0.140462,0.155058,0.364608
27540,0.962736,-4.944551,7.386662,0.070997,0.113110,0.319388
27541,0.707035,-5.233789,7.585598,0.051623,0.065917,0.275780
27542,0.771074,-5.348680,7.506664,0.120536,-0.042034,0.233961
27543,1.030337,-5.385400,7.463950,0.172459,-0.094704,0.190515
27544,1.081581,-5.350591,7.196320,0.208904,-0.123880,0.164916
27545,1.208448,-5.231533,7.205854,0.302626,-0.133657,0.132975
27546,1.181408,-5.026841,7.422755,0.335921,-0.113089,0.104349
27547,1.171267,-4.910886,7.589484,0.293847,-0.126238,0.074085
27548,1.275421,-4.956339,7.862510,0.240339,-0.081356,0.040987
27549,1.268804,-4.960594,7.873890,0.220622,-0.061201,0.024356
27550,1.409487,-4.745992,7.736071,0.174011,-0.048405,-0.016515
27551,1.462778,-4.602724,7.546415,0.122379,-0.073543,-0.046164
27552,1.339234,-4.756712,7.400454,0.007473,-0.064812,-0.104744
27553,1.063343,-4.989593,7.533010,0.017482,-0.068069,-0.159357
27554,0.998221,-4.981668,7.915288,0.086071,-0.109381,-0.194152
27555,1.040199,-5.001960,8.125880,0.049780,-0.127021,-0.215058
27556,1.191654,-5.165254,8.116282,0.055768,-0.120523,-0.244528
27557,1.158042,-5.147416,8.242177,0.174048,-0.103412,-0.270679
27558,1.409200,-4.965743,8.273888,0.164695,-0.098089,-0.285456
27559,1.433837,-4.984149,8.161142,0.141662,-0.046194,-0.305846
27560,1.370011,-4.979752,8.238692,0.151929,-0.023935,-0.320492
27561,1.579267,-4.918582,8.222992,0.109961,-0.009176,-0.330710
27562,1.633498,-5.027209,8.285673,0.077688,0.039677,-0.329714
27563,1.483325,-5.210186,8.302437,0.068827,0.065577,-0.333894
27564,1.487986,-5.301140,8.313515,0.099456,0.068474,-0.361767
27565,1.530306,-5.348517,8.342439,0.175511,0.067263,-0.390688
27566,1.591430,-5.258150,8.437919,0.275818,0.082374,-0.423799
27567,1.557928,-5.118171,8.535960,0.350788,0.080868,-0.467514
27568,1.552166,-5.087588,8.644061,0.420292,0.063096,-0.522744
27569,1.492139,-5.055330,8.704518,0.498032,0.069774,-0.584639
27570,1.448696,-5.023782,8.752148,0.567812,0.122285,-0.658790
27571,1.344001,-5.043175,8.806970,0.571840,0.205308,-0.747569
27572,1.273712,-5.160906,8.835555,0.520529,0.295718,-0.809026
27573,1.188440,-5.456843,8.931015,0.454886,0.377709,-0.871194
27574,0.973199,-5.722311,8.588224,0.414461,0.411873,-0.910829
27575,0.716110,-5.963578,8.365130,0.492054,0.391971,-0.912614
27576,0.597664,-6.404207,7.925382,0.515293,0.315002,-0.941098
27577,0.727802,-6.890145,7.116722,0.497900,0.225755,-0.968815
27578,0.830130,-6.828526,6.402648,0.909982,0.234310,-1.000678
27579,0.375564,-5.937109,7.456422,1.776254,0.289608,-1.084708
27580,0.275966,-4.850381,9.283134,2.294505,0.163340,-1.111476
27581,0.635430,-4.079107,10.139774,1.971647,-0.035449,-1.064712
27582,1.015213,-3.486160,9.627255,1.281355,-0.185025,-0.909883
27583,1.279943,-3.600809,8.782037,0.880137,-0.232450,-0.714246
27584,1.389928,-3.942107,8.442535,0.867034,-0.241657,-0.546565
27585,1.555328,-4.278212,8.481821,0.935873,-0.219530,-0.456965
27586,1.696678,-4.362078,8.455219,0.956229,-0.162415,-0.422383
27587,1.779227,-4.309179,8.184266,0.908993,-0.024188,-0.440007
27588,1.857851,-4.125718,8.167335,0.947417,0.150925,-0.475595
27589,1.629149,-3.796678,8.409743,1.074854,0.261310,-0.527827
27590,1.498088,-3.317195,8.779752,1.194737,0.303193,-0.608220
27591,1.305953,-2.714555,9.214519,1.174490,0.286050,-0.685291
27592,1.497621,-2.125377,9.458930,0.974594,0.266770,-0.749970
27593,1.673133,-1.738404,9.582268,0.660449,0.326557,-0.756882
27594,1.808452,-1.637277,9.684014,0.303969,0.375621,-0.717357
27595,1.861392,-1.866214,9.685803,-0.059565,0.390728,-0.652112
27596,1.903583,-2.289988,9.551006,-0.306309,0.405498,-0.608415
27597,1.964103,-2.625357,9.325957,-0.387777,0.357407,-0.597435
27598,1.960784,-2.889157,9.213082,-0.390023,0.286350,-0.582017
27599,2.014826,-3.088900,9.082284,-0.411058,0.221203,-0.604781
27600,2.210185,-3.182198,8.859994,-0.405346,0.210430,-0.636523
27601,2.305565,-3.179243,8.711346,-0.364998,0.222472,-0.670901
27602,2.275161,-3.119112,8.756559,-0.215829,0.227425,-0.692367
27603,2.242719,-2.935365,8.922149,0.035491,0.191770,-0.683617
27604,1.915403,-2.740670,9.550464,0.323998,0.083981,-0.597153
27605,1.190867,-2.818211,10.319440,0.290394,-0.105151,-0.494969
27606,0.372723,-3.536832,10.701872,-0.027669,-0.436067,-0.446853
27607,0.709262,-4.166943,9.482107,-0.986559,-0.697842,-0.526329
27608,2.153137,-4.713031,7.350731,-1.889571,-0.562844,-0.593250
27609,3.381055,-5.569377,6.228382,-1.709010,-0.237830,-0.615225
27610,3.676117,-5.639530,5.611515,-0.391168,0.095466,-0.580350
27611,3.247924,-4.269023,6.412293,1.139319,0.455993,-0.594126
27612,2.738311,-2.393906,8.322476,2.230111,0.753992,-0.640284
27613,2.338601,-0.150472,11.118266,2.344331,0.970003,-0.742029
27614,1.898223,2.109296,12.875910,0.889697,1.043042,-0.778434
27615,1.312198,2.866079,12.867014,-1.353349,0.937673,-0.758902
27616,1.309147,1.391136,11.486461,-3.010171,0.853062,-0.808879
27617,1.998638,-0.273293,10.150003,-3.728080,0.871065,-0.878744
27618,2.318177,-1.692063,9.115001,-3.839724,0.923469,-0.932058
27619,2.455761,-2.941890,8.441787,-3.558239,0.893727,-0.988980
27620,3.017900,-3.942195,8.352191,-2.968072,0.880595,-1.028676
27621,3.433450,-4.701157,8.789073,-2.198955,1.043648,-1.035678
27622,3.199533,-4.859766,9.408454,-1.534461,1.237455,-1.088979
27623,2.613908,-4.812966,10.019173,-1.152821,1.358362,-1.154465
27624,1.997607,-4.790616,9.809630,-1.069671,1.347675,-1.215455
27625,1.898465,-4.507836,8.953767,-0.858171,1.300347,-1.260483
27626,1.880233,-4.149109,8.976787,-0.393800,1.351266,-1.265194
27627,1.756603,-3.660376,9.207382,-0.141162,1.363171,-1.310879
27628,1.818313,-2.997776,8.941107,-0.355829,1.325513,-1.384656
27629,2.126462,-2.660988,8.605701,-0.713841,1.324596,-1.435007
27630,2.370386,-2.580605,8.450673,-0.875908,1.386654,-1.484984
27631,2.505965,-2.459487,8.433914,-0.966678,1.494779,-1.536134
27632,2.617021,-2.268731,8.294493,-1.187296,1.596812,-1.604459
27633,2.871540,-1.988381,7.746188,-1.607908,1.722625,-1.682682
27634,3.010063,-1.721756,7.129634,-2.060890,1.907727,-1.752220
27635,3.164502,-1.584876,7.048299,-2.435133,2.040872,-1.859069
27636,2.476020,-2.015143,7.869418,-2.933002,2.083162,-1.886501
27637,0.992648,-3.646053,9.069202,-3.621865,1.834235,-1.872750
27638,0.365279,-5.675794,9.212067,-4.501585,1.495610,-1.851459
27639,0.425673,-7.503722,7.656084,-5.086510,1.371798,-1.797344
27640,0.615935,-9.549856,4.998632,-4.364925,1.472553,-1.695057
27641,0.927562,-11.002691,4.142968,-2.251544,1.688084,-1.559358
27642,1.254173,-10.128749,6.173948,-0.830098,1.868660,-1.444957
27643,1.126878,-9.352590,6.984732,-0.720774,1.818246,-1.341486
27644,1.414495,-9.185299,5.750986,-0.708192,1.637006,-1.276755
27645,1.863076,-8.976947,4.858989,-0.166818,1.606480,-1.274084
27646,1.626831,-8.295348,5.180203,0.374850,1.646797,-1.294884
27647,1.047650,-7.569088,5.898809,0.582285,1.580305,-1.342211
27648,0.743014,-6.987735,6.305728,0.564583,1.441701,-1.382460
27649,0.893274,-6.432707,6.423779,0.422730,1.350882,-1.396215
27650,1.049107,-5.994291,6.454579,0.189344,1.349106,-1.362774
27651,1.161574,-5.815512,6.607355,-0.109105,1.328423,-1.318580
27652,1.180468,-5.902198,6.860794,-0.519160,1.252277,-1.275967
27653,1.071298,-6.581734,6.697142,-0.973918,1.142379,-1.227608
27654,0.808913,-7.634250,6.144228,-1.303352,1.023199,-1.172531
27655,0.504799,-8.947862,5.276356,-1.306231,0.950704,-1.123345
27656,0.497383,-9.805268,4.636790,-0.791754,0.929317,-1.072176
27657,0.663660,-9.721878,4.783646,-0.117708,0.958174,-1.018372
27658,0.689537,-8.952995,5.295150,0.236987,0.947048,-0.962532
27659,0.686888,-8.192057,5.466470,0.295446,0.868065,-0.911453
27660,0.780155,-7.868234,5.528524,0.242597,0.774001,-0.871086
27661,0.745332,-7.890317,5.546942,0.162188,0.688684,-0.832321
27662,0.632674,-8.133338,5.369448,0.102066,0.604329,-0.791091
27663,0.589732,-8.209166,5.170561,0.143372,0.548839,-0.751529
27664,0.601239,-8.041594,5.246986,0.224281,0.508188,-0.702152
27665,0.669936,-7.805940,5.485189,0.239344,0.475257,-0.660431
27666,0.651355,-7.622362,5.689997,0.155363,0.430322,-0.620759
27667,0.553955,-7.641890,5.575920,0.001709,0.364073,-0.584404
27668,0.584052,-7.756070,5.426722,-0.083997,0.306228,-0.551597
27669,0.674168,-7.878460,5.342172,-0.138164,0.246129,-0.499486
27670,0.702845,-8.137123,5.355242,-0.165850,0.192778,-0.440728
27671,0.796856,-8.443670,5.378230,-0.153678,0.128617,-0.381687
27672,0.778043,-8.576142,5.246054,-0.066459,0.076570,-0.337916
27673,0.759163,-8.407247,5.332658,0.064974,0.042464,-0.288326
27674,0.773707,-8.182713,5.582279,0.055319,-0.006774,-0.235463
27675,0.775318,-8.151522,5.540457,-0.016361,-0.069212,-0.183197
27676,0.866137,-8.241057,5.489851,-0.045631,-0.126417,-0.119737
27677,0.865868,-8.430366,5.547299,-0.050169,-0.178046,-0.061269
27678,0.832681,-8.529904,5.524378,-0.054382,-0.221791,-0.011140
27679,0.825424,-8.595816,5.581503,-0.042415,-0.257293,0.045650
27680,0.810658,-8.647307,5.567171,-0.044497,-0.294328,0.103307
27681,0.848823,-8.650443,5.532898,-0.063275,-0.325981,0.163768
27682,0.967719,-8.686378,5.509657,-0.061068,-0.344760,0.224453
27683,1.013992,-8.644185,5.581880,-0.068169,-0.357402,0.283466
27684,1.084197,-8.636943,5.617796,-0.102785,-0.384609,0.347662
27685,1.099198,-8.675432,5.545348,-0.132166,-0.412519,0.403602
27686,1.172196,-8.649920,5.629379,-0.146694,-0.425592,0.443896
27687,1.175006,-8.617475,5.719549,-0.161753,-0.426842,0.488943
27688,1.088907,-8.547946,5.774642,-0.178541,-0.435712,0.535279
27689,1.085251,-8.421649,5.732223,-0.222584,-0.452123,0.579738
27690,1.061836,-8.317021,5.710066,-0.244516,-0.446647,0.625378
27691,1.104290,-8.107068,5.805152,-0.245728,-0.449668,0.672979
27692,1.100226,-7.932997,6.097278,-0.307529,-0.466611,0.715046
27693,1.072201,-8.021134,6.250979,-0.424897,-0.512386,0.750711
27694,1.035557,-8.176274,6.181212,-0.485412,-0.549426,0.786228
27695,1.028006,-8.245852,6.102021,-0.422359,-0.576451,0.814742
27696,1.027770,-8.246193,6.221546,-0.310213,-0.600466,0.842397
27697,1.108512,-8.091839,6.327204,-0.199434,-0.614277,0.871251
27698,1.143813,-7.904896,6.530147,-0.113130,-0.625119,0.881619
27699,1.233231,-7.737975,6.549472,-0.009865,-0.620156,0.875495
27700,1.212902,-7.618029,6.705225,0.106859,-0.608791,0.870837
27701,1.143995,-7.546348,6.937485,0.176725,-0.624564,0.860118
27702,0.975326,-7.627486,6.943976,0.197691,-0.660002,0.853736
27703,0.879884,-7.783290,6.796916,0.266684,-0.696521,0.855361
27704,0.830317,-7.818611,6.580045,0.431477,-0.717185,0.860557
27705,0.834741,-7.626568,6.678463,0.624019,-0.724639,0.871246
27706,0.868208,-7.466143,6.874557,0.782835,-0.710187,0.891347
27707,0.863505,-7.210651,7.105178,0.893058,-0.704591,0.892842
27708,0.866615,-7.058814,7.335782,0.917109,-0.695669,0.889090
27709,0.797088,-6.995581,7.378678,0.868610,-0.697765,0.900551
27710,0.713051,-7.012501,7.099561,0.816822,-0.713674,0.902940
27711,0.728655,-6.952820,6.896150,0.887492,-0.701996,0.900682
27712,0.779616,-6.838771,7.056909,1.019393,-0.666500,0.906495
27713,0.809290,-6.642633,7.316638,1.078943,-0.640324,0.913721
27714,0.788913,-6.626104,7.575458,1.042421,-0.627149,0.920173
27715,0.855158,-6.670299,7.676528,0.981483,-0.621917,0.926918
27716,0.834224,-6.703680,7.593908,0.968545,-0.581636,0.922427
27717,0.791281,-6.649616,7.456582,1.028593,-0.541712,0.912403
27718,0.653667,-6.476472,7.360952,1.069716,-0.528648,0.900110
27719,0.603477,-6.228907,7.307762,1.098826,-0.529633,0.882010
27720,0.611250,-6.070277,7.377505,1.058910,-0.535019,0.879213
27721,0.627416,-6.016240,7.426058,0.948864,-0.533638,0.885584
27722,0.640270,-6.104911,7.351123,0.836276,-0.522754,0.872596
27723,0.613400,-6.144522,7.187352,0.788372,-0.495737,0.857616
27724,0.476613,-6.112554,7.006765,0.778571,-0.467152,0.840901
27725,0.405991,-6.060716,6.812425,0.784227,-0.453202,0.829140
27726,0.362325,-5.943225,6.719018,0.786343,-0.451074,0.821404
27727,0.411922,-5.917193,6.692909,0.754752,-0.439087,0.829300
27728,0.426827,-5.927995,6.820305,0.665652,-0.422228,0.855519
27729,0.408598,-5.992019,6.870418,0.559322,-0.413009,0.891335
27730,0.284470,-5.981095,6.899105,0.484321,-0.405347,0.914640
27731,0.173810,-5.930079,6.822766,0.439133,-0.382766,0.935135
27732,0.029896,-5.875200,7.031811,0.375855,-0.381464,0.952564
27733,-0.099587,-5.826045,7.080203,0.251543,-0.431727,0.983157
27734,-0.068567,-5.893926,7.045306,0.169930,-0.477714,1.003105
27735,-0.026919,-6.039829,6.996893,0.101137,-0.477911,1.015069
27736,-0.095617,-6.191240,7.027532,0.094183,-0.482492,1.032736
27737,-0.157217,-6.412705,7.050725,0.120437,-0.511230,1.062070
27738,-0.263940,-6.653706,7.009922,0.132930,-0.557215,1.103322
27739,-0.224501,-6.803637,7.010400,0.157267,-0.596957,1.142041
27740,-0.182465,-6.919334,6.964209,0.245653,-0.623593,1.171968
27741,-0.252820,-6.880516,7.051072,0.397681,-0.669304,1.185659
27742,-0.278784,-6.666635,7.252391,0.512042,-0.736121,1.187188
27743,-0.148917,-6.409147,7.437929,0.535882,-0.785832,1.204544
27744,-0.062122,-6.206269,7.604060,0.453359,-0.773674,1.232120
27745,-0.046262,-6.080316,7.677159,0.339539,-0.757853,1.265377
27746,-0.199146,-5.979389,7.619999,0.259336,-0.781617,1.289457
27747,-0.172123,-5.860463,7.627783,0.180214,-0.807837,1.328960
27748,0.003526,-5.753636,7.390375,0.016557,-0.807167,1.389290
27749,-0.257413,-5.737521,6.955256,-0.128355,-0.786614,1.400771
27750,-0.627636,-5.767096,6.791067,-0.145312,-0.819219,1.326495
27751,-0.727598,-5.786609,6.503110,-0.149969,-0.912337,1.214932
27752,-0.454965,-5.975550,6.737088,-0.194153,-0.986149,1.066652
27753,-0.014387,-6.114115,7.014805,-0.172399,-1.043681,0.928339
27754,0.407008,-6.094436,7.641328,-0.076464,-0.972200,0.819663
27755,0.231254,-5.724031,7.690299,-0.096082,-0.923642,0.783725
27756,-0.101025,-5.311007,7.255860,-0.086252,-0.949026,0.788126
27757,-0.175561,-5.312135,7.326299,-0.045645,-0.969015,0.844850
27758,0.375561,-5.450388,7.603435,-0.032141,-0.929158,0.913387
27759,0.530875,-5.286573,7.752396,0.084257,-0.841481,0.988539
27760,0.381699,-4.960945,8.484800,0.167225,-0.744824,1.011663
27761,-0.018156,-4.761460,8.827736,-0.087989,-0.690243,0.988234
27762,-0.300581,-4.980524,8.487137,-0.471470,-0.726294,0.946652
27763,-0.029155,-5.708614,8.400715,-0.670694,-0.821364,0.906038
27764,0.249996,-6.619036,8.256290,-0.617035,-0.879836,0.872626
27765,0.016337,-7.054480,8.161120,-0.291550,-0.954044,0.846979
27766,-0.345453,-7.001982,8.061928,0.111548,-0.981311,0.798041
27767,-0.315258,-6.616972,8.442708,0.395205,-1.006352,0.740183
27768,-0.392083,-5.966427,8.164122,0.555626,-1.118329,0.692233
27769,-0.167165,-5.270429,8.162062,0.646450,-1.237346,0.640682
27770,0.468567,-4.793453,7.526199,0.512182,-1.373267,0.601331
27771,1.911155,-4.878959,7.505137,0.430926,-1.427330,0.572073
27772,2.305397,-5.157635,7.441425,0.419719,-1.321308,0.528427
27773,1.185687,-5.307394,7.682651,0.513215,-1.153572,0.431369
27774,0.519001,-4.963564,7.889501,0.659166,-1.223416,0.310001
27775,0.739864,-4.459244,7.743957,0.700166,-1.348624,0.230698
27776,1.216482,-4.142863,7.438266,0.671458,-1.400201,0.169831
27777,1.502872,-3.781168,7.016420,0.691598,-1.426790,0.117735
27778,2.165719,-3.680948,6.956059,0.635739,-1.460988,0.032985
27779,3.254705,-3.871188,7.025650,0.595903,-1.366699,-0.072925
27780,2.796837,-3.676858,7.271551,0.653563,-1.134118,-0.200424
27781,2.249885,-3.320617,7.880441,0.632311,-1.088468,-0.319259
27782,2.611565,-3.157100,7.840449,0.536380,-1.099603,-0.430962
27783,2.731659,-3.090252,7.621995,0.533801,-1.016130,-0.530658
27784,2.631768,-2.906487,7.728184,0.520300,-0.961061,-0.655346
27785,2.521788,-2.784916,7.577857,0.423071,-0.973761,-0.784135
27786,2.571132,-2.848087,7.134580,0.322224,-1.020625,-0.933723
27787,2.804062,-3.102630,7.125321,0.278748,-1.056426,-1.066176
27788,2.910287,-3.317277,7.209233,0.270132,-1.076772,-1.193125
27789,2.863105,-3.468407,7.319907,0.292509,-1.079700,-1.307708
27790,2.840051,-3.536612,7.531710,0.313249,-1.123352,-1.419422
27791,2.869923,-3.508410,7.442211,0.308685,-1.220970,-1.519288
27792,2.937828,-3.526610,7.145778,0.274975,-1.326157,-1.621779
27793,3.088447,-3.626664,6.868469,0.257847,-1.431617,-1.724718
27794,3.392143,-3.642941,6.539732,0.290623,-1.529540,-1.795771
27795,3.550568,-3.435375,5.998491,0.324838,-1.631574,-1.860155
27796,3.724109,-3.299075,5.457054,0.370583,-1.737136,-1.916459
27797,3.865946,-3.135633,5.343852,0.411055,-1.838652,-1.976485
27798,3.935050,-2.929291,5.346841,0.356579,-2.016964,-2.001690
27799,4.202383,-2.826535,4.906848,0.165219,-2.223653,-2.025597
27800,4.764118,-2.993650,4.611063,-0.033692,-2.362115,-2.046058
27801,5.616634,-3.480100,4.911415,-0.148807,-2.421453,-2.031931
27802,6.303953,-4.012908,5.091950,-0.140476,-2.432774,-1.999012
27803,6.708195,-4.354680,5.237415,0.021748,-2.373293,-1.954840
27804,6.643163,-4.456700,5.214414,0.228371,-2.244148,-1.928281
27805,6.152490,-3.998844,5.606794,0.560799,-2.088262,-1.959487
27806,5.811466,-3.416776,6.935904,0.769102,-2.005066,-1.963296
27807,5.751552,-2.772463,7.742222,0.627122,-2.081727,-1.940294
27808,5.939740,-2.236295,7.585279,0.232939,-2.150492,-1.884725
27809,6.679799,-2.181288,7.419744,-0.191015,-2.158117,-1.744988
27810,7.486024,-2.576623,7.221356,-0.421767,-2.173997,-1.533407
27811,8.082200,-2.989439,6.600921,-0.431097,-2.135737,-1.371066
27812,8.383114,-3.164556,6.517223,-0.255075,-2.033948,-1.288741
27813,8.636061,-3.162823,7.103367,-0.108095,-1.998849,-1.227548
27814,8.797409,-3.109936,7.149141,-0.232403,-2.013767,-1.183037
27815,9.153224,-3.204084,6.550704,-0.483821,-1.940391,-1.143260
27816,9.442027,-3.510519,6.279487,-0.578733,-1.803701,-1.013737
27817,9.301380,-3.870737,5.927985,-0.537358,-1.733433,-0.911113
27818,9.213647,-3.973707,5.777688,-0.421514,-1.679474,-0.849864
27819,9.109316,-3.999983,5.769954,-0.334415,-1.622944,-0.847232
27820,9.081398,-3.761319,5.338335,-0.190347,-1.562766,-0.890748
27821,9.210812,-3.280758,5.360712,0.077564,-1.481821,-0.933542
27822,9.305906,-2.797501,5.943127,0.192226,-1.328210,-0.906119
27823,8.997452,-2.483828,6.364298,0.041707,-1.240471,-0.849474
27824,8.842337,-2.287487,6.288591,-0.307092,-1.239428,-0.784074
27825,8.833124,-2.285463,5.700366,-0.650232,-1.206973,-0.702079
27826,8.930062,-2.538166,5.006547,-0.911859,-1.136547,-0.610342
27827,9.067049,-2.898672,4.257025,-0.972324,-1.038963,-0.579217
27828,9.130528,-2.897980,3.593791,-0.741479,-0.954271,-0.618194
27829,9.233248,-2.575340,3.985318,-0.426712,-0.842240,-0.650417
27830,9.336252,-2.368169,4.844207,-0.434419,-0.814213,-0.619070
27831,9.457042,-2.325369,4.960962,-0.690628,-0.841595,-0.593686
27832,9.705367,-2.606783,4.690209,-0.897311,-0.807711,-0.548859
27833,9.855065,-2.946777,4.470309,-0.981210,-0.724192,-0.480512
27834,9.713315,-3.174559,4.169675,-0.908963,-0.674096,-0.404123
27835,9.559425,-3.098153,4.051851,-0.751767,-0.657241,-0.386465
27836,9.421912,-2.486906,3.619660,-0.528523,-0.670206,-0.420047
27837,9.684651,-1.785085,3.688970,-0.258024,-0.667382,-0.477836
27838,10.083219,-1.264596,4.182636,-0.134327,-0.648155,-0.437772
27839,10.446194,-1.019913,4.520411,-0.264134,-0.643752,-0.354494
27840,10.489185,-1.270352,4.721734,-0.533604,-0.620793,-0.272063
27841,10.345180,-1.628644,4.419582,-0.731360,-0.624288,-0.253592
27842,10.299731,-1.890778,4.011853,-0.690043,-0.635359,-0.195425
27843,9.993654,-2.136471,3.800037,-0.545846,-0.676893,-0.014627
27844,9.301651,-2.746221,3.898369,-0.480129,-0.834618,0.111044
27845,9.090298,-3.153903,3.303998,-0.550443,-1.112544,0.016212
27846,9.699675,-3.110408,2.185713,-0.583806,-1.199720,-0.097103
27847,10.237107,-3.017632,1.395036,-0.412756,-1.049084,-0.077539
27848,9.998980,-3.281002,1.586072,-0.114235,-0.829798,0.007154
27849,9.349455,-3.397218,1.931396,0.020168,-0.726041,0.014610
27850,9.059002,-3.454915,1.915142,0.045669,-0.719691,0.029815
27851,9.082592,-3.347688,1.680692,0.160770,-0.668118,0.074025
27852,9.120750,-3.001523,1.438770,0.375763,-0.580700,0.101097
27853,9.103964,-2.485427,1.628451,0.555164,-0.491293,0.116153
27854,9.176718,-2.106371,1.984888,0.583913,-0.437663,0.136627
27855,9.367761,-1.790976,2.266213,0.471800,-0.419050,0.179649
27856,9.592860,-1.645468,2.376800,0.299431,-0.423695,0.200983
27857,9.713625,-1.615647,2.266473,0.150615,-0.413155,0.271038
27858,9.693684,-1.821778,2.340426,0.116111,-0.438099,0.323592
27859,9.760146,-2.038981,2.276914,0.160800,-0.493489,0.360270
27860,9.902563,-2.251768,2.329461,0.303290,-0.551336,0.377340
27861,10.103227,-2.235920,2.147623,0.519835,-0.583009,0.355077
27862,10.291825,-1.781047,2.083838,0.798884,-0.550820,0.329677
27863,10.539865,-1.143537,2.198799,1.057019,-0.481953,0.273864
27864,10.701872,-0.517721,2.588922,1.153586,-0.388221,0.208710
27865,10.692966,-0.072914,3.133608,1.052412,-0.303415,0.168221
27866,10.529799,0.174804,3.435687,0.796943,-0.262910,0.112106
27867,10.412572,0.282518,3.338026,0.495363,-0.241714,0.067198
27868,10.396021,0.273759,3.214676,0.304246,-0.198475,0.025576
27869,10.356918,0.203552,3.214273,0.179400,-0.152861,-0.015869
27870,10.220926,-0.071941,3.224989,0.026788,-0.105797,-0.059664
27871,10.067101,-0.568978,3.083780,-0.146347,-0.092989,-0.086877
27872,9.970807,-1.113780,2.629110,-0.252111,-0.086684,-0.109781
27873,9.849608,-1.546130,2.118629,-0.193352,-0.067370,-0.136053
27874,9.721303,-1.827182,1.684368,0.014519,-0.041958,-0.169851
27875,9.687709,-1.740745,1.549325,0.271339,-0.022665,-0.202836
27876,9.736403,-1.399518,1.570330,0.358603,-0.003760,-0.224311
27877,9.725849,-1.335221,1.632784,0.298945,0.025485,-0.234322
27878,9.654400,-1.397348,1.511521,0.260336,0.031453,-0.233368
27879,9.752211,-1.394423,1.578090,0.265981,0.044319,-0.221606
27880,9.736168,-1.440793,1.628644,0.221226,0.058012,-0.204511
27881,9.708911,-1.534473,1.599391,0.110386,0.048182,-0.183847
27882,9.648794,-1.641761,1.396809,-0.001065,0.039100,-0.161990
27883,9.555997,-1.853324,1.207624,-0.056596,0.034628,-0.125391
27884,9.472985,-1.967006,1.078723,-0.064699,0.016320,-0.091613
27885,9.369680,-2.085330,1.049963,-0.025185,0.000603,-0.060228
27886,9.382156,-2.159710,1.062591,0.033565,-0.003047,-0.040817
27887,9.365625,-2.115511,1.096271,0.104935,-0.002350,-0.025160
27888,9.403256,-1.961354,1.114727,0.151162,0.007637,-0.011702
27889,9.362187,-1.792872,1.294623,0.180260,0.007400,-0.001817
27890,9.411486,-1.651927,1.408996,0.177415,-0.005596,0.000812
27891,9.536514,-1.612947,1.524600,0.139714,0.003058,0.004983
27892,9.552053,-1.550603,1.384506,0.093239,0.018353,0.007587
27893,9.486206,-1.514907,1.474724,0.098270,0.017042,0.014770
27894,9.541756,-1.505871,1.571090,0.104724,0.015192,0.014106
27895,9.623404,-1.502430,1.613775,0.074360,0.017179,0.018534
27896,9.612705,-1.525702,1.714437,0.055659,0.025582,0.021907
27897,9.606095,-1.520751,1.669061,0.044613,0.015126,0.016382
27898,9.611546,-1.483393,1.625374,0.045618,0.010478,0.017470
27899,9.614091,-1.486963,1.651408,0.051027,0.015826,0.011921
27900,9.655929,-1.520524,1.644365,0.052828,0.014654,0.011725
27901,9.576381,-1.526877,1.631124,0.070365,0.019081,0.004953
27902,9.629058,-1.469970,1.609016,0.088087,0.006500,0.005514
27903,9.642582,-1.425968,1.713341,0.087170,0.004428,-0.003396
27904,9.623537,-1.437581,1.740233,0.063327,0.001477,-0.004933
27905,9.624871,-1.449804,1.664554,0.033008,-0.008498,-0.000853
27906,9.674538,-1.457820,1.532899,0.020224,-0.014059,-0.003551
27907,9.629499,-1.420917,1.517442,0.038453,-0.005715,-0.002613
27908,9.640934,-1.306481,1.677675,0.027434,-0.009901,-0.009305
27909,9.628122,-1.325015,1.750076,-0.036939,-0.015642,-0.000515
27910,9.569101,-1.443809,1.641300,-0.106813,-0.029534,-0.007992
27911,9.586359,-1.553140,1.522937,-0.105727,-0.027817,-0.008027
27912,9.602913,-1.581678,1.563487,-0.088453,-0.017359,-0.004369
27913,9.581230,-1.593287,1.561776,-0.122546,-0.014216,-0.005996
27914,9.557151,-1.726343,1.471202,-0.126121,-0.009216,-0.009331
27915,9.501759,-1.824210,1.562411,-0.080471,-0.013367,-0.013984
27916,9.438171,-1.845268,1.664179,-0.041810,-0.020943,-0.015479
27917,9.510959,-1.818631,1.704998,-0.009671,-0.030392,-0.018940
27918,9.540872,-1.825088,1.673130,0.030723,-0.023538,-0.017751
27919,9.489138,-1.767685,1.685148,0.059449,-0.023104,-0.015516
27920,9.555783,-1.733737,1.679657,0.088708,-0.026259,-0.010835
27921,9.608173,-1.661923,1.730290,0.102989,-0.026378,-0.008403
27922,9.637844,-1.667921,1.699961,0.093741,-0.024937,-0.007406
27923,9.613035,-1.629005,1.582760,0.112816,-0.028723,-0.010652
27924,9.663204,-1.485356,1.691809,0.162357,-0.025469,-0.023209
27925,9.727498,-1.378659,1.745572,0.156375,-0.015224,-0.019773
27926,9.646525,-1.309905,1.788931,0.121575,-0.007182,-0.034046
27927,9.652634,-1.378209,1.755149,0.077485,-0.018122,-0.033652
27928,9.656678,-1.458406,1.620485,0.048337,-0.016420,-0.028147
27929,9.676918,-1.566746,1.530560,0.034998,-0.005339,-0.026636
27930,9.603738,-1.643871,1.481435,0.044304,-0.006691,-0.027573
27931,9.658391,-1.641404,1.474661,0.068735,-0.007197,-0.023579
27932,9.621152,-1.553498,1.514290,0.065975,-0.003914,-0.020676
27933,9.590838,-1.485461,1.526240,0.051659,0.000384,-0.011497
27934,9.603470,-1.494342,1.622558,0.021198,-0.010930,-0.013782
27935,9.584278,-1.574518,1.565730,-0.003828,-0.008935,-0.007442
27936,9.579794,-1.625492,1.535459,0.014183,-0.001269,-0.003979
27937,9.575878,-1.608300,1.587402,0.021954,-0.003240,-0.003491
27938,9.576914,-1.621353,1.511617,0.036968,-0.003586,-0.004971
27939,9.602641,-1.544415,1.616383,0.059198,0.001921,0.003180
27940,9.632229,-1.595974,1.681893,0.022196,-0.000802,0.009345
27941,9.605676,-1.741861,1.495834,-0.031100,-0.005607,0.019638
27942,9.589278,-1.799069,1.292835,-0.002340,-0.008718,0.019335
27943,9.557519,-1.720800,1.380111,0.098656,-0.003523,0.022313
27944,9.572029,-1.497735,1.552433,0.124296,-0.002739,0.017288
27945,9.577375,-1.377397,1.664301,0.085489,-0.014805,0.013270
27946,9.627630,-1.361528,1.708423,0.052740,-0.017630,0.011316
27947,9.631862,-1.377866,1.655474,0.027768,-0.017843,-0.006760
27948,9.671367,-1.407374,1.621777,0.028889,-0.003562,-0.009263
27949,9.661292,-1.495283,1.638357,0.014833,-0.005325,-0.010478
27950,9.623784,-1.603591,1.532616,-0.007295,0.000909,-0.001844
27951,9.620535,-1.712101,1.521941,0.013305,0.004607,0.001323
27952,9.614193,-1.707123,1.474440,0.026357,0.002169,0.006437
27953,9.590559,-1.661295,1.458073,0.030843,-0.001773,0.012369
27954,9.624081,-1.619300,1.458785,0.048375,0.000692,0.018393
27955,9.560312,-1.528759,1.551393,0.049622,-0.003185,0.016956
27956,9.612080,-1.458910,1.601293,0.031939,-0.013179,0.005746
27957,9.591789,-1.415361,1.607937,0.014643,-0.004336,0.007514
27958,9.578280,-1.502558,1.600617,0.003734,-0.001097,0.006038
27959,9.547656,-1.548002,1.624291,0.008460,-0.008560,-0.002189
27960,9.623977,-1.537517,1.614985,0.021041,-0.005371,-0.012347
27961,9.613935,-1.513922,1.619393,0.048762,0.011842,-0.010999
27962,9.624863,-1.465236,1.698896,0.036316,0.014461,-0.011048
27963,9.675759,-1.462612,1.669310,-0.012996,0.015017,-0.007575
27964,9.670915,-1.514210,1.640775,-0.043161,0.011879,-0.007264
