// Start Time: Unknown
// Update Rate: 100.0Hz
// Filter Profile: human (46.1)
// Firmware Version: 4.3.5
PacketCounter	Acc_X	Acc_Y	Acc_Z	Gyr_X	Gyr_Y	Gyr_Z	Roll	Pitch	Yaw
08102	9.840544	0.191345	0.826921	0.014169	0.008106	-0.014887	12.982441	-85.073526	19.528968
08103	9.869935	0.185123	0.857007	0.009373	0.009429	-0.017795	12.136820	-84.927300	20.080536
08104	9.890970	0.174927	0.833305	0.005004	0.008031	-0.016189	12.601681	-84.997124	19.764472
08105	9.890852	0.176567	0.834358	-0.001686	0.013318	-0.016680	12.688075	-84.987586	19.676777
08106	9.834526	0.125161	0.837235	0.000468	0.012862	-0.014071	12.764601	-84.976114	19.591076
08107	9.822138	0.150234	0.816671	0.006076	0.016938	-0.015274	12.840612	-84.964711	19.518265
08108	9.800298	0.130471	0.834109	0.015687	0.011726	-0.019053	12.947948	-84.957031	19.423985
08109	9.800703	0.165805	0.843742	0.019782	0.012177	-0.016092	13.043237	-84.948160	19.339704
08110	9.826738	0.194856	0.805468	0.023854	0.010192	-0.014515	13.130396	-84.940493	19.265001
08111	9.826621	0.196470	0.806510	0.023152	0.011963	-0.014465	13.217100	-84.931930	19.191274
08112	9.831473	0.237405	0.792781	0.012046	0.010978	-0.016121	13.310336	-84.922593	19.098972
08113	9.843586	0.215467	0.816058	0.004842	0.014241	-0.015691	13.390279	-84.912579	19.021500
08114	9.821260	0.162105	0.824920	0.004821	0.011803	-0.017075	13.482711	-84.904422	18.931255
08115	9.803911	0.148129	0.818933	0.009917	0.013859	-0.017352	13.575875	-84.894375	18.843426
08116	9.820983	0.165630	0.827511	0.014501	0.013896	-0.016701	13.664748	-84.884861	18.759987
08117	9.808571	0.191033	0.806931	0.018169	0.017063	-0.018259	13.762703	-84.872883	18.672091
08118	9.804393	0.220798	0.840196	0.025165	0.015152	-0.020951	13.876246	-84.863531	18.573690
08119	9.821410	0.238804	0.848948	0.024463	0.016921	-0.020903	13.993479	-84.851237	18.470056
08120	9.842900	0.262634	0.834412	0.020585	0.015102	-0.021609	14.109423	-84.842305	18.368399
08121	9.859903	0.280755	0.843092	0.017219	0.015302	-0.023245	14.238424	-84.830544	18.248779
08122	9.859249	0.249889	0.836400	0.007649	0.020360	-0.027697	14.384761	-84.817305	18.107376
08123	9.849967	0.181263	0.767873	0.000159	0.022682	-0.022700	14.487846	-84.801477	18.003957
08124	9.828904	0.229146	0.802940	-0.003436	0.021797	-0.027981	14.629766	-84.788213	17.860186
08125	9.854039	0.192089	0.748851	-0.014823	0.019866	-0.025072	14.741813	-84.773560	17.739144
08126	9.785209	0.131396	0.721621	-0.009549	0.015697	-0.025849	14.882385	-84.764391	17.589188
08127	9.802216	0.149382	0.730509	-0.004016	0.017486	-0.020218	14.973960	-84.751726	17.494915
08128	9.763648	0.147376	0.749056	0.006758	0.010242	-0.018122	15.081133	-84.749544	17.388137
08129	9.776936	0.226201	0.797218	0.012031	0.006078	-0.018897	15.191871	-84.743356	17.283850
08130	9.806626	0.253814	0.835647	0.008892	0.007359	-0.016890	15.280803	-84.744341	17.197430
08131	9.819150	0.265595	0.866941	0.007465	0.008464	-0.018175	15.380183	-84.736909	17.101920
08132	9.831661	0.277450	0.898249	0.005528	0.007554	-0.018529	15.471487	-84.737336	17.011992
08133	9.836009	0.285008	0.876211	-0.010311	0.017598	-0.017594	15.541440	-84.724920	16.935805
08134	9.823214	0.276395	0.847199	-0.014983	0.012832	-0.012795	15.581752	-84.721697	16.883003
08135	9.822729	0.244157	0.840191	-0.017837	0.015042	-0.015365	15.637535	-84.711013	16.816704
08136	9.830970	0.190189	0.778169	-0.014484	0.012407	-0.015110	15.700474	-84.706433	16.735940
08137	9.865082	0.223158	0.794059	-0.010608	0.014225	-0.014403	15.755625	-84.696329	16.674408
08138	9.843277	0.203034	0.811645	-0.014889	0.017538	-0.018259	15.833591	-84.692217	16.585412
08139	9.809497	0.240066	0.815402	-0.014704	0.011314	-0.018761	15.916962	-84.683027	16.493188
08140	9.809636	0.274914	0.825325	-0.022899	0.017830	-0.012340	15.925684	-84.679039	16.467279
08141	9.792359	0.260363	0.819620	-0.020488	0.013448	-0.017064	15.991523	-84.668924	16.389326
08142	9.787667	0.256026	0.844302	-0.023131	0.014303	-0.017373	16.054812	-84.665981	16.305619
08143	9.779470	0.253405	0.791962	-0.021193	0.015210	-0.017020	16.116448	-84.654878	16.231457
08144	9.787053	0.225530	0.838911	-0.019255	0.016118	-0.016666	16.243046	-84.653783	16.089820
08145	9.808518	0.248752	0.824520	-0.021909	0.014538	-0.018358	16.313041	-84.642821	16.006861
08146	9.799019	0.205293	0.863919	-0.020700	0.012346	-0.020722	16.411221	-84.639318	15.883229
08147	9.841638	0.183443	0.816339	-0.022416	0.012514	-0.017433	16.478231	-84.629573	15.802906
08148	9.819641	0.129921	0.824956	-0.019271	0.011237	-0.019440	16.585570	-84.629757	15.675333
08149	9.857747	0.102119	0.800694	-0.007446	0.015361	-0.015033	16.642222	-84.618822	15.614006
08150	9.841465	0.221613	0.828575	0.001185	0.008593	-0.015541	16.724787	-84.624533	15.531644
08151	9.870698	0.215450	0.859209	-0.001648	0.015663	-0.015346	16.786016	-84.613384	15.469100
08152	9.794734	0.216585	0.794498	-0.001147	0.015243	-0.017660	16.878444	-84.615302	15.375412
08153	9.810686	0.259805	0.912113	-0.007453	0.012919	-0.016422	16.947440	-84.605484	15.301774
08154	9.798035	0.251478	0.882676	-0.012041	0.010424	-0.018476	17.027048	-84.610089	15.220873
08155	9.789760	0.215527	0.821496	-0.006735	0.013581	-0.015088	17.086829	-84.600133	15.156985
08156	9.823522	0.215279	0.829158	-0.005007	0.015842	-0.016995	17.050833	-84.595296	15.178134
08157	9.811029	0.240414	0.808898	-0.011713	0.021079	-0.017520	17.107807	-84.580789	15.114112
08158	9.776571	0.176933	0.787551	-0.004496	0.017853	-0.017926	17.186041	-84.579694	15.028659
08159	9.788888	0.188576	0.819655	-0.008164	0.012241	-0.017766	17.262554	-84.569986	14.947069
08160	9.788754	0.190133	0.820890	-0.008666	0.012657	-0.015453	17.299060	-84.571677	14.900199
08161	9.776172	0.181517	0.791452	-0.008458	0.011307	-0.013189	17.350287	-84.563242	14.843828
08162	9.805547	0.208370	0.830556	-0.007535	0.010625	-0.009588	17.260070	-84.566611	14.930461
08163	9.818013	0.252813	0.870907	-0.009167	0.013071	-0.013142	17.305957	-84.557201	14.879046
08164	9.839186	0.208897	0.839459	-0.015164	0.016535	-0.013719	17.273635	-84.556276	14.896183
08165	9.846883	0.214020	0.894836	-0.009669	0.013485	-0.010830	17.304557	-84.547013	14.859474
08166	9.880907	0.280055	0.919521	-0.007528	0.013052	-0.008205	17.278438	-84.549061	14.873695
08167	9.885094	0.219940	0.880645	-0.013022	0.016097	-0.011096	17.304188	-84.538315	14.840217
08168	9.829530	0.234246	0.900367	-0.014240	0.015846	-0.010121	17.295353	-84.538493	14.835900
08169	9.846480	0.284440	0.917989	-0.021460	0.016625	-0.011110	17.315855	-84.527465	14.802840
08170	9.855285	0.230402	0.856053	-0.026751	0.015888	-0.013125	17.292345	-84.525365	14.805922
08171	9.893522	0.202120	0.832260	-0.023387	0.018133	-0.010089	17.302999	-84.513680	14.781632
08172	9.885630	0.232733	0.789091	-0.024712	0.023935	-0.016840	17.257047	-84.505829	14.807284
08173	9.923854	0.238828	0.775293	-0.015350	0.038347	-0.023633	17.312662	-84.480759	14.742410
08174	9.884982	0.270545	0.805377	-0.024798	0.052887	-0.030826	17.379837	-84.457946	14.657880
08175	9.759603	0.248593	0.907793	-0.022859	0.053788	-0.030471	17.441865	-84.423269	14.582273
08176	9.754343	0.178022	0.918796	-0.023260	0.048136	-0.020440	17.431954	-84.403567	14.573983
08177	9.715337	0.141799	0.931219	-0.014010	0.037363	-0.014129	17.436245	-84.380676	14.561479
08178	9.762850	0.125733	0.862619	-0.005675	0.029705	-0.010033	17.402469	-84.374158	14.600175
08179	9.793595	0.193765	0.811625	0.005301	0.021208	-0.005614	17.398631	-84.361596	14.607088
08180	9.805716	0.237598	0.853056	-0.004358	0.021473	-0.004671	17.249334	-84.359049	14.762599
08181	9.793231	0.194619	0.815805	-0.015949	0.020819	-0.004095	17.224131	-84.346952	14.778831
08182	9.826935	0.159992	0.815501	-0.020014	0.017899	-0.008483	17.107300	-84.344546	14.880633
08183	9.836139	0.205934	0.779683	-0.029671	0.020587	-0.006158	17.085276	-84.332200	14.885741
08184	9.814314	0.184717	0.797616	-0.036066	0.024291	-0.012675	17.038051	-84.327618	14.909258
08185	9.814102	0.152263	0.791353	-0.037995	0.023365	-0.013047	17.044703	-84.312599	14.880767
08186	9.775347	0.148999	0.810094	-0.030065	0.015983	-0.014864	17.022751	-84.311985	14.875690
08187	9.787425	0.160212	0.842484	-0.026400	0.016737	-0.017785	17.073331	-84.299789	14.809674
08188	9.816457	0.154184	0.873506	-0.028328	0.010962	-0.020934	17.129835	-84.302770	14.732597
08189	9.828567	0.132275	0.896869	-0.025687	0.014968	-0.017837	17.184455	-84.291539	14.662953
08190	9.850077	0.122423	0.873997	-0.017959	0.013793	-0.019139	17.176157	-84.292498	14.659131
08191	9.823553	0.129535	0.922913	-0.011455	0.014792	-0.018078	17.240125	-84.281320	14.588309
08192	9.888348	0.130250	0.860364	-0.002510	0.018725	-0.017571	17.151351	-84.278461	14.674181
08193	9.883443	0.125871	0.885484	0.005924	0.020645	-0.016139	17.203419	-84.264392	14.625319
08194	9.921687	0.198793	0.888353	0.015579	0.022820	-0.015678	17.200513	-84.262008	14.640129
08195	9.955147	0.265782	0.914781	0.015889	0.028597	-0.017484	17.252114	-84.243382	14.597555
08196	9.966685	0.377609	0.975227	0.000539	0.042900	-0.016189	17.149292	-84.227266	14.695160
08197	9.973403	0.416873	1.043121	-0.021590	0.061154	-0.027353	17.177732	-84.189137	14.654246
08198	9.933908	0.415079	1.067019	-0.036308	0.082137	-0.032465	17.200507	-84.148479	14.599647
08199	9.817001	0.371525	1.117335	-0.061764	0.100506	-0.045339	17.236979	-84.085769	14.527473
08200	9.791721	0.322666	1.057183	-0.072173	0.103631	-0.054929	17.272651	-84.028248	14.451664
08201	9.774177	0.211087	1.033469	-0.074594	0.103050	-0.053031	17.335447	-83.962845	14.345672
08202	9.884598	0.156123	1.000041	-0.052967	0.108029	-0.045777	17.227142	-83.901155	14.422150
08203	10.011103	0.216899	1.002520	-0.034809	0.133722	-0.039575	17.193281	-83.821239	14.436254
08204	10.058599	0.170795	0.936660	-0.014168	0.152655	-0.039477	17.098346	-83.738979	14.530827
08205	10.078356	0.230299	0.946941	-0.001125	0.179803	-0.042198	17.028963	-83.633410	14.600202
08206	9.975044	0.239062	0.945345	-0.001181	0.197764	-0.043069	16.845959	-83.524216	14.782289
08207	10.037802	0.342869	0.929296	-0.004922	0.217326	-0.039683	16.714540	-83.398435	14.911953
08208	9.955527	0.537197	1.037445	-0.021498	0.240691	-0.032131	16.411073	-83.268840	15.212842
08209	9.839650	0.665274	1.121907	-0.068488	0.241755	-0.029052	16.174335	-83.131220	15.412055
08210	9.820360	0.714527	1.233073	-0.131628	0.238351	-0.017232	15.847548	-83.005072	15.670455
08211	9.829708	0.719951	1.365815	-0.203934	0.235846	0.004862	15.409814	-82.875711	15.994195
08212	9.885801	0.532915	1.406615	-0.287636	0.241885	0.024468	14.852282	-82.747380	16.367932
08213	9.895738	0.371243	1.340538	-0.344403	0.239142	0.045192	14.187446	-82.621194	16.839478
08214	10.018468	0.208282	1.405224	-0.380910	0.256578	0.072129	13.366262	-82.491453	17.450870
08215	10.155398	0.161663	1.430742	-0.384501	0.276453	0.087056	12.509330	-82.348193	18.093359
08216	10.183851	0.207430	1.565000	-0.392227	0.312616	0.094467	11.561032	-82.184404	18.817450
08217	10.060385	0.285085	1.518664	-0.410943	0.336930	0.090539	10.685617	-82.004883	19.463743
08218	10.026420	0.345038	1.543627	-0.419502	0.357250	0.078503	9.868351	-81.812073	20.040792
08219	9.975170	0.423065	1.571807	-0.426223	0.374708	0.075957	9.082176	-81.607339	20.588637
08220	9.906056	0.480702	1.669796	-0.454378	0.385999	0.061733	8.442784	-81.395287	20.955696
08221	9.983080	0.478412	1.736730	-0.490625	0.401833	0.055783	7.740599	-81.171718	21.381726
08222	9.935425	0.524422	1.815287	-0.542778	0.424423	0.056778	7.062309	-80.935007	21.752233
08223	9.911252	0.493246	1.852207	-0.597742	0.451542	0.050293	6.353578	-80.681318	22.123287
08224	9.917917	0.360007	1.813348	-0.657862	0.474605	0.053920	5.680336	-80.415065	22.429768
08225	9.956581	0.289358	1.806400	-0.698015	0.502437	0.060517	4.922010	-80.131561	22.793504
08226	9.946667	0.310959	1.739559	-0.721829	0.525888	0.070935	4.256028	-79.838478	23.059819
08227	9.964034	0.452109	1.806488	-0.763485	0.538261	0.067906	3.490407	-79.533457	23.393625
08228	9.949115	0.357420	1.863023	-0.819582	0.554380	0.075004	2.690963	-79.217099	23.744219
08229	9.986710	0.206550	1.970670	-0.850704	0.572956	0.082684	1.890265	-78.891031	24.063685
08230	9.925362	-0.003019	2.025268	-0.853181	0.595212	0.088649	1.186915	-78.552969	24.286282
08231	9.843197	-0.099485	2.117145	-0.849369	0.622106	0.095432	0.410527	-78.197453	24.582504
08232	9.819672	-0.306047	2.157519	-0.843930	0.639194	0.116954	-0.291392	-77.839288	24.832441
08233	9.740409	-0.391660	2.117352	-0.835854	0.651876	0.149375	-1.138735	-77.465038	25.210280
08234	9.653972	-0.487808	2.097080	-0.834023	0.652930	0.176438	-1.918980	-77.094621	25.534645
08235	9.587959	-0.697710	2.031909	-0.804799	0.641647	0.199128	-2.802938	-76.723036	25.969586
08236	9.610336	-0.864066	2.042636	-0.740822	0.624987	0.225384	-3.605701	-76.368333	26.385193
08237	9.613771	-0.987538	2.121603	-0.679368	0.633995	0.250256	-4.469438	-75.996508	26.874900
08238	9.565396	-1.059867	2.204696	-0.605863	0.625867	0.277544	-5.247509	-75.637358	27.342985
08239	9.500324	-1.147562	2.273469	-0.550887	0.612181	0.305581	-6.097077	-75.271843	27.895908
08240	9.466588	-1.241372	2.351509	-0.506328	0.599182	0.339658	-6.920076	-74.918304	28.463294
08241	9.434330	-1.362841	2.359508	-0.460877	0.597308	0.380683	-7.811439	-74.551934	29.115007
08242	9.335928	-1.378055	2.332947	-0.429610	0.585302	0.429721	-8.702353	-74.200602	29.812865
08243	9.310161	-1.363877	2.322743	-0.410910	0.566124	0.468243	-9.676357	-73.838815	30.582888
08244	9.329773	-1.351295	2.390653	-0.389199	0.542364	0.505848	-10.642187	-73.498546	31.383673
08245	9.367096	-1.302205	2.574194	-0.384179	0.525377	0.525195	-11.647522	-73.146572	32.205416
08246	9.373078	-1.313707	2.715113	-0.397041	0.526764	0.552800	-12.655842	-72.795698	33.031406
08247	9.284235	-1.405253	2.773152	-0.412959	0.541764	0.581374	-13.695520	-72.419281	33.875113
08248	9.187113	-1.526803	2.692881	-0.425927	0.539124	0.609293	-14.705461	-72.055676	34.709313
08249	9.154441	-1.729808	2.692138	-0.433530	0.524989	0.656335	-15.812446	-71.668614	35.615267
08250	9.165920	-1.900503	2.731440	-0.437009	0.511189	0.708213	-16.951149	-71.291638	36.576274
08251	9.195336	-2.055815	2.729811	-0.421484	0.504397	0.759802	-18.142269	-70.887262	37.582815
08252	9.082474	-2.168415	2.675774	-0.378049	0.487670	0.798355	-19.284538	-70.498307	38.587254
08253	9.102502	-2.223273	2.876399	-0.358468	0.453693	0.831605	-20.485894	-70.094621	39.648139
08254	9.156661	-2.342665	3.003066	-0.363432	0.449493	0.870911	-21.688140	-69.694298	40.727212
08255	9.040449	-2.317725	3.112517	-0.363979	0.452880	0.903046	-22.903977	-69.261116	41.805966
08256	8.986964	-2.333174	3.144160	-0.379727	0.439319	0.932340	-24.138410	-68.834114	42.911821
08257	8.957148	-2.489933	3.209200	-0.401427	0.432150	0.972445	-25.386494	-68.379437	44.008680
08258	8.970702	-2.701184	3.180719	-0.410733	0.432468	1.024852	-26.668859	-67.908842	45.141052
08259	8.977464	-2.887863	3.133337	-0.410431	0.424903	1.076809	-27.957658	-67.413261	46.283713
08260	8.943058	-3.138798	3.123656	-0.402072	0.411887	1.123432	-29.290060	-66.906180	47.489265
08261	8.929705	-3.343250	3.091442	-0.375532	0.399410	1.171625	-30.579579	-66.376967	48.663233
08262	8.923449	-3.510215	3.022382	-0.327130	0.381095	1.202759	-31.899126	-65.829312	49.896386
08263	8.867130	-3.567039	3.010750	-0.270630	0.361878	1.221264	-33.099765	-65.282712	51.048681
08264	8.847128	-3.634910	3.082008	-0.226580	0.341123	1.231738	-34.327087	-64.719803	52.252716
08265	8.810268	-3.633808	3.241991	-0.204661	0.321405	1.252479	-35.447882	-64.162616	53.368926
08266	8.776186	-3.713735	3.330270	-0.199046	0.310710	1.274576	-36.624725	-63.577131	54.540921
08267	8.826838	-3.851870	3.322110	-0.195617	0.297563	1.316988	-37.720204	-62.989739	55.645712
08268	8.754759	-4.003120	3.254407	-0.180673	0.297056	1.350961	-38.866243	-62.362878	56.807858
08269	8.697146	-4.178325	3.253404	-0.160355	0.281623	1.380174	-39.911017	-61.740801	57.890466
08270	8.654356	-4.316657	3.251407	-0.136758	0.271909	1.409013	-41.000510	-61.083078	59.028543
08271	8.607928	-4.376391	3.286643	-0.115614	0.264022	1.430086	-41.978454	-60.431427	60.077355
08272	8.545865	-4.477186	3.390639	-0.102080	0.250952	1.458379	-43.006453	-59.744077	61.176821
08273	8.572821	-4.662067	3.363208	-0.097188	0.237394	1.490477	-43.946650	-59.062311	62.208407
08274	8.620807	-4.736252	3.407245	-0.088824	0.229485	1.522200	-44.935254	-58.339469	63.289615
08275	8.506359	-4.752535	3.447365	-0.077125	0.235985	1.530881	-45.806151	-57.624811	64.268706
08276	8.438617	-4.828189	3.499687	-0.063692	0.226032	1.546689	-46.711742	-56.875623	65.285270
08277	8.371440	-5.004385	3.477821	-0.059624	0.217177	1.561464	-47.523643	-56.139962	66.221987
08278	8.284618	-5.136555	3.492999	-0.043860	0.210263	1.569269	-48.360871	-55.371386	67.189068
08279	8.267159	-5.300392	3.624238	-0.026687	0.205361	1.581483	-49.099013	-54.617315	68.075778
08280	8.165781	-5.563632	3.617086	-0.011503	0.207221	1.607813	-49.866219	-53.818667	68.993117
08281	8.112592	-5.832037	3.590727	0.016642	0.204494	1.638802	-50.541223	-53.026844	69.849828
08282	8.019784	-6.007185	3.537300	0.060967	0.194058	1.673138	-51.237568	-52.190580	70.754036
08283	7.994017	-6.129432	3.398531	0.103392	0.177469	1.705114	-51.844916	-51.366928	71.606901
08284	7.957540	-6.157355	3.318278	0.150762	0.163921	1.723055	-52.464530	-50.506491	72.497748
08285	7.920951	-6.184306	3.205314	0.199842	0.148239	1.737005	-52.986072	-49.667710	73.331480
08286	7.899485	-6.112976	3.201808	0.239026	0.141856	1.731575	-53.511753	-48.800698	74.187853
08287	7.875010	-6.148593	3.298450	0.265253	0.130045	1.721971	-53.945604	-47.965786	74.976079
08288	7.753986	-6.131932	3.452560	0.281381	0.128557	1.711596	-54.394259	-47.104590	75.783236
08289	7.606334	-6.237637	3.515712	0.287519	0.114316	1.705934	-54.770293	-46.274678	76.531156
08290	7.510985	-6.252806	3.511333	0.299158	0.109090	1.707868	-55.170063	-45.415070	77.295024
08291	7.369913	-6.298089	3.489230	0.303564	0.096332	1.703154	-55.502346	-44.585645	78.015793
08292	7.230126	-6.462777	3.444889	0.313796	0.069093	1.697954	-55.866504	-43.738026	78.763130
08293	7.087975	-6.498504	3.317589	0.344587	0.043375	1.699029	-56.159625	-42.921553	79.483047
08294	7.012327	-6.477024	3.259141	0.368502	0.018540	1.696461	-56.475759	-42.085743	80.228462
08295	7.021424	-6.353336	3.389764	0.375734	-0.009119	1.686168	-56.734613	-41.286602	80.946577
08296	6.940766	-6.333284	3.449464	0.389058	-0.018280	1.661638	-57.009326	-40.475060	81.670461
08297	6.847357	-6.288383	3.594703	0.374038	-0.033343	1.644360	-57.235748	-39.698756	82.360231
08298	6.810612	-6.309708	3.580261	0.354532	-0.039930	1.617469	-57.494911	-38.912104	83.052861
08299	6.640152	-6.406913	3.567313	0.352522	-0.027529	1.589848	-57.689131	-38.156081	83.694367
08300	6.417418	-6.474884	3.538481	0.349843	-0.041438	1.567648	-57.910390	-37.391697	84.345067
08301	6.298478	-6.708467	3.505483	0.334249	-0.076753	1.554341	-58.099768	-36.664269	84.983275
08302	6.352685	-6.870479	3.640165	0.342823	-0.108855	1.567284	-58.323219	-35.918083	85.653983
08303	6.325391	-6.788169	3.723349	0.348726	-0.117820	1.569907	-58.498128	-35.191788	86.304311
08304	6.221574	-6.579124	3.720491	0.357673	-0.115003	1.536521	-58.683421	-34.460300	86.948141
08305	6.008418	-6.357230	3.736254	0.348280	-0.116092	1.476156	-58.816533	-33.776291	87.547355
08306	5.895202	-6.307480	3.713926	0.309248	-0.142117	1.426672	-58.994059	-33.105571	88.151572
08307	5.814136	-6.377080	3.792946	0.289582	-0.165012	1.372216	-59.137687	-32.484324	88.729422
08308	5.788470	-6.618904	3.975852	0.269671	-0.162733	1.341441	-59.308758	-31.860605	89.301906
08309	5.567033	-6.815647	3.940548	0.281964	-0.158823	1.311794	-59.427455	-31.264783	89.843875
08310	5.408564	-6.893706	3.816183	0.299773	-0.171742	1.274528	-59.554950	-30.675882	90.386998
08311	5.300427	-6.897135	3.792320	0.306163	-0.197090	1.240330	-59.644571	-30.124605	90.917533
08312	5.239356	-6.853123	3.799786	0.320923	-0.212916	1.200943	-59.744977	-29.583514	91.450184
08313	5.204762	-6.883910	3.808835	0.335563	-0.223529	1.156639	-59.799275	-29.079919	91.960508
08314	5.168791	-6.878696	4.007213	0.331334	-0.222362	1.124104	-59.871473	-28.579711	92.465638
08315	5.116948	-6.947348	4.104218	0.291915	-0.210755	1.100500	-59.928032	-28.099281	92.944343
08316	4.942247	-7.071466	4.069371	0.255702	-0.202684	1.088846	-60.021340	-27.611072	93.420195
08317	4.750046	-7.188759	4.051695	0.235579	-0.206192	1.074913	-60.095473	-27.140874	93.882394
08318	4.544131	-7.332308	3.897427	0.233835	-0.223532	1.060948	-60.191864	-26.672119	94.354591
08319	4.354824	-7.419889	3.843965	0.237254	-0.254585	1.032580	-60.262035	-26.235535	94.824931
08320	4.358358	-7.469862	3.881914	0.253386	-0.277100	1.000374	-60.342572	-25.811406	95.302167
08321	4.357714	-7.506161	4.076222	0.272250	-0.283066	0.965598	-60.382259	-25.415253	95.762707
08322	4.287682	-7.599406	4.227368	0.283057	-0.284637	0.937853	-60.430852	-25.024035	96.220058
08323	4.178129	-7.667578	4.173718	0.291903	-0.280717	0.907697	-60.444080	-24.655528	96.657800
08324	4.057775	-7.670193	4.223807	0.323862	-0.283800	0.878693	-60.454015	-24.293535	97.092809
08325	3.922130	-7.575180	4.099208	0.359525	-0.289337	0.851265	-60.417307	-23.955600	97.515329
08326	3.862956	-7.474567	3.970259	0.385790	-0.310529	0.827639	-60.385005	-23.627082	97.946713
08327	3.839518	-7.629867	3.959918	0.409164	-0.331944	0.823997	-60.320683	-23.315356	98.382370
08328	3.841656	-7.869221	3.972357	0.431171	-0.357328	0.841341	-60.268610	-22.994236	98.841599
08329	3.889978	-7.968356	4.006428	0.439215	-0.397319	0.852915	-60.199313	-22.687552	99.320138
08330	3.930948	-7.970032	3.963994	0.447086	-0.409376	0.834620	-60.142846	-22.385658	99.803754
08331	3.913273	-7.738338	3.945130	0.491139	-0.411019	0.797997	-60.035146	-22.111278	100.271499
08332	3.872520	-7.353146	4.003323	0.492614	-0.403911	0.747100	-59.936617	-21.853071	100.724092
08333	3.765991	-7.083944	4.145557	0.458905	-0.398088	0.702257	-59.829777	-21.623980	101.154705
08334	3.662546	-7.018550	4.302846	0.422251	-0.413989	0.671994	-59.760664	-21.407905	101.588551
08335	3.558097	-7.141309	4.406258	0.392907	-0.433265	0.655397	-59.689953	-21.213265	102.022749
08336	3.548235	-7.491303	4.291989	0.368124	-0.455534	0.657297	-59.653969	-21.017798	102.473028
08337	3.559873	-7.573621	4.270035	0.355882	-0.463189	0.653534	-59.606932	-20.833417	102.921722
08338	3.671824	-7.410963	4.207311	0.328195	-0.461671	0.631438	-59.588532	-20.653324	103.366177
08339	3.743282	-7.208586	4.282977	0.306261	-0.441930	0.594685	-59.556703	-20.492271	103.784585
08340	3.754882	-7.063288	4.335889	0.268632	-0.419938	0.560301	-59.553752	-20.336155	104.184002
08341	3.720914	-6.914205	4.445448	0.215710	-0.379937	0.524917	-59.552647	-20.191697	104.547412
08342	3.599667	-6.818188	4.642552	0.157807	-0.340080	0.493647	-59.588434	-20.046094	104.883162
08343	3.342335	-6.935430	4.814102	0.122800	-0.314401	0.469968	-59.621029	-19.909488	105.194375
08344	3.187592	-7.238247	4.798068	0.135540	-0.314610	0.450066	-59.657246	-19.778245	105.502216
08345	3.203254	-7.539067	4.615012	0.160353	-0.330426	0.444834	-59.667020	-19.658413	105.813481
08346	3.246876	-7.493407	4.601851	0.212417	-0.349683	0.425868	-59.660498	-19.549250	106.131550
08347	3.399955	-7.432463	4.624271	0.265240	-0.358467	0.385554	-59.607821	-19.466988	106.438976
08348	3.559953	-7.333627	4.697437	0.320388	-0.343599	0.354847	-59.529367	-19.391917	106.731681
08349	3.670649	-7.181159	4.775023	0.322264	-0.309347	0.326665	-59.428715	-19.325214	106.995214
08350	3.654445	-7.194591	4.949957	0.310426	-0.264345	0.307235	-59.335746	-19.252089	107.231589
08351	3.492993	-7.175316	5.078969	0.311424	-0.243869	0.287912	-59.225516	-19.186172	107.448986
08352	3.432955	-7.085580	5.109136	0.288332	-0.239522	0.257725	-59.134149	-19.131555	107.656859
08353	3.300197	-7.133870	5.099832	0.265358	-0.228005	0.223953	-59.040741	-19.093102	107.846183
08354	3.284892	-7.168298	5.029751	0.246643	-0.219381	0.193205	-58.961676	-19.065274	108.023249
08355	3.419909	-7.268910	4.866727	0.232034	-0.208359	0.169154	-58.878282	-19.048424	108.185289
08356	3.615815	-7.350889	4.794965	0.228886	-0.184670	0.156932	-58.798725	-19.028976	108.332821
08357	3.767288	-7.375730	4.760218	0.234691	-0.165302	0.150642	-58.704551	-19.008848	108.466756
08358	3.809995	-7.407553	4.821419	0.247614	-0.147906	0.131752	-58.604785	-18.991973	108.587244
08359	3.847467	-7.363393	4.837705	0.228390	-0.135445	0.111738	-58.505148	-18.982373	108.693502
08360	3.833670	-7.314554	4.880728	0.200461	-0.120390	0.083783	-58.422214	-18.981928	108.784518
08361	3.762671	-7.297786	4.903569	0.168342	-0.102289	0.059740	-58.346053	-18.988041	108.857186
08362	3.740097	-7.159530	4.949699	0.130998	-0.073728	0.043711	-58.290303	-18.994136	108.911280
08363	3.712948	-7.119466	5.044068	0.069746	-0.057678	0.036546	-58.260756	-18.998245	108.953563
08364	3.770550	-7.055217	5.076383	-0.000623	-0.031804	0.023452	-58.270469	-19.002379	108.979427
08365	3.827215	-6.989538	5.229493	-0.064084	0.002734	0.008534	-58.304564	-19.001940	108.981651
08366	3.846366	-7.031956	5.224509	-0.131344	0.024136	-0.009705	-58.375318	-19.006202	108.967903
08367	3.899876	-7.103988	5.284419	-0.179469	0.052343	-0.032545	-58.462937	-19.010926	108.931482
08368	3.950848	-7.113715	5.369714	-0.204143	0.093206	-0.051547	-58.558368	-19.015825	108.868560
08369	3.921849	-7.202135	5.322964	-0.213836	0.127865	-0.058763	-58.650256	-19.010943	108.784812
08370	3.922581	-7.222922	5.385212	-0.214522	0.152776	-0.067098	-58.738875	-19.006721	108.685900
08371	3.969873	-7.204707	5.361845	-0.213256	0.185959	-0.072813	-58.819211	-18.991714	108.567625
08372	4.079409	-7.057048	5.309221	-0.206880	0.205276	-0.088302	-58.891348	-18.983359	108.434566
08373	4.297161	-6.957944	5.386738	-0.180977	0.233218	-0.108482	-58.941620	-18.972145	108.280587
08374	4.476973	-6.845001	5.439348	-0.158753	0.276464	-0.140729	-58.967656	-18.969741	108.093886
08375	4.538039	-6.699986	5.374130	-0.142899	0.319733	-0.178416	-58.974431	-18.967453	107.873145
08376	4.509961	-6.406097	5.398771	-0.146307	0.356075	-0.229123	-58.969470	-18.986337	107.617135
08377	4.437537	-6.115730	5.557263	-0.193915	0.395842	-0.285305	-58.981607	-19.014076	107.323440
08378	4.295252	-5.899636	5.612586	-0.270318	0.441549	-0.346023	-59.019221	-19.066639	106.985969
08379	4.261206	-5.805412	5.607066	-0.369673	0.487949	-0.424860	-59.101608	-19.136242	106.600723
08380	4.259481	-5.889189	5.614923	-0.447032	0.531028	-0.489962	-59.207435	-19.235353	106.171117
08381	4.311547	-6.029246	5.459744	-0.490283	0.578392	-0.556017	-59.328635	-19.344392	105.697811
08382	4.348429	-6.209301	5.312849	-0.505086	0.646042	-0.642513	-59.428329	-19.487767	105.160043
08383	4.272292	-6.451602	5.245692	-0.488868	0.691165	-0.725016	-59.509135	-19.648956	104.575046
08384	4.103754	-6.801201	5.063469	-0.471813	0.707468	-0.780182	-59.559784	-19.844700	103.961305
08385	3.970885	-7.050639	4.882313	-0.418688	0.709334	-0.818154	-59.583305	-20.047625	103.336912
08386	3.868272	-7.098793	4.819123	-0.334362	0.695506	-0.862581	-59.542898	-20.288189	102.702050
08387	3.877861	-7.011530	4.680729	-0.262490	0.680212	-0.921495	-59.465489	-20.549917	102.058767
08388	4.059937	-6.793523	4.585568	-0.202861	0.666694	-1.000020	-59.332712	-20.865065	101.392967
08389	4.229944	-6.573955	4.585691	-0.174980	0.660740	-1.102532	-59.180512	-21.219045	100.699268
08390	4.336377	-6.524785	4.647216	-0.191501	0.663632	-1.187165	-59.010020	-21.624152	99.970592
08391	4.412414	-6.716421	4.751587	-0.235250	0.658961	-1.235209	-58.865885	-22.040178	99.229686
08392	4.332305	-6.952555	4.870590	-0.267497	0.662736	-1.247385	-58.718729	-22.471865	98.475175
08393	4.286437	-7.247180	4.831601	-0.286378	0.669977	-1.231647	-58.589387	-22.879458	97.722855
08394	4.163756	-7.387038	4.556402	-0.257111	0.680282	-1.230776	-58.421399	-23.294282	96.957128
08395	4.023731	-7.251931	4.120531	-0.186471	0.667134	-1.275618	-58.216707	-23.720112	96.184615
08396	4.155469	-7.040101	3.926826	-0.117404	0.601122	-1.357305	-57.954681	-24.215015	95.410507
08397	4.550668	-6.930524	3.873276	-0.075460	0.544832	-1.436630	-57.674854	-24.750003	94.639181
08398	4.880791	-6.943717	4.046049	-0.069517	0.510766	-1.499752	-57.367479	-25.334595	93.852883
08399	5.045323	-7.053122	4.235274	-0.074339	0.501295	-1.542753	-57.061444	-25.926834	93.054845
08400	5.094048	-7.216389	4.294226	-0.073338	0.488925	-1.559764	-56.731130	-26.539576	92.244269
08401	5.154832	-7.275785	4.395654	-0.070362	0.482901	-1.562600	-56.401850	-27.138944	91.433252
08402	5.161265	-7.186683	4.330467	-0.038433	0.486635	-1.570942	-56.027550	-27.749186	90.602986
08403	5.167232	-6.828311	4.191998	-0.012080	0.477784	-1.605169	-55.635285	-28.361057	89.761542
08404	5.227802	-6.421694	4.135795	-0.014593	0.450188	-1.668751	-55.214581	-29.019176	88.895445
08405	5.429630	-6.167992	4.263956	-0.060207	0.409670	-1.742587	-54.815562	-29.707300	88.018369
08406	5.796265	-6.201398	4.415505	-0.134926	0.412402	-1.793450	-54.420819	-30.425729	87.102322
08407	6.059535	-6.344906	4.763475	-0.231632	0.436096	-1.809537	-54.068705	-31.125808	86.161542
08408	6.074754	-6.623405	4.906400	-0.307150	0.485558	-1.801963	-53.718138	-31.813788	85.178087
08409	6.025142	-6.876478	4.712333	-0.347411	0.522528	-1.777357	-53.382522	-32.459776	84.179461
08410	6.040716	-6.900332	4.396160	-0.350594	0.514471	-1.760253	-53.025408	-33.108576	83.173025
08411	6.024275	-6.755297	3.978431	-0.327666	0.455232	-1.788488	-52.663771	-33.772481	82.182387
08412	6.183506	-6.656796	3.604988	-0.267717	0.366048	-1.859795	-52.247620	-34.507227	81.189646
08413	6.511411	-6.513205	3.810232	-0.196189	0.304387	-1.939303	-51.783782	-35.280416	80.188398
08414	6.728888	-6.441534	4.189856	-0.161352	0.271198	-2.015195	-51.256939	-36.105477	79.146700
08415	6.785764	-6.445155	4.428281	-0.123114	0.278310	-2.049538	-50.684806	-36.922051	78.072466
08416	6.646281	-6.619072	4.372160	-0.077400	0.303296	-2.046675	-50.041025	-37.732230	76.955791
08417	6.538515	-6.696754	4.384298	-0.020706	0.299378	-2.011162	-49.361868	-38.504910	75.842008
08418	6.547586	-6.454461	4.354949	0.035117	0.252371	-1.976863	-48.638810	-39.282531	74.738974
08419	6.695825	-6.112948	4.087657	0.084643	0.167548	-1.964488	-47.905789	-40.063441	73.672210
08420	7.154892	-5.798029	3.843099	0.144454	0.063878	-1.990669	-47.127570	-40.897213	72.615850
08421	7.606211	-5.491103	3.959962	0.185964	-0.013268	-2.052044	-46.313147	-41.763160	71.549268
08422	7.732332	-5.261367	4.139754	0.190491	-0.032031	-2.125968	-45.432350	-42.667934	70.414296
08423	7.521033	-5.089586	4.261121	0.199599	-0.014267	-2.207528	-44.481200	-43.572195	69.195228
08424	7.117482	-5.126478	4.205824	0.221603	0.015918	-2.256002	-43.434128	-44.480834	67.883773
08425	6.899130	-5.229662	4.307885	0.217182	0.004832	-2.249531	-42.361954	-45.360929	66.546609
08426	7.090790	-5.200648	4.261792	0.229126	-0.039676	-2.213804	-41.259201	-46.241261	65.203192
08427	7.563497	-4.975989	4.347177	0.237241	-0.112685	-2.203723	-40.148370	-47.118400	63.868029
08428	8.176982	-4.770416	4.352533	0.229972	-0.186452	-2.215726	-39.005721	-48.027008	62.509201
08429	8.532888	-4.560393	4.175398	0.246808	-0.216952	-2.237509	-37.812209	-48.925624	61.108651
08430	8.694206	-4.302996	3.941785	0.259193	-0.267424	-2.298905	-36.533430	-49.861565	59.645558
08431	8.683931	-4.026102	3.967426	0.270305	-0.299175	-2.375546	-35.164070	-50.802350	58.072418
08432	8.317512	-3.857800	4.089531	0.249561	-0.334474	-2.438854	-33.704179	-51.769037	56.409825
08433	8.099593	-3.893647	4.077039	0.236318	-0.335870	-2.457894	-32.172632	-52.700960	54.648249
08434	7.911606	-3.908635	4.031985	0.225407	-0.327307	-2.425949	-30.575240	-53.603141	52.836780
08435	8.073963	-3.897818	4.027500	0.233765	-0.366362	-2.370045	-28.954369	-54.464109	51.004018
08436	8.636786	-3.796653	4.196173	0.189843	-0.422280	-2.330320	-27.317608	-55.325108	49.156178
08437	9.188319	-3.576882	4.279258	0.149927	-0.461431	-2.319606	-25.651618	-56.158966	47.248734
08438	9.325922	-3.492504	4.388100	0.091334	-0.483542	-2.329702	-23.923486	-56.987978	45.259522
08439	9.410460	-3.402988	4.264470	0.072268	-0.500226	-2.344381	-22.118036	-57.781484	43.169466
08440	9.333888	-3.288155	4.283519	0.050613	-0.528243	-2.379006	-20.200377	-58.573491	40.964465
08441	9.156972	-3.267528	4.093040	0.033543	-0.545663	-2.404025	-18.183201	-59.325865	38.636532
08442	8.830782	-3.281964	3.863490	0.051235	-0.556414	-2.397838	-16.051598	-60.052424	36.219246
08443	8.460418	-3.224923	3.682789	0.085559	-0.581517	-2.366562	-13.839759	-60.728171	33.735688
08444	8.167528	-3.067922	3.468368	0.132271	-0.600113	-2.287145	-11.573251	-61.369130	31.251998
08445	8.031195	-2.773124	3.513142	0.175295	-0.640239	-2.201651	-9.285594	-61.962151	28.771119
08446	8.230227	-2.304421	3.728093	0.155649	-0.691577	-2.099879	-7.022650	-62.541737	26.329156
08447	8.565167	-1.899422	3.943245	0.083746	-0.686424	-1.984262	-4.843232	-63.054071	23.936646
08448	8.747789	-1.602995	4.054785	-0.013476	-0.634960	-1.876421	-2.750598	-63.504565	21.600031
08449	8.911848	-1.430090	4.121308	-0.136055	-0.587003	-1.773898	-0.783818	-63.875437	19.322912
08450	9.045189	-1.439185	4.093920	-0.272641	-0.538382	-1.675280	1.050555	-64.197507	17.124143
08451	9.119093	-1.524895	4.018390	-0.397764	-0.495476	-1.564961	2.718063	-64.454869	15.024968
08452	9.160633	-1.737191	3.843776	-0.503170	-0.471570	-1.454617	4.231986	-64.689383	13.041589
08453	9.136782	-2.042412	3.566715	-0.546884	-0.456998	-1.335139	5.597284	-64.887632	11.190024
08454	9.118125	-2.054208	3.430259	-0.540410	-0.495422	-1.238210	6.882642	-65.108213	9.443536
08455	9.166847	-2.144165	3.480003	-0.537243	-0.554206	-1.162565	8.107925	-65.338892	7.758794
08456	9.238210	-2.292566	3.163072	-0.456329	-0.580563	-1.080727	9.312217	-65.589895	6.161849
08457	9.233750	-2.033396	3.200456	-0.338953	-0.613261	-1.020213	10.541287	-65.837828	4.604150
08458	9.201937	-1.855509	3.533662	-0.288240	-0.657244	-0.977911	11.785289	-66.115338	3.073946
08459	9.249860	-1.849325	3.485919	-0.252939	-0.660684	-0.892219	12.972806	-66.377917	1.621916
08460	9.350270	-1.936378	3.368223	-0.191360	-0.650894	-0.799728	14.099419	-66.650144	0.285556
08461	9.407388	-2.041397	3.219426	-0.102754	-0.636251	-0.708454	15.184426	-66.902517	-0.955482
08462	9.321186	-1.947376	3.322170	0.021603	-0.613087	-0.632663	16.252058	-67.160122	-2.088670
08463	9.198667	-1.502691	3.582168	0.102035	-0.632697	-0.575076	17.328600	-67.414124	-3.188665
08464	9.046820	-1.218323	3.742499	0.134164	-0.652628	-0.525420	18.381468	-67.696029	-4.229807
08465	9.026307	-0.972052	3.547825	0.194636	-0.649941	-0.466920	19.424890	-67.963652	-5.232464
08466	9.117996	-0.639344	3.670558	0.217489	-0.659705	-0.418560	20.433915	-68.255288	-6.176507
08467	9.340989	-0.549051	3.802091	0.188160	-0.627019	-0.352166	21.356137	-68.520804	-7.048885
08468	9.433849	-0.583239	3.724555	0.174364	-0.571057	-0.270730	22.135863	-68.785600	-7.764672
08469	9.453631	-0.785778	3.436895	0.166230	-0.517811	-0.200500	22.815751	-69.017579	-8.387735
08470	9.479774	-0.949314	3.256882	0.204301	-0.466564	-0.151921	23.416631	-69.247474	-8.895664
08471	9.320926	-1.131853	3.155282	0.265032	-0.427415	-0.102226	23.987873	-69.449835	-9.340285
08472	9.119271	-1.248517	3.062266	0.359835	-0.409080	-0.030468	24.490317	-69.675022	-9.646948
08473	8.997193	-1.317719	2.822576	0.474117	-0.420303	0.070193	24.952580	-69.912202	-9.846517
08474	8.973897	-1.006758	2.712862	0.638265	-0.440828	0.181867	25.345419	-70.204076	-9.868724
08475	9.064648	-0.659373	2.861137	0.741958	-0.459055	0.254941	25.735650	-70.505945	-9.828169
08476	9.238693	-0.466491	2.774816	0.830780	-0.445471	0.327910	26.035037	-70.837128	-9.631406
08477	9.405850	-0.272781	2.563402	0.910078	-0.438876	0.377466	26.332222	-71.159762	-9.390739
08478	9.580799	-0.182375	2.194497	0.971283	-0.469955	0.426518	26.580137	-71.529456	-9.056135
08479	9.705825	-0.113206	2.036997	1.042249	-0.512986	0.462680	26.878427	-71.912736	-8.737914
08480	9.796950	0.024908	1.906858	1.131112	-0.539402	0.482743	27.179194	-72.334141	-8.361967
08481	9.810331	0.419086	1.808403	1.160955	-0.564799	0.494744	27.535074	-72.753332	-8.034302
08482	9.840371	0.825707	1.711131	1.114623	-0.602784	0.508467	27.833529	-73.214967	-7.673629
08483	9.926470	1.105458	1.873167	1.032612	-0.619472	0.524058	28.112463	-73.670764	-7.343989
08484	9.996376	1.238571	1.999665	0.948017	-0.599854	0.554966	28.223447	-74.144453	-6.889765
08485	10.046499	1.499366	2.130639	0.844745	-0.555887	0.568236	28.241171	-74.580581	-6.402192
08486	10.099577	1.723984	2.215422	0.716941	-0.499792	0.556685	28.090518	-75.004093	-5.814101
08487	10.077022	1.775503	2.275397	0.590254	-0.447239	0.530916	27.888766	-75.374689	-5.252259
08488	10.085865	1.630596	2.367047	0.469292	-0.398899	0.511745	27.537353	-75.733067	-4.608850
08489	10.013077	1.474824	2.378214	0.392557	-0.347842	0.490210	27.156041	-76.040759	-3.980433
08490	9.841462	1.256039	2.248203	0.349154	-0.328406	0.478651	26.680747	-76.351622	-3.283343
08491	9.800823	0.967709	2.157273	0.364756	-0.346934	0.449115	26.322642	-76.646076	-2.696837
08492	9.894421	0.815859	1.976401	0.422318	-0.368966	0.434408	25.980139	-76.963866	-2.095920
08493	10.188683	0.813013	1.954563	0.517936	-0.378872	0.411100	25.788230	-77.263808	-1.591358
08494	10.295543	0.623844	2.007445	0.666461	-0.379528	0.388125	25.663954	-77.574261	-1.072200
08495	10.259544	0.650725	2.054979	0.835122	-0.392032	0.362486	25.754670	-77.868594	-0.672097
08496	10.316127	0.652839	1.974227	0.985482	-0.421110	0.319345	26.005481	-78.183454	-0.347860
08497	10.395341	0.873388	1.876048	1.079882	-0.438913	0.267581	26.522783	-78.478649	-0.241064
08498	10.360982	1.197857	1.669973	1.099509	-0.423423	0.232031	27.070635	-78.772815	-0.152786
08499	10.331117	1.562015	1.503888	1.065740	-0.393672	0.194985	27.731529	-79.026254	-0.200804
08500	10.222537	1.972765	1.546536	0.964117	-0.358434	0.152831	28.349587	-79.265859	-0.265448
08501	10.071303	2.036813	1.742134	0.803158	-0.333856	0.117042	29.013286	-79.467556	-0.469337
08502	9.912317	1.777724	1.716157	0.633391	-0.305578	0.105121	29.524462	-79.666223	-0.618969
08503	9.791730	1.564875	1.620397	0.507497	-0.284260	0.107173	29.996509	-79.839727	-0.800007
08504	9.751495	1.259266	1.494525	0.417500	-0.275771	0.109618	30.348485	-80.023663	-0.915148
08505	9.749148	0.846558	1.427594	0.388921	-0.263647	0.116690	30.711024	-80.189341	-1.053806
08506	9.764030	0.601840	1.293877	0.401002	-0.264815	0.124456	31.009981	-80.371773	-1.123066
08507	9.813408	0.474432	1.024782	0.427827	-0.269034	0.119093	31.414072	-80.540534	-1.281122
08508	9.830875	0.672892	0.802413	0.462577	-0.275513	0.114924	31.812854	-80.724743	-1.420732
08509	9.864356	0.922415	0.650580	0.470958	-0.289756	0.090383	32.388970	-80.894416	-1.727869
08510	9.949523	1.149723	0.711266	0.437478	-0.301964	0.047372	33.059161	-81.070364	-2.153622
08511	10.031026	1.083755	0.859639	0.378932	-0.302351	0.014255	33.879213	-81.220809	-2.760728
08512	10.008174	0.875788	0.859975	0.328791	-0.293843	0.005381	34.648385	-81.377486	-3.348960
08513	9.963061	0.823616	0.878938	0.283478	-0.285312	0.009554	35.439772	-81.515793	-3.981911
08514	9.934824	1.002940	0.973559	0.221383	-0.278634	0.011890	36.142049	-81.665016	-4.565773
08515	9.846597	1.078498	1.101979	0.129491	-0.274964	0.007633	36.872836	-81.795478	-5.226194
08516	9.850480	0.895488	1.150093	0.038609	-0.275456	0.008154	37.521450	-81.939601	-5.861151
08517	9.866296	0.545378	1.152463	-0.010174	-0.272254	0.018921	38.173322	-82.070574	-6.522249
08518	9.876630	0.198646	0.946130	-0.010604	-0.281510	0.023774	38.804787	-82.220896	-7.166084
08519	9.895380	0.040437	0.771395	0.031607	-0.285151	0.037672	39.499968	-82.362280	-7.846289
08520	9.894281	0.077127	0.597808	0.063727	-0.294433	0.048027	40.180112	-82.525234	-8.496478
08521	9.996201	0.405413	0.428926	0.051343	-0.292776	0.060240	40.887269	-82.676127	-9.176883
08522	10.039194	0.950916	0.363923	-0.042550	-0.282753	0.066844	41.466096	-82.839416	-9.785993
08523	10.129490	1.347702	0.580108	-0.238181	-0.268567	0.071416	41.949227	-82.982413	-10.407356
08524	10.198193	1.245540	0.830799	-0.460994	-0.251462	0.088478	42.165177	-83.139432	-10.891987
08525	10.109160	0.792195	0.998664	-0.630969	-0.224892	0.122104	42.138108	-83.282793	-11.225806
08526	9.980250	0.280724	1.270190	-0.713016	-0.215316	0.144281	41.910448	-83.445495	-11.410524
08527	10.105773	-0.227574	1.670039	-0.671069	-0.208241	0.166331	41.645768	-83.598904	-11.528132
08528	10.289348	-0.631579	1.955931	-0.503756	-0.177931	0.178720	41.268503	-83.758796	-11.439834
08529	10.396247	-0.717469	2.200932	-0.270786	-0.130362	0.168791	40.941431	-83.879680	-11.263944
08530	10.366210	-0.483479	2.187717	-0.033390	-0.076960	0.132054	40.638854	-83.977989	-10.979133
08531	10.251468	-0.050265	1.911738	0.131017	-0.044029	0.091601	40.539448	-84.032384	-10.800754
08532	10.202178	0.181827	1.557309	0.200156	-0.017995	0.053564	40.469640	-84.075114	-10.616106
08533	10.057151	0.285775	1.142431	0.200025	-0.002488	0.043339	40.460116	-84.093438	-10.488378
08534	9.928009	0.192860	0.720256	0.159698	-0.000437	0.036877	40.368888	-84.122007	-10.304753
08535	9.813301	0.041558	0.309816	0.114223	0.010069	0.040107	40.277182	-84.133639	-10.143851
08536	9.670855	-0.048669	0.044829	0.104961	0.003738	0.040224	40.122448	-84.161678	-9.928383
08537	9.628131	-0.232799	-0.021206	0.105781	-0.000437	0.038669	40.068344	-84.177342	-9.810164
08538	9.530813	-0.334017	-0.071710	0.146202	-0.002766	0.044970	39.938105	-84.210500	-9.594845
08539	9.398610	-0.207849	0.072702	0.188850	-0.016213	0.044403	39.962489	-84.235198	-9.507703
08540	9.440571	-0.076706	0.225412	0.207923	-0.044517	0.044280	40.020357	-84.286719	-9.449130
08541	9.526402	0.174569	0.343291	0.202997	-0.063622	0.050805	40.199592	-84.334604	-9.509486
08542	9.544905	0.427573	0.445586	0.164744	-0.070041	0.039103	40.352781	-84.395608	-9.571988
08543	9.631004	0.574081	0.552937	0.107147	-0.081231	0.034549	40.620977	-84.445104	-9.776910
08544	9.731184	0.557852	0.664349	0.068870	-0.081629	0.029549	40.814344	-84.507579	-9.933621
08545	9.848473	0.419412	0.768018	0.052748	-0.072137	0.016094	41.107225	-84.546068	-10.194629
08546	9.864681	0.328613	0.763307	0.040251	-0.053428	0.007784	41.279212	-84.587758	-10.347917
08547	9.871567	0.408546	0.731861	0.040321	-0.048726	0.002347	41.540205	-84.610806	-10.584030
08548	9.922687	0.530961	0.748530	-0.001518	-0.040489	-0.010517	41.723962	-84.639722	-10.773579
08549	9.996518	0.504572	0.725679	-0.043698	-0.024881	-0.010750	41.902904	-84.647452	-10.975629
08550	9.986146	0.462974	0.683063	-0.074031	-0.014442	-0.012045	41.948879	-84.664484	-11.067765
08551	9.964877	0.395227	0.787046	-0.095274	-0.010720	-0.007880	42.028050	-84.667249	-11.199296
08552	10.008677	0.330788	0.827556	-0.098431	-0.002472	-0.009883	42.002273	-84.680085	-11.231002
08553	9.977336	0.265446	0.802050	-0.096680	0.012861	-0.009146	41.989585	-84.672349	-11.271096
08554	9.968581	0.296896	0.760195	-0.106275	0.027042	-0.016272	41.866440	-84.669918	-11.211249
08555	9.976835	0.205603	0.710661	-0.120049	0.033552	-0.014207	41.778936	-84.651449	-11.189663
08556	9.914645	0.120466	0.571686	-0.124792	0.042914	-0.009208	41.548747	-84.644995	-11.031266
08557	9.807453	0.132702	0.402580	-0.126899	0.044368	0.000093	41.349505	-84.627317	-10.901405
08558	9.736805	0.199341	0.413827	-0.149572	0.035983	0.000239	41.090966	-84.627369	-10.729695
08559	9.805304	0.057857	0.412555	-0.172411	0.027641	0.008659	40.894789	-84.620073	-10.629114
08560	9.826348	-0.165910	0.374946	-0.167274	0.026108	0.017579	40.586264	-84.631032	-10.416360
08561	9.755226	-0.207585	0.376064	-0.136399	0.014052	0.027099	40.379388	-84.636460	-10.284325
08562	9.753813	-0.177769	0.386641	-0.099295	-0.003644	0.027491	40.178474	-84.664088	-10.142530
08563	9.781779	-0.156168	0.425189	-0.053730	-0.018055	0.033217	40.116003	-84.685791	-10.107976
08564	9.749783	-0.025575	0.512452	-0.013628	-0.015274	0.028147	40.003794	-84.718888	-10.007301
08565	9.766105	0.047909	0.616865	0.008117	-0.019245	0.021701	40.035289	-84.736888	-10.031545
08566	9.781245	0.094727	0.633684	0.010959	-0.021357	0.024296	39.978167	-84.771583	-9.969080
08567	9.825729	0.133456	0.679905	0.005483	-0.018506	0.021356	40.006877	-84.789159	-9.992054
08568	9.848002	0.122050	0.653867	-0.010114	-0.008227	0.017632	39.914965	-84.815562	-9.907705
08569	9.864331	0.076989	0.563805	-0.025443	-0.009963	0.006623	39.962567	-84.823995	-9.967453
08570	9.889075	0.000772	0.517445	-0.024074	-0.008618	0.009377	39.902765	-84.847331	-9.926311
08571	9.909309	-0.023025	0.591622	-0.013258	-0.008203	0.007608	39.945589	-84.855379	-9.974264
08572	9.920999	-0.075213	0.524596	-0.008623	-0.004526	0.013540	39.856693	-84.878806	-9.892113
08573	9.931521	-0.034707	0.565606	0.008047	-0.008371	0.008660	39.907364	-84.887345	-9.935700
08574	10.018936	0.019804	0.574739	0.025801	0.009639	-0.000655	39.848122	-84.899381	-9.864480
08575	9.960233	0.096588	0.616135	0.044151	0.040289	-0.009611	39.809549	-84.879834	-9.797712
08576	9.877860	0.156610	0.597521	0.064600	0.063367	-0.011979	39.608010	-84.864030	-9.561787
08577	9.842256	0.191982	0.608034	0.071488	0.076152	-0.014173	39.464001	-84.826968	-9.373439
08578	9.834530	0.252177	0.659400	0.060060	0.088039	-0.011128	39.160475	-84.800315	-9.038495
08579	9.787070	0.278815	0.640424	0.035040	0.090975	-0.018457	38.963573	-84.754999	-8.817998
08580	9.835926	0.190058	0.655769	0.014564	0.077442	-0.018591	38.718529	-84.730087	-8.567857
08581	9.863664	0.156605	0.605550	-0.010873	0.074651	-0.015941	38.552533	-84.692854	-8.404808
08582	9.828695	0.052641	0.598015	-0.016362	0.070331	-0.014962	38.304334	-84.672422	-8.167634
08583	9.816116	-0.061286	0.565190	-0.012868	0.061738	-0.007040	38.147659	-84.644077	-8.015095
08584	9.796225	-0.117453	0.574418	-0.002381	0.044454	0.002247	37.924560	-84.641262	-7.796190
08585	9.821046	-0.193318	0.533276	0.020317	0.036077	0.008610	37.810037	-84.629966	-7.666900
08586	9.840437	-0.138025	0.532761	0.038848	0.034292	0.016222	37.580342	-84.636754	-7.417137
08587	9.802302	-0.039739	0.560060	0.037493	0.032934	0.013460	37.464546	-84.628534	-7.276697
08588	9.747956	0.042481	0.578482	0.041064	0.029097	0.015993	37.255024	-84.637618	-7.045947
08589	9.740339	0.099410	0.624310	0.030146	0.023950	0.023127	37.121417	-84.636797	-6.891861
08590	9.792263	0.107108	0.718745	0.022552	0.020032	0.021431	36.906334	-84.651620	-6.668368
08591	9.808394	0.121072	0.729107	0.020308	0.018065	0.025596	36.776058	-84.654285	-6.523309
08592	9.810986	0.052855	0.710303	0.023001	0.014913	0.024499	36.562537	-84.672403	-6.300831
08593	9.842629	-0.023093	0.720894	0.031990	0.011921	0.020892	36.483785	-84.676243	-6.200818
08594	9.820392	0.063637	0.667075	0.036388	0.011098	0.017956	36.321322	-84.693688	-6.023434
08595	9.830473	0.103872	0.709649	0.031314	0.011237	0.019508	36.250850	-84.697361	-5.932145
08596	9.817624	0.126527	0.689538	0.025228	0.011015	0.013716	36.101348	-84.713321	-5.774360
08597	9.811450	0.151268	0.723612	0.015965	0.011917	0.009903	36.067071	-84.713433	-5.728270
08598	9.772752	0.143990	0.740748	0.008796	0.012442	0.008773	35.926691	-84.727357	-5.585107
08599	9.772681	0.143195	0.741838	-0.000761	0.009967	0.008108	35.898685	-84.727786	-5.554955
08600	9.752903	0.086162	0.746593	-0.004259	0.001866	0.006636	35.798741	-84.745638	-5.462129
08601	9.781868	-0.089326	0.670790	-0.003076	-0.014499	0.012166	35.837897	-84.758815	-5.500770
08602	9.869236	-0.202706	0.573563	0.006876	-0.024269	0.019872	35.770990	-84.793187	-5.435396
08603	9.918870	-0.216742	0.498699	0.006995	-0.038606	0.019499	35.867624	-84.820048	-5.525970
08604	10.001060	-0.198327	0.439643	0.009114	-0.047236	0.014137	35.915588	-84.863630	-5.571660
08605	9.958811	-0.107262	0.481368	0.004041	-0.047095	0.015689	36.064136	-84.893147	-5.716060
08606	9.916906	-0.154989	0.505742	0.009702	-0.040486	0.007833	36.121045	-84.931518	-5.772087
08607	9.809550	-0.127415	0.514557	0.024825	-0.036145	0.006040	36.292960	-84.952685	-5.927990
08608	9.778918	-0.026094	0.588974	0.037170	-0.032098	0.000186	36.374723	-84.984628	-5.994238
08609	9.778669	0.034756	0.683272	0.043901	-0.027530	-0.001779	36.567696	-84.999126	-6.160312
08610	9.797371	0.124489	0.686657	0.049361	-0.020862	-0.001346	36.621776	-85.025235	-6.193304
08611	9.817295	0.180980	0.680289	0.037260	-0.019131	0.002803	36.755448	-85.037413	-6.303680
08612	9.886355	0.146421	0.682063	0.023346	-0.013631	0.001131	36.753853	-85.061211	-6.293308
08613	9.926616	0.059399	0.557390	0.021785	-0.013628	-0.003880	36.893197	-85.068576	-6.418285
08614	9.921958	0.052692	0.579097	0.008066	-0.009477	-0.003287	36.889748	-85.088679	-6.417774
08615	9.984077	0.016735	0.527718	0.002543	-0.004209	-0.004800	36.985868	-85.091417	-6.510444
08616	9.930449	-0.038257	0.525333	0.005363	0.003224	-0.004716	36.937705	-85.105495	-6.464137
08617	9.848570	-0.057435	0.580819	0.010241	0.004420	-0.008545	37.023657	-85.103015	-6.542189
08618	9.834444	0.000750	0.570462	0.011498	0.011856	-0.013471	36.990280	-85.110109	-6.508300
08619	9.789832	0.021709	0.620534	0.011552	0.009451	-0.014915	37.090574	-85.103149	-6.600008
08620	9.770936	0.072731	0.633385	0.017547	0.014472	-0.006258	37.011027	-85.111546	-6.516553
08621	9.732262	0.067225	0.650902	0.010910	0.014631	-0.009701	37.062073	-85.104043	-6.559218
08622	9.795584	-0.001383	0.591401	0.014677	0.009441	-0.004898	36.993409	-85.115229	-6.488060
08623	9.825102	-0.069464	0.524781	0.026445	0.006718	-0.004465	37.057180	-85.113180	-6.534578
08624	9.856360	-0.003568	0.552408	0.028833	0.009715	-0.004940	36.994978	-85.124308	-6.461911
08625	9.867861	0.006361	0.584579	0.025372	0.008738	-0.010367	37.081494	-85.119324	-6.531889
08626	9.891384	-0.035333	0.551078	0.025319	0.011140	-0.008928	37.032238	-85.128456	-6.474165
08627	9.869011	-0.024762	0.576862	0.031169	0.015110	-0.003980	37.061912	-85.122789	-6.483775
08628	9.863759	0.107845	0.618445	0.020082	0.018508	-0.003045	36.947516	-85.130641	-6.363673
08629	9.854164	0.094142	0.665810	0.012475	0.014614	-0.004708	36.972338	-85.124979	-6.379179
08630	9.876365	0.084805	0.642998	0.003289	0.018987	-0.003359	36.847558	-85.132466	-6.258197
08631	9.843704	0.052779	0.627971	-0.002956	0.016446	-0.002276	36.843030	-85.126829	-6.253137
08632	9.867238	0.010121	0.594945	-0.000069	0.011936	-0.001102	36.732055	-85.138421	-6.146594
08633	9.850895	-0.005839	0.587771	-0.006024	0.012770	-0.003175	36.745371	-85.134191	-6.161222
08634	9.833247	0.011490	0.590640	-0.006900	0.013442	-0.006813	36.654072	-85.142847	-6.081762
08635	9.834472	-0.021124	0.582013	0.000417	0.013959	-0.001994	36.659816	-85.138502	-6.085103
08636	9.835706	-0.053949	0.573326	0.001153	0.012231	-0.002060	36.551857	-85.149674	-5.981016
08637	9.800485	-0.020122	0.577738	0.002514	0.013582	0.000686	36.545717	-85.146444	-5.971238
08638	9.776747	0.022667	0.613506	-0.004662	0.014119	-0.000432	36.417065	-85.157476	-5.848205
08639	9.782749	-0.003251	0.582045	-0.004661	0.014118	-0.000432	36.410653	-85.153646	-5.842295
08640	9.777895	-0.010378	0.606193	-0.005147	0.012093	0.000458	36.283804	-85.165649	-5.724309
08641	9.789316	-0.001383	0.638400	-0.002941	0.006910	0.000262	36.303396	-85.165409	-5.743522
08642	9.803377	-0.058391	0.650462	0.000182	0.008179	-0.000278	36.198120	-85.178919	-5.644734
08643	9.865632	-0.094738	0.600579	0.019182	0.002517	-0.000148	36.250149	-85.180598	-5.683794
08644	9.862960	-0.028351	0.621134	0.019226	0.009640	-0.004131	36.169740	-85.192232	-5.598237
08645	9.872496	-0.013486	0.575985	0.018171	0.002132	-0.007491	36.263009	-85.191632	-5.679279
08646	9.885259	-0.036680	0.597807	0.016645	0.007989	-0.005924	36.196768	-85.203383	-5.610157
08647	9.846588	-0.042363	0.614731	0.013273	0.010470	-0.006211	36.246536	-85.199388	-5.650377
08648	9.845210	-0.008609	0.625496	0.012842	0.006042	-0.006758	36.189938	-85.211985	-5.591085
08649	9.788977	0.002523	0.643565	0.013036	0.004694	-0.004492	36.253335	-85.211269	-5.645131
08650	9.784160	-0.004085	0.666844	0.014452	0.003642	-0.003184	36.186312	-85.225770	-5.578873
08651	9.828876	-0.023282	0.618480	0.013717	0.005369	-0.003120	36.239741	-85.225233	-5.622541
08652	9.845097	-0.006814	0.627297	0.012009	0.003049	-0.001271	36.162404	-85.240855	-5.545279
08653	9.888461	0.006787	0.589238	0.007595	0.013412	-0.000888	36.167215	-85.237382	-5.543695
08654	9.901168	-0.016718	0.611928	0.007265	0.013700	-0.006858	36.073921	-85.246093	-5.454147
