// Start Time: Unknown
// Update Rate: 100.0Hz
// Filter Profile: human (46.1)
// Firmware Version: 4.3.5
PacketCounter,Acc_X,Acc_Y,Acc_Z,Gyr_X,Gyr_Y,Gyr_Z
60259,9.794542,-1.530678,0.757301,0.057801,0.006346,-0.015955
60260,9.774580,-1.520088,0.913086,0.035828,-0.000221,-0.012589
60261,9.839660,-1.807286,0.911833,0.044842,0.000988,-0.012596
60262,9.831485,-1.846160,0.854649,0.167762,0.023594,-0.005442
60263,9.765953,-1.501238,0.835857,0.227005,0.037233,-0.010668
60264,9.779564,-1.372993,0.825485,0.184713,0.047019,-0.022740
60265,9.741959,-1.446349,0.702047,0.133807,0.063751,-0.016553
60266,9.652216,-1.503732,0.524722,0.101371,0.063996,-0.014352
60267,9.695299,-1.453267,0.472662,0.072309,0.055964,-0.010533
60268,9.768972,-1.361205,0.436524,0.050643,0.056120,-0.009094
60269,9.800730,-1.253799,0.543845,-0.012330,0.063018,-0.004080
60270,9.822434,-1.141253,0.618555,-0.083334,0.070890,-0.001009
60271,9.755207,-1.084618,0.673285,-0.175553,0.077969,-0.002047
60272,9.761665,-1.162992,0.680766,-0.262104,0.084249,0.002744
60273,9.746937,-1.236807,0.676319,-0.314811,0.082248,0.008806
60274,9.718775,-1.265267,0.720375,-0.369173,0.087204,0.014748
60275,9.720163,-1.370748,0.721721,-0.407498,0.084502,0.027681
60276,9.675547,-1.426350,0.781927,-0.434104,0.079891,0.028869
60277,9.723545,-1.521277,0.805364,-0.451121,0.072935,0.033424
60278,9.754980,-1.532896,0.794633,-0.451994,0.066707,0.030786
60279,9.739831,-1.610417,0.783162,-0.448778,0.066656,0.029459
60280,9.780973,-1.628220,0.804133,-0.439192,0.064015,0.020600
60281,9.749693,-1.674886,0.784382,-0.429277,0.058725,0.018384
60282,9.721250,-1.706032,0.822035,-0.407102,0.057699,0.013821
60283,9.727387,-1.787494,0.819226,-0.378687,0.052260,0.013882
60284,9.712585,-1.807509,0.780884,-0.348780,0.043574,0.008484
60285,9.744639,-1.815443,0.768345,-0.313291,0.040657,0.007045
60286,9.711683,-1.868830,0.800923,-0.275034,0.034943,0.008331
60287,9.722842,-1.869815,0.777884,-0.233883,0.030279,0.004776
60288,9.701596,-1.865558,0.765542,-0.190854,0.019667,0.002386
60289,9.689862,-1.923842,0.808776,-0.149736,0.015989,-0.000021
60290,9.729157,-1.951036,0.770660,-0.097852,0.001869,-0.000505
60291,9.734000,-1.927486,0.773789,-0.053263,-0.000507,-0.012080
60292,9.727427,-1.904852,0.798864,-0.005023,-0.006410,-0.011789
60293,9.723018,-1.926963,0.793887,0.040309,-0.009517,-0.014265
60294,9.723393,-1.869853,0.770868,0.089565,-0.013159,-0.015807
60295,9.723818,-1.867442,0.771348,0.129588,-0.019089,-0.016420
60296,9.722152,-1.764223,0.779143,0.162570,-0.021796,-0.018540
60297,9.771375,-1.685250,0.729026,0.182056,-0.020705,-0.019242
60298,9.765069,-1.659949,0.755797,0.203698,-0.026441,-0.022110
60299,9.765559,-1.601219,0.733092,0.204878,-0.024170,-0.023885
60300,9.766115,-1.597370,0.734075,0.209483,-0.023552,-0.023802
60301,9.724654,-1.581203,0.713488,0.213899,-0.023950,-0.024952
60302,9.711558,-1.533225,0.765772,0.211350,-0.024881,-0.022250
60303,9.697890,-1.545601,0.729967,0.202199,-0.027163,-0.021262
60304,9.730923,-1.546679,0.719961,0.195420,-0.022931,-0.021531
60305,9.770545,-1.515591,0.660079,0.175793,-0.024108,-0.018580
60306,9.798615,-1.486229,0.621608,0.149663,-0.015243,-0.021121
60307,9.803939,-1.513997,0.650729,0.130055,-0.012639,-0.025793
60308,9.820515,-1.485747,0.634216,0.104236,-0.001746,-0.025919
60309,9.809431,-1.483777,0.657228,0.077276,0.004946,-0.028818
60310,9.756255,-1.469970,0.658563,0.048794,0.008284,-0.028931
60311,9.740462,-1.492112,0.677551,0.026890,0.008268,-0.023135
60312,9.757150,-1.519364,0.685609,0.003598,0.008682,-0.022140
60313,9.715295,-1.505599,0.664962,-0.017395,0.016547,-0.019034
60314,9.724976,-1.511494,0.698372,-0.034587,0.012497,-0.011188
60315,9.713572,-1.512034,0.720296,-0.062510,0.011278,-0.011432
60316,9.708694,-1.480824,0.691873,-0.081924,0.012112,-0.006095
60317,9.718530,-1.542801,0.748572,-0.097279,0.011499,-0.003198
60318,9.718490,-1.543248,0.748169,-0.107382,0.012698,-0.003377
60319,9.755856,-1.579517,0.765546,-0.107726,0.013544,0.002196
60320,9.746465,-1.627930,0.757232,-0.109242,0.015856,0.004207
60321,9.750847,-1.605667,0.761324,-0.101693,0.020395,0.007473
60322,9.790055,-1.633587,0.725588,-0.104482,0.022229,0.001299
60323,9.768785,-1.628717,0.715503,-0.104900,0.028723,0.006082
60324,9.745457,-1.632899,0.759501,-0.102785,0.027548,0.003177
60325,9.731090,-1.650055,0.724132,-0.105962,0.030215,0.002564
60326,9.675166,-1.649839,0.778848,-0.096400,0.028821,0.007092
60327,9.697909,-1.648262,0.736981,-0.089709,0.024524,0.009603
60328,9.713946,-1.679646,0.744426,-0.084788,0.021504,0.012876
60329,9.713595,-1.681394,0.745054,-0.080735,0.020071,0.010430
60330,9.724792,-1.681733,0.723930,-0.071446,0.012895,0.017878
60331,9.698836,-1.701127,0.708857,-0.076398,0.014000,0.009999
60332,9.719552,-1.708796,0.719793,-0.068543,0.012953,0.011881
60333,9.705186,-1.726340,0.683292,-0.060695,0.011904,0.013762
60334,9.725696,-1.679331,0.670512,-0.053551,0.008715,0.015325
60335,9.713789,-1.682936,0.691951,-0.049427,0.009205,0.017504
60336,9.690256,-1.688508,0.734816,-0.046301,0.007448,0.021528
60337,9.689853,-1.691005,0.734384,-0.041063,-0.001147,0.023378
60338,9.717285,-1.666437,0.695277,-0.033397,0.001540,0.019853
60339,9.742584,-1.651130,0.710217,-0.028485,0.003258,0.018945
60340,9.763166,-1.604140,0.697555,-0.036755,0.007956,0.013845
60341,9.791010,-1.574465,0.770927,-0.051718,0.007459,0.014586
60342,9.900011,-1.587818,0.717754,-0.052862,0.008960,0.011040
60343,9.934817,-1.579659,0.765616,-0.056513,0.015271,0.007199
60344,10.032457,-1.648440,0.758023,-0.063974,0.018398,-0.009019
60345,10.174640,-1.659161,0.807617,-0.057876,0.030998,-0.023466
60346,10.167863,-1.635057,0.836077,-0.076119,0.041696,-0.032867
60347,10.063306,-1.767077,0.855236,-0.061788,0.050449,-0.021963
60348,9.983768,-1.718005,0.821483,0.008661,0.062691,0.003152
60349,9.789564,-1.573427,0.791160,0.047369,0.065670,0.038813
60350,9.753341,-1.418281,0.791679,0.070399,0.045195,0.067832
60351,9.905487,-1.381789,0.799295,0.072581,0.012643,0.113273
60352,9.940810,-1.489164,0.729379,0.063595,-0.009537,0.142066
60353,9.817261,-1.607125,0.738996,0.057318,-0.001353,0.148923
60354,9.599847,-1.801988,0.719822,0.065575,-0.007976,0.149435
60355,9.435560,-2.006290,0.701090,0.067638,-0.009121,0.129686
60356,9.355467,-2.124500,0.678536,0.100065,-0.031048,0.129625
60357,9.395312,-2.093182,0.675953,0.130150,-0.038659,0.120957
60358,9.407888,-2.032240,0.688214,0.141462,-0.036662,0.103732
60359,9.371127,-2.049630,0.640250,0.138474,-0.032969,0.087527
60360,9.428649,-1.989388,0.620359,0.128546,-0.041111,0.076689
60361,9.425853,-1.949105,0.649287,0.100490,-0.027090,0.052607
60362,9.420809,-1.921571,0.620797,0.058660,-0.013036,0.037420
60363,9.521171,-1.869661,0.623074,0.008820,-0.005487,0.016456
60364,9.639344,-1.892248,0.602464,-0.029499,0.008840,0.007764
60365,9.811206,-1.920422,0.694600,-0.045204,0.016708,0.003204
60366,9.926750,-1.796228,0.711215,-0.066656,0.033009,0.001098
60367,10.046436,-1.703786,0.756782,-0.107121,0.039982,0.007134
60368,10.204337,-1.694853,0.790006,-0.126834,0.037955,0.025657
60369,10.512928,-1.705280,1.015656,-0.120498,0.036284,0.057461
60370,11.004587,-1.694106,1.289638,-0.072503,0.055317,0.139208
60371,11.436885,-1.486357,1.745685,-0.010104,0.085727,0.242190
60372,11.921095,-1.148787,2.191829,0.026119,0.145784,0.356307
60373,12.240852,-1.200104,2.675311,0.109746,0.237717,0.439577
60374,12.257458,-1.141402,3.048369,0.297786,0.405670,0.491348
60375,12.229443,-0.870581,3.744901,0.449054,0.614224,0.497145
60376,12.546244,-0.841789,4.403267,0.489958,0.797845,0.500040
60377,13.131748,-1.438255,4.783350,0.459276,1.012266,0.544297
60378,13.903049,-2.684196,5.034148,0.386586,1.263160,0.673806
60379,14.589091,-4.362745,4.510353,0.518188,1.515212,0.849995
60380,15.228251,-5.957546,4.121265,0.858572,1.746099,1.099533
60381,15.545859,-7.340612,3.531002,1.375568,1.914647,1.314668
60382,15.708578,-8.082901,3.037482,2.000280,2.119491,1.462339
60383,15.520681,-7.904936,3.095931,2.562729,2.283012,1.620919
60384,15.321791,-7.203848,3.193383,2.973665,2.445627,1.817258
60385,14.671454,-5.957121,3.703030,3.137851,2.659480,2.005313
60386,14.435994,-5.546855,4.317821,2.988481,2.783322,2.172212
60387,14.264586,-5.456346,4.458214,2.869710,2.945334,2.327752
60388,13.330757,-5.216422,4.678397,2.662899,3.157095,2.517385
60389,12.215376,-5.641138,4.911650,2.269880,3.285526,2.648236
60390,11.176597,-5.365444,5.038159,2.095514,3.411998,2.721660
60391,9.850489,-4.814006,5.268738,1.819567,3.539116,2.784140
60392,8.396750,-4.774713,5.450433,1.421386,3.609908,2.849729
60393,7.121698,-4.612954,5.481640,1.151242,3.669234,2.886972
60394,6.042509,-4.689879,5.606316,0.793259,3.674159,2.931315
60395,5.086934,-4.832518,5.478825,0.533465,3.696212,3.014859
60396,4.131347,-4.515522,5.516879,0.340594,3.718273,3.061848
60397,3.281531,-4.571970,5.346071,-0.005257,3.686983,3.151032
60398,2.519692,-4.474519,4.896041,-0.173157,3.644377,3.255614
60399,1.875550,-3.842597,4.983681,-0.387819,3.650872,3.362778
60400,1.003004,-4.130902,5.133537,-0.855877,3.647047,3.529684
60401,0.163714,-4.643154,4.922036,-1.074544,3.614995,3.728272
60402,-0.741554,-4.565031,5.049320,-1.175034,3.564600,3.919789
60403,-1.640837,-4.353749,4.972952,-1.215750,3.490341,4.070099
60404,-2.345212,-4.688605,5.151574,-1.368891,3.403094,4.213924
60405,-2.915795,-6.228702,4.820067,-1.493174,3.278402,4.391111
60406,-3.368096,-7.625407,4.607556,-1.140138,3.161098,4.562036
60407,-3.822814,-8.432794,4.870718,-0.709337,3.027377,4.680904
60408,-4.131614,-8.906844,4.933659,-0.131255,2.898781,4.752257
60409,-4.201091,-8.756946,5.372331,0.494926,2.784464,4.787874
60410,-4.023225,-8.442970,5.862037,1.027841,2.719897,4.810512
60411,-3.825283,-7.922095,6.457658,1.509490,2.701148,4.801425
60412,-3.441932,-7.399732,7.151084,1.856377,2.719088,4.771331
60413,-3.396340,-6.959659,7.342462,2.167859,2.778708,4.707981
60414,-3.744816,-6.590186,7.579226,2.384939,2.826116,4.608026
60415,-4.209935,-6.309106,7.656078,2.606096,2.829815,4.474729
60416,-4.558371,-5.941747,7.915822,2.772262,2.803037,4.307745
60417,-4.951508,-5.240880,7.912290,3.018865,2.764862,4.108970
60418,-5.300102,-3.788104,7.667588,3.271221,2.696093,3.846722
60419,-5.743257,-2.262394,7.611348,3.196893,2.616634,3.552920
60420,-6.534402,-1.107108,7.892294,2.845949,2.474724,3.285237
60421,-7.117284,-0.433561,8.065927,2.316735,2.242197,2.995822
60422,-7.506938,-0.224176,7.951843,1.762993,1.988691,2.706648
60423,-7.891092,-0.141627,7.580706,1.386987,1.699813,2.406520
60424,-8.231738,0.100048,7.461256,1.057753,1.388082,2.084915
60425,-8.388502,0.395796,7.647448,0.752862,1.067100,1.780837
60426,-8.456389,0.667736,7.741853,0.340221,0.751822,1.493986
60427,-8.284882,0.540866,8.467770,-0.269816,0.471426,1.254692
60428,-7.816264,-0.525022,8.944981,-0.935752,0.219490,1.046499
60429,-7.333251,-1.754927,8.605857,-1.332441,0.010384,0.887059
60430,-6.929990,-3.287436,8.037950,-1.585260,-0.195730,0.726722
60431,-6.689734,-4.967753,7.155562,-1.435809,-0.398669,0.539843
60432,-6.597060,-6.350752,6.696038,-0.861487,-0.614154,0.308701
60433,-6.152622,-6.775298,6.844685,-0.039769,-0.823058,0.014644
60434,-5.186725,-6.098922,7.350382,0.697415,-0.945152,-0.232721
60435,-4.442813,-4.624277,7.435240,1.173688,-1.015574,-0.416235
60436,-4.055910,-2.893262,7.551167,1.338363,-1.112704,-0.554416
60437,-3.762500,-1.876656,7.214523,1.090652,-1.241113,-0.709752
60438,-3.615202,-2.199632,6.698121,0.752301,-1.398231,-0.844390
60439,-3.254974,-2.966901,6.239626,0.749695,-1.547686,-0.996576
60440,-2.772589,-3.623463,6.158939,0.850230,-1.684000,-1.191971
60441,-1.993805,-3.695684,6.238447,1.128005,-1.801501,-1.339732
60442,-1.260882,-2.960970,6.557561,1.329747,-1.902316,-1.469454
60443,-0.490163,-2.163116,6.765904,1.333485,-1.969694,-1.598653
60444,0.186024,-1.494991,6.695682,1.194430,-2.040465,-1.684139
60445,0.730218,-1.527397,6.655334,0.975662,-2.113646,-1.724349
60446,1.123561,-1.994484,6.483454,0.867007,-2.178383,-1.776064
60447,1.506708,-2.676744,6.430628,0.923167,-2.240249,-1.836246
60448,2.023397,-3.183807,6.636984,1.163383,-2.282786,-1.892231
60449,2.596722,-3.306425,6.835834,1.523740,-2.283621,-1.914273
60450,2.870740,-2.941596,7.040986,1.925653,-2.243741,-1.918587
60451,2.944799,-2.172734,7.553150,2.232879,-2.231119,-1.892452
60452,3.280970,-1.346514,7.835124,2.371382,-2.171279,-1.869999
60453,3.484547,-0.785052,8.131819,2.314635,-2.047245,-1.826037
60454,3.532901,-0.688723,8.339669,2.175804,-1.913828,-1.751970
60455,3.652877,-0.876884,8.505738,2.059800,-1.750900,-1.673258
60456,3.545908,-0.920259,8.821029,2.017782,-1.558358,-1.572656
60457,3.274861,-0.612588,8.999785,1.972486,-1.342614,-1.470282
60458,2.749364,-0.088440,8.982463,1.853463,-1.132324,-1.344073
60459,2.114979,0.608381,9.029392,1.630951,-0.947368,-1.222678
60460,1.497351,1.109041,9.038314,1.288530,-0.797812,-1.088451
60461,1.056714,1.493273,9.185757,0.870383,-0.687496,-0.951099
60462,0.811594,1.378242,9.343207,0.421115,-0.590361,-0.796013
60463,0.753544,0.890755,9.516676,0.097372,-0.479245,-0.641768
60464,0.723832,0.291409,9.683236,-0.096614,-0.361575,-0.498905
60465,0.674150,-0.322211,9.760724,-0.166485,-0.249309,-0.366200
60466,0.553664,-0.761655,9.664376,-0.122190,-0.157174,-0.239744
60467,0.380408,-0.988000,9.531512,0.005154,-0.089918,-0.126414
60468,0.190269,-0.908659,9.316934,0.118306,-0.051512,-0.025891
60469,0.064876,-0.706602,9.117021,0.218181,-0.016308,0.051467
60470,-0.087956,-0.433228,8.994627,0.298997,-0.004653,0.107091
60471,-0.315616,-0.197991,9.190727,0.339963,-0.005307,0.141520
60472,-0.402134,0.138164,9.404671,0.371474,-0.008834,0.157886
60473,-0.436634,0.965667,9.840073,0.324136,0.027829,0.146459
60474,-0.592950,1.888006,10.406630,0.064085,0.056639,0.119406
60475,-0.698838,2.908031,10.781927,-0.405589,0.115966,0.101714
60476,-0.842358,3.711218,11.282163,-1.109670,0.184047,0.091417
60477,-0.723491,4.406435,11.441355,-2.001196,0.258657,0.054903
60478,-0.315956,5.069053,11.325979,-2.906450,0.445646,0.011925
60479,-0.288980,5.325715,11.120705,-4.061458,0.646725,-0.013967
60480,-0.289543,4.941188,10.518135,-5.258240,0.805813,-0.022788
60481,-0.324223,3.945808,9.542947,-6.448563,0.950455,-0.021422
60482,-0.704780,2.157645,8.444320,-7.427501,1.062615,-0.004318
60483,-1.002594,0.205411,7.925798,-8.107991,1.117288,0.016000
60484,-0.856058,-1.641712,6.936751,-8.422010,1.219243,0.020951
60485,-1.078550,-3.061408,5.885319,-8.446965,1.340613,0.025108
60486,-1.552027,-4.381431,5.327161,-8.400100,1.356828,0.024942
60487,-1.669299,-5.449793,4.898593,-8.187689,1.341047,0.022211
60488,-1.899195,-6.322461,4.484257,-7.888705,1.352929,0.029531
60489,-2.193788,-7.127576,3.980973,-7.500029,1.344981,0.006737
60490,-2.553759,-7.842091,3.737160,-7.010282,1.287455,-0.055644
60491,-2.436668,-7.927887,4.192143,-6.383577,1.256434,-0.098649
60492,-1.991851,-7.372369,3.580671,-5.877646,1.277014,-0.152083
60493,-1.812075,-7.056120,3.183391,-5.652064,1.308086,-0.231745
60494,-1.724424,-7.032218,2.809194,-5.460831,1.295177,-0.303430
60495,-1.622277,-7.482897,1.800111,-5.303214,1.274069,-0.375155
60496,-1.881957,-8.319888,1.734252,-5.055753,1.217959,-0.463998
60497,-1.694022,-8.256051,0.934738,-4.710663,1.219531,-0.499646
60498,-2.297901,-8.664228,0.223997,-4.719185,1.149719,-0.470770
60499,-2.600038,-9.608335,-0.646182,-4.568436,1.019394,-0.462397
60500,-2.697848,-10.614231,-1.298830,-4.204384,0.899356,-0.429822
60501,-2.821638,-11.213510,-1.433418,-3.746236,0.788445,-0.391579
60502,-2.459692,-11.391978,-1.497678,-3.076473,0.704062,-0.374315
60503,-2.331427,-10.800689,-1.568917,-2.783720,0.676374,-0.314840
60504,-2.285113,-11.121580,-1.873532,-2.489416,0.592735,-0.264643
60505,-2.228741,-11.045200,-2.086068,-2.229104,0.523895,-0.215313
60506,-2.179697,-10.566459,-2.162121,-1.920057,0.470032,-0.166300
60507,-2.343608,-10.290063,-1.938839,-1.856809,0.386978,-0.133221
60508,-2.322992,-9.914400,-2.010920,-1.799995,0.337018,-0.091684
60509,-2.371315,-10.183074,-2.012320,-1.802717,0.261696,-0.081817
60510,-2.277616,-10.213915,-2.126106,-1.733055,0.211839,-0.067610
60511,-2.222276,-10.476312,-2.186596,-1.575901,0.157934,-0.066436
60512,-2.169811,-10.276952,-2.171001,-1.408351,0.113839,-0.068395
60513,-2.144997,-10.192377,-2.226880,-1.234501,0.085407,-0.069960
60514,-2.371201,-10.426578,-2.354652,-1.145530,0.035732,-0.075399
60515,-2.497313,-10.960163,-2.604630,-0.974261,-0.035077,-0.089007
60516,-2.444596,-11.508393,-2.727173,-0.675550,-0.098582,-0.099792
60517,-2.393748,-11.973280,-2.731268,-0.266212,-0.144126,-0.100250
60518,-2.361559,-12.242578,-2.706048,0.215422,-0.192679,-0.110326
60519,-2.285262,-12.614097,-2.704041,0.730900,-0.225466,-0.109588
60520,-2.365516,-12.822570,-2.608331,1.288084,-0.266265,-0.097441
60521,-2.385974,-12.832529,-2.502427,1.878497,-0.307647,-0.088596
60522,-2.201672,-12.604701,-2.308602,2.415949,-0.333730,-0.069404
60523,-2.205327,-12.598250,-2.111003,2.908542,-0.352780,-0.058064
60524,-2.372694,-12.569465,-2.032038,3.456046,-0.416243,-0.055142
60525,-2.607750,-12.597279,-1.837532,3.987726,-0.531577,-0.029711
60526,-2.643582,-12.533612,-1.696087,4.631659,-0.648371,-0.001219
60527,-2.635129,-11.981230,-1.374311,5.286325,-0.756078,0.009981
60528,-2.597892,-11.480942,-1.246643,5.852748,-0.886640,0.015848
60529,-2.351609,-10.647755,-1.183777,6.297293,-0.997060,0.016534
60530,-2.252085,-9.710102,-0.701501,6.563616,-1.110268,-0.010571
60531,-1.929475,-8.964201,-0.161572,6.751064,-1.216714,-0.002703
60532,-1.330395,-8.413230,0.865813,6.901674,-1.249118,-0.001989
60533,-0.836282,-7.860555,1.778550,7.067597,-1.206409,-0.003137
60534,-0.751941,-7.230590,2.459672,7.186975,-1.143982,-0.004541
60535,-0.676078,-6.460849,2.978069,7.197907,-1.108690,-0.022311
60536,-0.820383,-5.812713,3.451881,7.080807,-1.081326,-0.033325
60537,-1.053182,-5.298195,3.919087,6.922860,-1.103163,-0.036648
60538,-0.999469,-4.727646,4.279104,6.778829,-1.080537,-0.047112
60539,-1.057131,-4.278546,4.692042,6.587866,-1.039393,-0.052048
60540,-1.197256,-3.893017,5.214272,6.424020,-1.030604,-0.054715
60541,-1.034233,-3.447009,6.032769,6.249070,-1.040532,-0.057601
60542,-0.626356,-2.858397,6.648293,6.073054,-0.975046,-0.050367
60543,-0.455860,-1.874263,7.254359,5.856535,-0.854733,-0.049471
60544,-0.248921,-0.958358,7.687153,5.441857,-0.753774,-0.047734
60545,-0.486664,-0.870635,7.290538,4.999934,-0.691497,0.012370
60546,-0.611885,-1.421685,7.124455,4.686650,-0.717874,0.064776
60547,-0.289760,-2.035851,7.407850,4.551007,-0.733410,0.090221
60548,0.040994,-1.879438,7.935190,4.653251,-0.693791,0.136638
60549,0.528161,-0.703189,8.619483,4.642973,-0.574684,0.155402
60550,0.425039,0.895858,9.284545,4.503301,-0.415561,0.162727
60551,-0.017891,2.596292,9.715065,4.033308,-0.307825,0.158793
60552,-0.416871,3.624489,10.038751,3.209651,-0.265289,0.185323
60553,-0.613569,3.796488,10.186396,2.312837,-0.207780,0.216331
60554,-0.718394,3.665830,10.425645,1.508560,-0.126684,0.240218
60555,-0.597944,3.010181,10.729362,0.728231,-0.068622,0.270862
60556,-0.424796,2.014173,10.554500,0.096327,-0.033254,0.283672
60557,-0.241991,0.976197,10.394804,-0.308047,0.015569,0.293487
60558,-0.350060,0.151270,10.126196,-0.463921,0.042810,0.285368
60559,-0.487472,-0.011072,9.903667,-0.396995,0.054725,0.249414
60560,-0.645969,0.045993,9.897743,-0.337736,0.041043,0.185959
60561,-0.587921,0.098159,9.917280,-0.283668,0.006733,0.140466
60562,-0.456633,0.083766,10.014751,-0.234205,-0.003303,0.120485
60563,-0.388358,0.085272,10.086489,-0.139782,-0.000995,0.119340
60564,-0.321189,0.014282,10.131324,-0.073836,-0.005894,0.102590
60565,-0.183155,-0.250060,9.971368,-0.000816,0.001743,0.111751
60566,-0.271121,-0.488263,9.863092,0.123717,-0.004214,0.150633
60567,-0.289039,-0.455476,9.962191,0.282507,-0.033820,0.164938
60568,-0.006204,-0.352558,10.227732,0.361676,-0.033065,0.159823
60569,0.411249,-0.293695,10.367954,0.411108,0.016767,0.176265
60570,0.930249,-0.105712,10.335591,0.418509,0.110771,0.213815
60571,1.303767,0.076619,10.174063,0.355478,0.231884,0.292592
60572,1.624536,0.018029,9.893269,0.228007,0.350528,0.396647
60573,1.388613,-0.078782,9.650129,0.149593,0.439989,0.543702
60574,0.656532,-0.114522,9.784410,0.181101,0.452935,0.684652
60575,0.333813,-0.492244,10.090688,0.189161,0.482295,0.749397
60576,0.584769,-1.018124,9.952102,0.283511,0.530130,0.785113
60577,1.357440,-1.108586,9.874626,0.489781,0.652215,0.847510
60578,2.286982,-0.977183,9.867946,0.573426,0.825694,0.947788
60579,3.337787,-0.868136,9.458058,0.563850,1.065584,1.111285
60580,4.201264,-0.978996,9.032942,0.462081,1.304453,1.319973
60581,4.820750,-1.278434,8.640697,0.353254,1.480783,1.553528
60582,5.112973,-1.552758,8.259832,0.346563,1.589466,1.799674
60583,4.748808,-1.704310,8.480328,0.430807,1.655100,2.022104
60584,3.916807,-2.045692,8.836530,0.510120,1.676019,2.187081
60585,3.142137,-2.220855,8.997710,0.685660,1.677368,2.287720
60586,2.929397,-1.844388,9.214903,0.888525,1.687041,2.340277
60587,3.258277,-1.015354,9.483055,0.965965,1.742770,2.353534
60588,3.729686,-0.064542,9.694475,0.862243,1.821433,2.338645
60589,3.656075,0.905005,9.317384,0.600518,1.914669,2.338282
60590,2.689911,1.603647,9.410906,0.195301,1.948556,2.367008
60591,1.028055,2.051239,9.248423,-0.132243,1.882865,2.412955
60592,-0.767122,2.036557,9.069948,-0.522021,1.746249,2.455150
60593,-2.319018,1.688043,8.741126,-0.762019,1.549752,2.462017
60594,-3.155094,1.590608,8.658432,-0.817819,1.330495,2.372201
60595,-3.158030,1.700434,8.749890,-0.888528,1.125812,2.201514
60596,-2.852121,2.141477,8.204314,-0.890563,0.958499,2.009000
60597,-2.666586,2.880997,8.605918,-0.953425,0.795014,1.826391
60598,-2.544115,3.134846,8.696007,-1.265333,0.648793,1.677540
60599,-2.914370,3.301299,8.090913,-1.528788,0.501202,1.539701
60600,-3.580063,3.146657,8.079271,-1.812396,0.278242,1.454173
60601,-4.339767,2.441476,7.606290,-2.030381,0.025034,1.372530
60602,-4.898493,2.168002,7.539317,-2.004384,-0.236884,1.207307
60603,-4.851702,2.216181,8.329344,-1.888230,-0.491532,0.924072
60604,-4.436384,2.413239,8.474393,-1.842025,-0.654874,0.583640
60605,-4.318662,2.888055,8.520337,-1.796993,-0.785666,0.227411
60606,-4.301112,3.298402,8.809753,-1.938590,-0.938098,-0.121679
60607,-4.175034,3.258668,8.569388,-2.269502,-1.107562,-0.464866
60608,-4.049414,3.132728,8.262751,-2.501694,-1.263165,-0.778380
60609,-4.013318,2.269392,8.253099,-2.819782,-1.426456,-1.044520
60610,-4.042925,1.207194,8.420298,-2.902163,-1.603580,-1.253559
60611,-4.009803,0.052271,8.551429,-2.837196,-1.766642,-1.440126
60612,-3.874200,-0.911682,8.773696,-2.632998,-1.913492,-1.682914
60613,-3.493546,-1.406760,9.009444,-2.336873,-2.043472,-1.956890
60614,-3.102233,-1.100905,8.838474,-2.082760,-2.181216,-2.222742
60615,-2.719006,-0.400253,8.649772,-2.034474,-2.321884,-2.453449
60616,-2.276004,-0.250247,8.642945,-2.184584,-2.438568,-2.645612
60617,-1.725214,-0.885038,8.785912,-2.394337,-2.500153,-2.798382
60618,-1.041655,-2.439744,9.469754,-2.637944,-2.521298,-2.896502
60619,-0.226099,-4.422971,9.474043,-2.615593,-2.491566,-2.958980
60620,0.335766,-5.777273,9.381288,-2.006770,-2.424542,-3.014855
60621,0.409837,-5.955591,9.684246,-1.326170,-2.343623,-3.075735
60622,-0.092607,-4.951734,9.665202,-0.758129,-2.304201,-3.112999
60623,-0.828049,-3.031526,9.285775,-0.477774,-2.352685,-3.143644
60624,-1.088498,-1.375104,9.121791,-0.691315,-2.484624,-3.138335
60625,-0.766449,-0.606039,8.286799,-1.113302,-2.604023,-3.158990
60626,-0.248662,-0.543189,7.701708,-1.459577,-2.676932,-3.208707
60627,0.600059,-1.792000,7.775983,-1.828201,-2.731519,-3.238001
60628,1.619696,-3.778825,7.711193,-1.956702,-2.751585,-3.227869
60629,2.492499,-4.772389,7.401390,-1.558079,-2.733222,-3.230920
60630,2.853458,-4.707874,8.006503,-1.184041,-2.692812,-3.229833
60631,2.791640,-4.578874,8.247215,-1.049541,-2.683782,-3.194135
60632,2.926797,-3.826660,8.237831,-0.915282,-2.704772,-3.147631
60633,2.959479,-2.879357,7.847204,-0.934035,-2.726164,-3.138227
60634,2.977097,-2.512096,7.476044,-1.112904,-2.784738,-3.131901
60635,3.207865,-2.554171,7.065320,-1.252628,-2.862048,-3.127905
60636,3.735923,-2.500634,6.730420,-1.295846,-2.938252,-3.136159
60637,4.473961,-2.433110,6.991405,-1.337404,-2.989175,-3.144862
60638,5.178585,-2.156909,7.172252,-1.296617,-3.026369,-3.187087
60639,5.584023,-1.215651,6.626723,-1.225127,-3.060185,-3.263435
60640,6.149493,-0.379664,7.234878,-1.369284,-3.088330,-3.358052
60641,7.555966,-0.522973,9.027357,-1.788691,-3.052133,-3.349353
60642,8.882589,-1.524077,8.532024,-2.142796,-2.929119,-3.321129
60643,10.012078,-1.824818,7.554538,-2.344328,-2.780032,-3.267251
60644,10.746392,-2.511565,7.254800,-2.810493,-2.651323,-3.169373
60645,11.225376,-3.565489,6.592697,-3.067646,-2.548248,-3.065359
60646,10.951083,-4.162659,5.836046,-3.206724,-2.460624,-2.942190
60647,10.620765,-4.111749,5.596281,-3.309037,-2.431347,-2.896801
60648,10.918503,-3.946688,5.223969,-3.519380,-2.473829,-2.873106
60649,11.904178,-4.198747,4.742391,-3.735203,-2.487563,-2.792460
60650,13.182902,-4.990631,4.379592,-3.908065,-2.415274,-2.677500
60651,14.166329,-5.595558,4.044768,-3.851725,-2.233585,-2.550264
60652,14.437131,-5.727676,4.113459,-3.779886,-2.017670,-2.364351
60653,14.365790,-5.977547,4.037988,-3.762521,-1.820186,-2.121685
60654,14.035719,-6.376750,3.904544,-3.688247,-1.616001,-1.845446
60655,13.359689,-6.931275,3.586168,-3.490157,-1.419759,-1.548045
60656,12.569292,-7.483463,3.236412,-3.106253,-1.274401,-1.257622
60657,11.962997,-7.872620,2.853090,-2.521171,-1.189803,-0.971739
60658,11.659264,-7.914681,2.552819,-1.792271,-1.119510,-0.685356
60659,11.580434,-7.643140,2.180718,-1.020767,-1.069635,-0.400226
60660,11.453924,-7.283385,1.900561,-0.278289,-1.007205,-0.127353
60661,11.312538,-6.755846,1.606939,0.425305,-0.962192,0.134807
60662,11.063663,-6.232869,1.361984,1.062025,-0.930881,0.376805
60663,10.924492,-5.619993,1.319876,1.605135,-0.924755,0.572232
60664,11.700943,-3.696085,2.154325,2.073917,-0.848549,0.700434
60665,12.295778,0.515579,3.851581,2.171601,-0.466588,0.661993
60666,11.881104,3.920725,5.385468,1.504811,-0.056446,0.571971
60667,10.277560,4.167683,5.604457,0.272534,0.180684,0.514002
60668,9.080437,1.785006,3.904577,-0.121801,0.029007,0.289469
60669,9.445235,1.352729,3.295659,0.438768,-0.085493,0.058811
60670,9.859714,2.233081,3.145996,0.438550,-0.048534,-0.010557
60671,9.756368,1.644821,2.952914,-0.045945,-0.037024,-0.007538
60672,9.463793,-0.248836,2.328920,-0.462781,-0.068742,0.013950
60673,9.394960,-1.675179,1.877255,-0.478253,-0.093746,0.027840
60674,9.738608,-2.303852,1.841315,-0.411972,-0.083901,0.001088
60675,9.981045,-2.698042,1.634727,-0.228814,-0.056459,-0.026427
60676,10.040721,-2.684875,1.632596,-0.041992,-0.050933,-0.029102
60677,10.024326,-2.526955,1.576650,0.055786,-0.023104,-0.004978
60678,9.884063,-2.492662,1.486088,0.131196,-0.001833,0.021632
60679,9.804600,-2.697959,1.399122,0.190976,0.003143,0.055037
60680,9.589942,-3.072416,1.186475,0.275851,0.005559,0.104914
60681,9.405180,-3.334270,1.017304,0.415558,-0.018283,0.146315
60682,9.319214,-3.201642,1.024869,0.571691,-0.024661,0.164253
60683,9.278047,-2.731143,1.086025,0.632403,-0.025921,0.186910
60684,9.244657,-2.140111,1.219894,0.613745,-0.024066,0.205366
60685,9.179569,-1.518096,1.408035,0.473183,-0.007064,0.201044
60686,9.237780,-1.196698,1.526099,0.262210,-0.031069,0.200448
60687,9.244304,-0.989114,1.590540,0.081123,-0.021741,0.172773
60688,9.138706,-0.857131,1.707581,-0.124861,-0.015557,0.132146
60689,9.054041,-0.878062,1.737555,-0.337650,-0.044599,0.090436
60690,9.083005,-1.073251,1.709656,-0.496079,-0.084786,0.059465
60691,9.209831,-1.263190,1.619266,-0.590607,-0.130599,0.035052
60692,9.283017,-1.266127,1.583888,-0.664893,-0.154582,0.015082
60693,9.341331,-1.384982,1.432375,-0.736554,-0.168502,-0.012111
60694,9.340300,-1.717085,1.375257,-0.794997,-0.184732,-0.034198
60695,9.448332,-1.848070,1.361787,-0.757419,-0.196333,-0.057918
60696,9.588041,-1.640405,1.483373,-0.725604,-0.188068,-0.086867
60697,9.661389,-1.582024,1.463316,-0.724628,-0.179453,-0.119004
60698,9.718139,-1.671759,1.500917,-0.727953,-0.170244,-0.141024
60699,9.784109,-1.934854,1.495258,-0.730539,-0.157786,-0.145828
60700,9.771537,-2.303877,1.472809,-0.686966,-0.140780,-0.149950
60701,9.831218,-2.559977,1.430802,-0.589501,-0.119200,-0.150207
60702,9.975706,-2.646407,1.520205,-0.478388,-0.126017,-0.116807
60703,9.944221,-2.808800,1.479861,-0.387784,-0.106777,-0.089905
60704,9.972777,-2.907302,1.421120,-0.224252,-0.102219,-0.062338
60705,9.984212,-2.672128,1.549251,-0.119065,-0.091209,-0.014858
60706,9.990659,-2.549395,1.539426,-0.049810,-0.074530,0.021621
60707,9.891443,-2.471782,1.443172,0.001676,-0.056598,0.047555
60708,9.753308,-2.513077,1.358574,0.062899,-0.032617,0.053759
60709,9.666397,-2.498690,1.363743,0.151453,-0.026431,0.052411
60710,9.674885,-2.390966,1.255721,0.245470,-0.023165,0.052509
60711,9.674697,-2.191060,1.255446,0.308537,-0.017094,0.047538
60712,9.694486,-2.014828,1.211347,0.344371,-0.009821,0.037347
60713,9.693750,-1.932697,1.157731,0.342767,-0.008143,0.026863
60714,9.650023,-1.891065,1.108057,0.325336,-0.002292,0.014325
60715,9.629549,-1.882701,1.101639,0.306780,0.000292,0.000280
60716,9.634173,-1.875221,1.053154,0.286007,0.004186,-0.010994
60717,9.606163,-1.860826,1.013164,0.266056,0.005657,-0.019832
60718,9.593453,-1.875369,0.983081,0.248179,0.002309,-0.025905
60719,9.601217,-1.895243,0.964798,0.236053,-0.001783,-0.028141
60720,9.586637,-1.861250,0.957854,0.210208,-0.011060,-0.027463
60721,9.576854,-1.904499,0.957010,0.195968,-0.011616,-0.022375
60722,9.607457,-1.879325,0.918823,0.170468,-0.018736,-0.019329
60723,9.583097,-1.873889,0.961471,0.157922,-0.030793,-0.011591
60724,9.641303,-1.880337,0.910545,0.138490,-0.035249,-0.012477
60725,9.703294,-1.793236,0.940470,0.122331,-0.042354,-0.012466
60726,9.721466,-1.768511,0.919159,0.107558,-0.039494,-0.010905
60727,9.709902,-1.664655,0.931785,0.093301,-0.042324,-0.012599
60728,9.705602,-1.585935,0.921286,0.071250,-0.042007,-0.014186
60729,9.653298,-1.471899,0.907537,0.021107,-0.049716,-0.014542
60730,9.722643,-1.410711,0.910717,-0.046569,-0.052019,-0.018590
60731,9.731471,-1.413208,0.937809,-0.121873,-0.052298,-0.025840
60732,9.762908,-1.470164,0.951785,-0.199076,-0.055716,-0.027955
60733,9.763753,-1.569826,0.948964,-0.255055,-0.052522,-0.033174
60734,9.752412,-1.668221,0.966022,-0.300691,-0.052718,-0.040030
60735,9.757514,-1.774818,1.048637,-0.328944,-0.049246,-0.047693
60736,9.745692,-1.893396,1.007788,-0.337738,-0.046892,-0.053390
60737,9.722688,-1.989988,1.043549,-0.337981,-0.045519,-0.059001
60738,9.661070,-2.124168,1.029652,-0.332886,-0.040303,-0.060857
60739,9.637519,-2.240244,1.008478,-0.290041,-0.047359,-0.064978
60740,9.680113,-2.146989,1.018752,-0.252009,-0.041570,-0.064631
60741,9.687882,-2.099981,1.068300,-0.241742,-0.037118,-0.060606
60742,9.658971,-2.138783,1.043313,-0.249802,-0.030446,-0.061512
60743,9.687036,-2.097816,1.106598,-0.229016,-0.021608,-0.057928
60744,9.700645,-2.095285,1.079371,-0.215411,-0.008558,-0.055078
60745,9.689492,-2.092084,1.095897,-0.204537,0.004719,-0.048452
60746,9.634044,-2.063856,1.200853,-0.188671,0.017517,-0.047228
60747,9.601800,-2.056124,1.208772,-0.174410,0.035891,-0.036173
60748,9.542831,-2.086325,1.146561,-0.166386,0.037027,-0.027206
60749,9.563409,-2.091415,1.158894,-0.145067,0.037767,-0.020280
60750,9.565658,-2.139154,1.133932,-0.108267,0.045622,-0.011232
60751,9.511969,-2.128092,1.133566,-0.075087,0.049411,-0.003265
60752,9.552456,-2.139705,1.161068,-0.048324,0.050765,-0.002723
60753,9.523126,-2.129193,1.120571,-0.009067,0.059432,0.005914
