// Start Time: Unknown
// Update Rate: 100.0Hz
// Filter Profile: human (46.1)
// Firmware Version: 4.3.5
PacketCounter,Acc_X,Acc_Y,Acc_Z,Gyr_X,Gyr_Y,Gyr_Z
61661,9.642953,-1.934194,1.211621,0.023699,-0.016398,-0.005679
61662,9.669514,-1.941025,1.257958,0.036984,-0.013852,-0.011712
61663,9.683679,-1.938754,1.237382,0.048278,-0.011131,-0.018351
61664,9.653558,-1.908400,1.246531,0.064959,-0.010041,-0.022255
61665,9.654106,-1.905336,1.246969,0.084555,-0.010430,-0.021910
61666,9.677648,-1.882042,1.263228,0.098467,-0.017306,-0.016708
61667,9.658189,-1.875347,1.250058,0.107757,-0.015760,-0.016073
61668,9.602047,-1.889039,1.241365,0.121905,-0.020181,-0.017513
61669,9.608880,-1.889784,1.275713,0.139864,-0.018194,-0.015339
61670,9.629130,-1.838019,1.260946,0.147077,-0.017548,-0.016497
61671,9.632970,-1.862423,1.293470,0.151543,-0.018930,-0.018552
61672,9.644223,-1.882767,1.272153,0.151791,-0.017813,-0.017306
61673,9.649393,-1.951531,1.247143,0.166712,-0.012168,-0.014846
61674,9.640836,-2.020414,1.243054,0.183287,-0.014536,-0.013207
61675,9.685626,-2.044441,1.216847,0.199252,-0.008840,-0.014958
61676,9.702687,-2.016493,1.201923,0.216054,-0.010086,-0.012083
61677,9.770351,-2.019900,1.192550,0.235026,-0.001233,-0.011720
61678,9.742862,-1.963776,1.208197,0.254548,0.007643,-0.013456
61679,9.728970,-1.907386,1.204510,0.269474,0.015750,-0.015489
61680,9.728276,-1.799688,1.150981,0.272380,0.024646,-0.012152
61681,9.677525,-1.764012,1.152956,0.256654,0.027078,-0.015785
61682,9.666359,-1.684029,1.151161,0.235630,0.027456,-0.009771
61683,9.675112,-1.608089,1.162087,0.205504,0.025121,-0.007735
61684,9.657949,-1.577570,1.155355,0.163713,0.024774,-0.010403
61685,9.682298,-1.599924,1.118056,0.123228,0.023148,-0.011565
61686,9.714768,-1.606253,1.203379,0.089121,0.024487,-0.016396
61687,9.750038,-1.653241,1.143501,0.059401,0.024390,-0.023292
61688,9.705661,-1.622003,1.174912,0.029570,0.027624,-0.024535
61689,9.733239,-1.620239,1.137324,-0.006009,0.025622,-0.028743
61690,9.685926,-1.613704,1.166285,-0.043440,0.029326,-0.025544
61691,9.638638,-1.607571,1.194381,-0.081283,0.020700,-0.030533
61692,9.670050,-1.684842,1.217753,-0.110422,0.020475,-0.030479
61693,9.647455,-1.704461,1.202174,-0.127583,0.012592,-0.026816
61694,9.675731,-1.755267,1.191317,-0.139308,0.007838,-0.031625
61695,9.666185,-1.831904,1.272725,-0.147322,0.008462,-0.034085
61696,9.663814,-1.854718,1.269164,-0.141890,0.005831,-0.032437
61697,9.623572,-1.903772,1.358063,-0.139529,0.003492,-0.036263
61698,9.584710,-1.947076,1.359072,-0.122607,0.003408,-0.032162
61699,9.532108,-1.990215,1.380211,-0.102821,-0.002503,-0.030670
61700,9.544176,-2.064431,1.386436,-0.067914,-0.009479,-0.029059
61701,9.545386,-2.114138,1.414688,-0.030629,-0.013305,-0.023271
61702,9.589352,-2.146183,1.472603,0.019128,-0.014575,-0.019252
61703,9.604251,-2.195437,1.482376,0.080007,-0.016589,-0.016343
61704,9.589514,-2.210408,1.413823,0.139062,-0.017326,-0.012843
61705,9.645929,-2.138314,1.394161,0.193945,-0.015523,-0.006058
61706,9.649155,-2.110241,1.399002,0.236772,-0.012641,-0.012025
61707,9.722640,-2.064273,1.393373,0.271787,-0.008168,-0.010191
61708,9.704298,-2.050619,1.296793,0.289387,-0.009134,-0.018326
61709,9.764067,-2.003214,1.312604,0.312159,0.003049,-0.017918
61710,9.716312,-1.941922,1.315200,0.334516,0.010815,-0.022220
61711,9.646256,-1.952472,1.334957,0.350255,0.017847,-0.018393
61712,9.642283,-1.868765,1.279374,0.367880,0.017996,-0.014034
61713,9.627934,-1.811408,1.276349,0.372022,0.016797,-0.011583
61714,9.659092,-1.711843,1.302082,0.359008,0.014426,-0.005391
61715,9.654221,-1.683833,1.364532,0.332629,0.018548,-0.002200
61716,9.683705,-1.606732,1.299670,0.294330,0.015459,0.000677
61717,9.734407,-1.633901,1.312113,0.240464,0.015545,-0.001289
61718,9.702775,-1.552643,1.291260,0.176014,0.009422,-0.006537
61719,9.787390,-1.584571,1.294749,0.101650,0.009530,-0.006972
61720,9.784180,-1.729786,1.273608,0.054573,0.023800,0.000989
61721,9.838094,-1.785712,1.317383,0.052402,0.031863,0.001409
61722,10.079242,-1.763082,1.279411,0.050260,0.051268,0.006307
61723,10.081190,-1.617634,1.310273,0.048249,0.071891,0.028214
61724,10.071145,-1.399640,1.329723,0.021246,0.070344,0.059437
61725,10.068823,-1.184197,1.293456,-0.028182,0.050879,0.078103
61726,10.181758,-0.962443,1.391936,-0.100915,0.021412,0.069161
61727,10.584127,-0.797356,1.361663,-0.169462,-0.024022,0.077448
61728,10.630033,-0.836658,1.242027,-0.301444,-0.026759,0.099714
61729,10.526744,-0.848009,1.339747,-0.356924,-0.092835,0.204963
61730,10.629037,-0.920119,1.425845,-0.349083,-0.150616,0.297018
61731,10.926675,-1.412305,1.304961,-0.232305,-0.185340,0.369571
61732,11.484589,-2.073545,1.279014,0.021143,-0.218628,0.441226
61733,12.182903,-2.465947,1.195238,0.397807,-0.183053,0.515482
61734,12.218297,-2.760164,1.418356,0.840440,-0.083361,0.567653
61735,12.369226,-2.651164,1.629885,1.260736,-0.006858,0.659315
61736,12.632182,-2.563389,1.817890,1.561734,0.076327,0.770807
61737,12.942934,-2.664349,2.166500,1.731396,0.195603,0.880451
61738,13.459467,-2.938600,2.411270,1.791351,0.341691,1.025985
61739,13.649141,-2.934389,2.517506,1.853782,0.542625,1.151880
61740,13.504729,-2.960151,2.637371,1.770062,0.742616,1.258438
61741,13.181481,-3.149534,2.932980,1.601118,0.918335,1.349663
61742,12.877627,-3.413019,3.101965,1.384613,1.080643,1.447007
61743,12.638973,-3.812623,3.472597,1.186815,1.230300,1.547241
61744,12.539989,-4.418022,3.571825,1.043359,1.367855,1.621676
61745,12.492506,-4.957988,3.887361,0.943014,1.519148,1.692332
61746,12.099437,-5.358814,4.020444,0.892862,1.681032,1.770797
61747,11.511259,-5.548845,4.366657,0.803547,1.824460,1.849426
61748,11.028903,-6.040414,4.674563,0.660947,1.936762,1.938155
61749,10.579723,-6.543932,4.839101,0.627624,2.051766,2.016685
61750,10.027990,-6.857330,4.953611,0.660279,2.159134,2.067556
61751,9.512560,-7.350532,4.964799,0.696957,2.238803,2.096468
61752,9.030087,-7.647651,4.854451,0.908453,2.317813,2.114856
61753,8.379731,-7.716905,4.914159,1.119275,2.407605,2.140595
61754,7.734171,-7.867095,5.251899,1.326118,2.503606,2.201318
61755,7.024846,-7.358489,5.451746,1.620406,2.612147,2.235299
61756,6.431271,-6.990114,5.843394,1.691593,2.684954,2.291252
61757,6.003507,-6.788713,5.965783,1.759055,2.754354,2.349849
61758,5.477211,-6.509962,6.062512,1.792746,2.854111,2.394418
61759,4.946964,-5.993457,6.164997,1.789827,2.923814,2.435312
61760,4.562872,-5.554060,6.259904,1.734807,2.994113,2.480357
61761,4.215634,-5.612676,6.479509,1.572249,3.059093,2.585677
61762,3.966220,-5.559739,6.289998,1.590608,3.144817,2.669905
61763,3.708268,-5.657305,6.708044,1.529944,3.223934,2.753925
61764,3.317059,-5.431209,6.306983,1.617367,3.302558,2.820081
61765,2.938598,-4.564268,6.553717,1.709927,3.387567,2.907498
61766,2.350915,-4.095461,6.469035,1.657346,3.520577,2.992345
61767,1.446237,-3.665834,6.296242,1.569980,3.613640,3.068816
61768,0.882996,-3.535027,6.289932,1.466440,3.627775,3.154955
61769,0.577355,-3.636193,6.265585,1.392263,3.655081,3.234026
61770,0.096585,-3.628853,6.355124,1.421563,3.691165,3.286724
61771,-0.437082,-3.504469,6.656562,1.528306,3.728658,3.317343
61772,-1.181250,-3.328539,7.100830,1.678303,3.770132,3.314906
61773,-2.014234,-2.869588,7.441197,1.874011,3.803756,3.272005
61774,-2.751591,-2.573500,7.720423,1.959005,3.812660,3.212154
61775,-3.352549,-2.785805,7.957048,1.958168,3.787011,3.160443
61776,-3.697801,-3.152919,8.130526,2.035169,3.743495,3.095275
61777,-3.980419,-3.657101,8.168703,2.144324,3.677784,3.013011
61778,-4.163312,-3.969795,8.161266,2.361756,3.589516,2.926050
61779,-4.291512,-3.951883,8.463966,2.603165,3.517798,2.836779
61780,-4.607281,-3.463033,8.421956,2.886040,3.430831,2.722173
61781,-4.939933,-2.243510,8.230932,3.183937,3.330911,2.541467
61782,-5.465170,-1.016366,8.295283,3.225992,3.210359,2.317049
61783,-5.997471,-0.189925,8.300426,2.947629,3.027657,2.108323
61784,-6.297499,-0.183666,8.365187,2.518776,2.781152,1.940708
61785,-6.437879,-1.023886,8.087224,2.200187,2.501451,1.789313
61786,-6.641323,-1.387285,7.702859,2.112854,2.203898,1.641365
61787,-6.815380,-1.294892,7.456951,2.078142,1.838965,1.469223
61788,-6.841242,-0.963191,7.301778,1.992786,1.480192,1.278915
61789,-6.767845,-0.612513,7.240759,1.881087,1.127534,1.102409
61790,-6.498802,-0.516620,7.476820,1.731825,0.765691,0.920586
61791,-6.122057,-0.375012,7.695124,1.652227,0.436947,0.751048
61792,-5.543088,-0.261926,8.530829,1.522018,0.126564,0.600506
61793,-4.683137,-0.298741,9.083303,1.341294,-0.106192,0.468518
61794,-4.197900,-0.206175,9.379918,1.200118,-0.297467,0.401303
61795,-3.727053,-0.704022,10.148684,0.905703,-0.474828,0.366009
61796,-3.253161,-1.495008,10.185243,0.757573,-0.610913,0.336150
61797,-2.828780,-1.473145,10.188538,0.872786,-0.712167,0.272726
61798,-2.721777,-0.815412,10.002264,0.933271,-0.801972,0.177853
61799,-2.748230,-0.157065,9.818447,0.924113,-0.885709,0.096489
61800,-2.910905,0.219189,9.501641,0.843338,-0.984688,0.029667
61801,-2.962567,0.429054,9.091490,0.820788,-1.108889,-0.059824
61802,-2.902903,0.497698,8.869901,0.853110,-1.233642,-0.176485
61803,-2.960368,0.470278,8.781620,0.931115,-1.348375,-0.303194
61804,-2.923980,0.644768,8.996310,1.059566,-1.467676,-0.438534
61805,-2.829435,0.916403,9.237321,1.170115,-1.567157,-0.570881
61806,-2.751796,1.374878,9.265340,1.262495,-1.649009,-0.716966
61807,-2.811764,1.996676,9.194659,1.311357,-1.751080,-0.894060
61808,-2.833036,2.737885,9.303912,1.248098,-1.886467,-1.093530
61809,-2.476916,3.239728,9.363506,1.043430,-2.039185,-1.285284
61810,-1.958327,3.421071,9.131076,0.790995,-2.163237,-1.446575
61811,-1.517628,3.245445,9.014117,0.513879,-2.298707,-1.580328
61812,-0.944020,2.826794,8.665011,0.276371,-2.466192,-1.753522
61813,-0.030726,2.440261,8.287014,0.090260,-2.628375,-1.931382
61814,1.194095,2.096372,8.261536,-0.035894,-2.750253,-2.097285
61815,2.410324,1.652850,8.418535,-0.124561,-2.811242,-2.247707
61816,3.625763,1.150072,8.604383,-0.178227,-2.797512,-2.377095
61817,4.763383,0.647063,8.816087,-0.174455,-2.735463,-2.444796
61818,5.856386,0.077659,8.932195,-0.214280,-2.609782,-2.443419
61819,6.833129,-0.362678,8.962309,-0.246980,-2.439126,-2.377248
61820,7.627839,-0.925419,8.989863,-0.392497,-2.233571,-2.256053
61821,7.891724,-1.774965,8.691462,-0.402766,-1.929507,-2.053596
61822,7.310604,-2.513353,8.609363,-0.381803,-1.624081,-1.782139
61823,6.459552,-3.210333,8.618247,-0.273950,-1.335381,-1.482481
61824,5.509339,-3.493117,8.895085,0.102457,-1.003983,-1.176087
61825,4.519493,-2.960376,9.022606,0.518503,-0.645347,-0.889952
61826,3.539527,-2.081933,8.690020,0.852376,-0.318743,-0.583644
61827,2.589339,-0.836932,8.116588,1.119273,-0.068834,-0.288074
61828,1.837539,0.418707,7.810372,1.206316,0.057944,-0.042280
61829,1.321428,1.346351,7.445219,1.137366,0.118951,0.142848
61830,0.989737,1.806186,7.306825,1.005305,0.147008,0.262818
61831,0.931662,1.988038,7.470605,0.906880,0.159906,0.314470
61832,0.884647,1.845103,7.846414,0.837736,0.173537,0.333136
61833,0.780156,1.777374,8.223755,0.868392,0.199669,0.328073
61834,0.756268,1.773726,8.619370,0.836116,0.220685,0.303964
61835,0.668869,1.717817,8.976023,0.789493,0.226941,0.292091
61836,0.661463,1.748154,9.299046,0.707781,0.231942,0.291081
61837,0.566216,1.970148,9.611377,0.571194,0.232972,0.302904
61838,0.421232,2.096061,9.970642,0.394080,0.220023,0.332800
61839,0.385690,2.448194,10.096059,0.208676,0.230117,0.349511
61840,0.358868,3.145189,10.208366,-0.047853,0.253210,0.351701
61841,0.338058,4.055870,10.618298,-0.527896,0.292685,0.355301
61842,0.399139,4.901965,10.744587,-1.252875,0.349858,0.370580
61843,0.302463,5.487330,11.066786,-2.125628,0.445843,0.403509
61844,0.211207,5.387351,11.304407,-3.120691,0.522291,0.418106
61845,0.366317,5.018511,11.171043,-4.040227,0.629373,0.434214
61846,0.374182,4.496606,10.694617,-4.874581,0.761451,0.455557
61847,0.313012,3.815398,10.105143,-5.596080,0.858980,0.448865
61848,0.176859,2.910168,9.629647,-6.205800,0.932905,0.444060
61849,0.163308,1.881925,9.208028,-6.661026,0.989638,0.448346
61850,0.088542,0.981126,8.920520,-7.032926,1.087327,0.451028
61851,-0.069806,0.163288,8.440773,-7.272189,1.155767,0.454136
61852,-0.363050,-0.691794,8.116119,-7.465650,1.199979,0.448176
61853,-0.580445,-1.667073,7.686809,-7.540480,1.218003,0.423894
61854,-0.648697,-2.596126,7.099039,-7.526620,1.243720,0.380368
61855,-0.797721,-3.346686,6.734697,-7.367614,1.284181,0.321565
61856,-1.022849,-3.790531,6.052456,-7.188047,1.307125,0.264224
61857,-1.462025,-4.589353,5.284047,-7.070685,1.288635,0.208171
61858,-1.870716,-5.598199,4.562215,-6.802252,1.223598,0.126103
61859,-2.015930,-6.628458,4.168994,-6.477060,1.121458,0.056271
61860,-1.972443,-7.553743,3.942848,-6.070671,1.047674,0.003704
61861,-1.765765,-8.235453,3.763935,-5.584159,0.983338,-0.046538
61862,-1.518922,-8.591697,3.904151,-5.072999,0.949596,-0.082642
61863,-1.321601,-8.497871,3.779992,-4.573456,0.976537,-0.116334
61864,-1.283980,-8.157192,3.635692,-4.261011,0.999856,-0.160692
61865,-1.599445,-8.006388,3.240816,-4.255417,1.023051,-0.173891
61866,-2.237070,-9.056723,2.337218,-4.262788,0.926494,-0.205447
61867,-2.360027,-10.140957,1.397215,-4.009554,0.832801,-0.230074
61868,-2.485463,-11.057309,0.909346,-3.611718,0.716316,-0.211505
61869,-2.181368,-11.306661,0.902217,-2.931326,0.589494,-0.221674
61870,-1.871324,-10.699791,0.863215,-2.408993,0.512577,-0.194555
61871,-1.848377,-10.930088,0.482785,-1.974897,0.397665,-0.190033
61872,-1.969562,-11.343708,0.353553,-1.539086,0.311939,-0.163121
61873,-1.971926,-11.541674,0.340606,-1.023654,0.222523,-0.113396
61874,-1.980652,-11.254320,0.363092,-0.551178,0.149042,-0.065143
61875,-2.055003,-11.263524,0.476913,-0.238891,0.072071,-0.040605
61876,-2.046193,-11.165138,0.710640,0.062126,0.011999,-0.032960
61877,-1.980414,-10.785485,1.050186,0.384460,-0.024959,-0.019776
61878,-1.987998,-10.058584,1.364587,0.472951,-0.040361,-0.000562
61879,-2.032324,-9.917417,1.564631,0.453796,-0.063639,-0.013027
61880,-2.142716,-10.055140,1.781407,0.471216,-0.078404,-0.033119
61881,-2.143484,-10.203338,1.703511,0.509891,-0.103606,-0.044614
61882,-2.298018,-10.724115,1.502141,0.588320,-0.127857,-0.055899
61883,-2.357468,-11.430142,1.379312,0.798765,-0.176896,-0.053610
61884,-2.223021,-11.864461,1.319408,1.150228,-0.224858,-0.044321
61885,-2.233344,-11.996883,1.190983,1.573906,-0.268079,-0.034252
61886,-2.390873,-12.212305,1.036859,2.008531,-0.352661,-0.040292
61887,-2.394344,-12.306176,1.133707,2.563009,-0.456288,-0.037285
61888,-2.284763,-12.160358,1.326376,3.172929,-0.549182,-0.021578
61889,-2.158800,-11.842760,1.609411,3.800788,-0.634879,-0.006161
61890,-2.053451,-11.445177,1.916517,4.423005,-0.717105,-0.016708
61891,-2.039368,-10.770808,2.180027,5.022817,-0.779601,-0.028225
61892,-2.112856,-10.153197,2.541152,5.504265,-0.880333,-0.040635
61893,-1.969752,-9.529063,2.866209,5.958597,-0.989730,-0.045227
61894,-1.726653,-8.886247,3.246879,6.355880,-1.071049,-0.030238
61895,-1.558005,-8.248051,3.392935,6.729322,-1.151597,-0.001259
61896,-1.297444,-7.731433,3.973670,7.055362,-1.248330,0.026074
61897,-0.902765,-7.273466,4.397746,7.480610,-1.293767,0.048849
61898,-0.524035,-6.509775,4.854329,7.933915,-1.293191,0.076587
61899,-0.123355,-5.315617,5.511792,8.340955,-1.241556,0.097171
61900,0.122590,-3.833679,5.942896,8.559689,-1.147995,0.112928
61901,0.100767,-2.255448,6.225336,8.567599,-1.042567,0.116852
61902,-0.196988,-0.818459,6.106158,8.415745,-0.956306,0.098872
61903,-0.705536,0.403128,6.335167,8.046636,-0.946567,0.103376
61904,-0.919880,1.219281,6.752189,7.617440,-0.950361,0.039428
61905,-1.075261,2.028564,6.771567,7.290299,-0.924271,-0.062353
61906,-1.205340,3.288986,7.217658,6.894772,-0.906561,-0.176745
61907,-1.072577,4.730099,7.772265,6.372100,-0.886865,-0.320961
61908,-0.918786,6.084676,8.570381,5.636186,-0.858509,-0.434451
61909,-0.631492,7.012435,9.512041,4.684523,-0.823633,-0.525667
61910,-0.112314,7.191516,10.508048,3.563227,-0.737406,-0.529538
61911,0.318450,6.355350,10.996574,2.455242,-0.612504,-0.457790
61912,0.603302,5.182492,11.173513,1.549407,-0.483495,-0.354276
61913,0.725470,4.076603,11.162916,0.833907,-0.369942,-0.228973
61914,0.729249,3.239733,11.051241,0.383050,-0.271979,-0.114760
61915,0.686412,2.811470,10.968553,0.072444,-0.178244,-0.034457
61916,0.563559,2.698370,10.720676,-0.168699,-0.104495,0.031968
61917,0.419650,2.600159,10.410473,-0.402679,-0.039155,0.078594
61918,0.295417,2.354352,10.086452,-0.596112,-0.003961,0.127596
61919,0.178885,1.828975,9.785679,-0.722334,0.019316,0.165904
61920,0.094795,1.145928,9.420933,-0.708743,0.034751,0.184759
61921,0.086184,0.703673,9.150491,-0.515416,0.037109,0.182621
61922,0.113380,0.597968,9.058722,-0.218831,0.024069,0.167999
61923,0.207395,0.689278,9.108433,0.089480,0.010572,0.158890
61924,0.245436,0.962726,9.114300,0.364655,0.015607,0.151725
61925,0.199125,1.417199,9.221223,0.580241,0.014563,0.158750
61926,0.239756,1.830996,9.391596,0.686720,0.014064,0.173122
61927,0.402966,2.036140,9.445423,0.734468,0.036349,0.197010
61928,0.615009,2.331232,9.570854,0.766977,0.067745,0.236371
61929,0.912209,2.682678,9.706840,0.759843,0.118967,0.290410
61930,1.144173,2.973847,9.803451,0.688972,0.206769,0.355910
61931,1.223504,3.237952,9.739136,0.596345,0.294147,0.430996
61932,1.319872,3.327581,9.823059,0.461501,0.384642,0.482311
61933,1.585257,3.198812,9.746867,0.314091,0.502458,0.535434
61934,1.875699,2.901213,9.558634,0.206434,0.645720,0.600974
61935,2.290958,2.716673,9.311521,0.119540,0.807005,0.671772
61936,2.849704,2.606189,9.114491,0.021395,0.995995,0.755316
61937,3.382607,2.434395,8.766766,-0.098826,1.213431,0.876157
61938,3.495152,2.125520,8.339651,-0.218732,1.388050,1.046931
61939,3.241856,1.698631,7.928373,-0.227513,1.473136,1.243873
61940,2.805751,1.209326,7.712601,-0.154671,1.492379,1.411584
61941,2.489353,0.621440,7.733918,0.014625,1.481512,1.518849
61942,2.536095,0.189476,7.787704,0.308684,1.479578,1.579391
61943,2.959615,0.276187,7.892975,0.693775,1.524580,1.610073
61944,3.402410,0.843260,7.986358,1.018422,1.627325,1.647082
61945,3.693302,1.476495,8.109805,1.205965,1.754089,1.710838
61946,3.835400,1.746550,8.007286,1.256700,1.859502,1.783204
61947,3.548971,1.770256,7.818084,1.316826,1.904451,1.882917
61948,3.056455,1.699485,7.804427,1.409443,1.882991,1.976879
61949,2.444040,1.660426,8.066787,1.529331,1.798033,2.031110
61950,2.035157,2.057312,8.416093,1.711377,1.735284,2.051147
61951,1.906510,2.943194,8.994160,1.781085,1.713266,2.027402
61952,2.205595,3.910738,9.534986,1.674472,1.725266,1.967205
61953,2.603977,4.933081,9.743174,1.423306,1.805303,1.895283
61954,2.600594,5.690059,9.812218,0.955635,1.901461,1.868655
61955,2.138760,5.888298,9.625039,0.349266,1.947307,1.891047
61956,1.513379,5.653648,9.535453,-0.186975,1.947971,1.914995
61957,0.628986,4.997986,9.233871,-0.647080,1.915908,1.952039
61958,-0.495804,4.209394,8.993218,-0.877146,1.831646,1.987383
61959,-1.331101,3.636994,8.895743,-0.917257,1.694980,1.967155
61960,-1.639946,3.382760,9.136856,-0.847021,1.554275,1.878102
61961,-1.478725,3.560722,8.925231,-0.733424,1.434834,1.764287
61962,-1.415300,4.335811,8.819866,-0.669006,1.349003,1.615552
61963,-1.578640,5.018237,9.052450,-0.766293,1.275649,1.442786
61964,-1.748839,5.279261,9.011558,-1.020507,1.198367,1.314378
61965,-2.218166,5.470131,8.460450,-1.221238,1.113465,1.216321
61966,-3.050136,5.520679,8.408709,-1.435532,0.992700,1.126033
61967,-3.732968,5.025865,8.634815,-1.728500,0.819178,1.020740
61968,-4.116259,4.781399,7.835545,-1.872665,0.615228,0.860950
61969,-4.529700,4.915206,7.650436,-1.978071,0.409599,0.658350
61970,-4.764248,5.105834,7.717884,-2.090015,0.191525,0.403362
61971,-4.870138,5.196435,7.510482,-2.294810,-0.005168,0.138944
61972,-4.901975,5.413745,6.965999,-2.412375,-0.201341,-0.114832
61973,-5.239332,5.415104,7.025764,-2.624671,-0.403067,-0.355977
61974,-5.514086,5.231472,7.039818,-2.813358,-0.636844,-0.567376
61975,-5.575767,4.797727,6.885595,-3.028234,-0.873318,-0.794235
61976,-5.585814,4.195040,6.717492,-3.183010,-1.120110,-1.072309
61977,-5.412147,3.656641,6.795854,-3.264745,-1.372479,-1.389770
61978,-4.821179,3.268207,7.261463,-3.318916,-1.588211,-1.715476
61979,-4.178935,3.401227,7.895122,-3.366845,-1.731672,-2.022306
61980,-3.411948,3.657896,8.569001,-3.477483,-1.823207,-2.335972
61981,-2.895515,3.759802,8.491238,-3.715166,-1.804682,-2.669784
61982,-2.869277,3.583939,8.184930,-3.944282,-1.763005,-2.990347
61983,-2.846040,2.963888,7.917651,-4.171142,-1.754211,-3.311410
61984,-2.282366,1.834658,7.963108,-4.391013,-1.725987,-3.638918
61985,-1.517357,-0.172935,7.845832,-4.523104,-1.640740,-3.889297
61986,-0.794142,-2.385335,6.998080,-4.257691,-1.526690,-4.113434
61987,-0.558322,-4.259272,6.546130,-3.529304,-1.417775,-4.310305
61988,-0.579857,-5.351948,6.834184,-2.717704,-1.374308,-4.475718
61989,-0.814039,-5.518958,6.923723,-2.019607,-1.413237,-4.553828
61990,-0.822674,-4.573703,7.004188,-1.489298,-1.518102,-4.553492
61991,-0.611517,-3.929734,7.290622,-1.269868,-1.605414,-4.505945
61992,-0.613638,-3.431974,7.141203,-1.103986,-1.675908,-4.463987
61993,-0.630690,-3.213440,6.559744,-0.967818,-1.773553,-4.439834
61994,-0.838969,-3.409385,6.035523,-0.783574,-1.889067,-4.427809
61995,-0.956101,-3.281444,5.866919,-0.533928,-2.061015,-4.391771
61996,-0.850416,-2.941701,5.679350,-0.287754,-2.268388,-4.342563
61997,-0.454774,-2.283147,5.523641,-0.104900,-2.495213,-4.274233
61998,0.164629,-1.806541,5.793071,-0.116252,-2.729699,-4.200824
61999,0.915888,-1.546294,6.152919,-0.153398,-2.965888,-4.114632
62000,1.891273,-1.630977,7.110861,-0.310188,-3.175430,-4.010293
62001,2.949687,-1.872196,7.459898,-0.456605,-3.368267,-3.891445
62002,4.236862,-1.633288,8.464773,-0.562244,-3.505612,-3.733220
62003,5.569463,-2.902906,9.859657,-0.934866,-3.540547,-3.538772
62004,6.354638,-4.400240,9.734757,-0.961569,-3.528191,-3.292938
62005,6.709410,-4.139705,9.660678,-0.627787,-3.488680,-3.077177
62006,6.550445,-2.830307,9.596730,-0.641152,-3.494387,-2.929624
62007,6.408007,-1.801227,9.186591,-0.857750,-3.550338,-2.799024
62008,6.456741,-1.019538,8.689327,-1.248294,-3.646122,-2.649514
62009,6.945880,-0.633191,7.664188,-1.651680,-3.769503,-2.556387
62010,7.834010,-0.837059,7.424108,-2.093462,-3.865129,-2.474366
62011,8.696102,-1.563749,6.758629,-2.380155,-3.928315,-2.429812
62012,9.567806,-1.869627,6.267676,-2.511644,-3.965215,-2.408708
62013,10.195704,-2.120442,6.135951,-2.589153,-3.976267,-2.373766
62014,10.641790,-2.414557,5.901181,-2.622001,-3.973432,-2.363960
62015,11.150126,-2.522208,5.646438,-2.615271,-3.985615,-2.380235
62016,12.061725,-2.541323,5.489988,-2.590365,-3.965078,-2.420024
62017,13.367549,-2.588691,5.469791,-2.622471,-3.882626,-2.436214
62018,14.890433,-2.706881,5.677280,-2.734702,-3.729792,-2.450230
62019,16.539220,-2.840543,5.910040,-2.911353,-3.471207,-2.421594
62020,17.687938,-3.002815,6.138198,-3.167313,-3.068009,-2.297252
62021,17.624407,-3.335480,5.860292,-3.463969,-2.572882,-2.086849
62022,16.510122,-3.739816,5.205776,-3.719682,-2.121189,-1.841951
62023,15.100220,-4.315136,4.224083,-3.818966,-1.759697,-1.595667
62024,14.005534,-5.182146,3.100327,-3.657719,-1.466325,-1.323279
62025,13.141871,-6.380521,2.150496,-3.227375,-1.248440,-1.020141
62026,12.580297,-7.631450,1.815927,-2.527310,-1.075839,-0.688952
62027,12.105753,-8.212238,1.799161,-1.558547,-0.954091,-0.334218
62028,11.635553,-7.688734,2.046761,-0.486420,-0.879590,-0.026378
62029,11.383226,-6.447406,2.603026,0.457257,-0.833740,0.227511
62030,11.171336,-4.985542,2.906681,1.194178,-0.770035,0.449578
62031,10.931097,-3.472090,3.230359,1.658749,-0.681227,0.639419
62032,10.817092,-2.107382,3.814368,1.934308,-0.534430,0.743922
62033,10.821398,-0.630260,3.996231,2.099573,-0.311593,0.702316
62034,10.657294,0.968740,4.775912,2.034999,-0.047695,0.563839
62035,10.400862,2.679109,4.872550,1.829054,0.166370,0.330317
62036,9.652339,3.813642,4.682947,1.369852,0.275638,0.209050
62037,9.016247,3.592963,3.523602,0.888131,0.203466,0.084451
62038,8.831298,2.860388,2.554352,0.417029,0.021290,-0.001394
62039,9.353341,2.639719,2.235456,0.132698,-0.060390,-0.102959
62040,9.599046,2.201663,2.236582,-0.382975,-0.060127,-0.182917
62041,9.857153,1.568669,2.010773,-0.884862,-0.045116,-0.200003
62042,9.748727,0.694953,1.808782,-1.363795,-0.034286,-0.143282
62043,9.764398,-0.357087,1.487528,-1.723241,-0.062084,-0.062203
62044,9.836852,-1.651258,1.066210,-1.868973,-0.074327,0.011451
62045,9.807761,-3.011715,0.640480,-1.751625,-0.075997,0.081214
62046,9.761463,-4.066765,0.405475,-1.341741,-0.084781,0.122708
62047,9.773952,-4.569543,0.290235,-0.807300,-0.092941,0.155726
62048,9.750214,-4.527908,0.372780,-0.280178,-0.079693,0.190473
62049,9.670530,-4.084569,0.416723,0.150420,-0.061619,0.223230
62050,9.600427,-3.424165,0.501748,0.389425,-0.045957,0.246552
62051,9.585228,-2.793006,0.595050,0.459002,-0.030320,0.292928
62052,9.548762,-2.172740,0.756916,0.376197,-0.024254,0.339009
62053,9.544208,-1.742265,0.797338,0.181003,-0.026004,0.387744
62054,9.570906,-1.453774,0.935217,-0.065559,-0.020491,0.433667
62055,9.571472,-1.377707,0.944183,-0.314565,-0.017179,0.470753
62056,9.575186,-1.436281,1.004208,-0.526213,-0.020842,0.492490
62057,9.780490,-1.571052,1.144606,-0.640629,-0.014656,0.483986
62058,10.214876,-1.315938,1.395745,-0.657769,0.084669,0.382336
62059,10.146511,-0.709257,1.556576,-0.556732,0.138161,0.309130
62060,9.888265,-0.052014,2.048132,-0.559358,0.195916,0.248986
62061,9.506565,0.418844,2.377980,-0.638063,0.180638,0.179018
62062,9.457153,0.316889,2.230122,-0.778328,0.099615,0.139319
62063,9.540071,-0.046866,2.115310,-0.810848,0.035360,0.107484
62064,9.541874,-0.644071,2.116855,-0.748294,-0.020416,0.074302
62065,9.501945,-1.033615,2.096953,-0.697147,-0.064322,0.059648
62066,9.489093,-1.551510,1.949707,-0.671822,-0.105811,0.066155
62067,9.502242,-2.243098,1.913330,-0.603884,-0.141534,0.088120
62068,9.504427,-2.920318,1.801288,-0.429514,-0.181422,0.114784
62069,9.624586,-3.245728,1.761357,-0.168668,-0.212848,0.132462
62070,9.708924,-3.511730,1.707863,0.082496,-0.223418,0.150702
62071,9.777140,-3.534512,1.591992,0.351854,-0.213183,0.161528
62072,9.698332,-3.501541,1.538144,0.599313,-0.192486,0.179615
62073,9.625314,-3.340411,1.482258,0.819332,-0.187817,0.188587
62074,9.540406,-3.143601,1.243987,1.020674,-0.187905,0.198012
62075,9.531346,-2.946358,1.244507,1.181128,-0.193329,0.192817
62076,9.590583,-2.698695,1.207117,1.335965,-0.183133,0.192578
62077,9.610397,-2.430108,1.230062,1.419854,-0.167537,0.182386
62078,9.541332,-2.173567,1.242975,1.488520,-0.163950,0.168958
62079,9.507960,-1.932587,1.153339,1.524859,-0.174447,0.145776
62080,9.548930,-1.754463,1.107722,1.546027,-0.182897,0.128132
62081,9.562542,-1.627511,1.126096,1.532463,-0.187787,0.105228
62082,9.579712,-1.563700,0.994026,1.517631,-0.188368,0.084273
62083,9.628042,-1.509721,0.941636,1.487451,-0.189440,0.068619
62084,9.665997,-1.581256,1.005745,1.453697,-0.182688,0.048407
62085,9.692010,-1.548097,0.937100,1.441214,-0.186555,0.039463
62086,9.800500,-1.550451,0.957184,1.412044,-0.185113,0.029701
62087,9.764542,-1.462266,0.897751,1.401033,-0.184900,0.021128
62088,9.743412,-1.350593,0.903230,1.360123,-0.182046,0.015496
62089,9.764540,-1.170514,0.896336,1.275114,-0.179395,0.014081
62090,9.772403,-1.036392,0.940748,1.147337,-0.171559,0.018244
62091,9.762874,-1.001339,0.953378,1.001653,-0.173609,0.025143
62092,9.828820,-1.027871,0.936048,0.854851,-0.160808,0.024134
62093,9.909392,-0.981800,0.946554,0.703467,-0.150215,0.030856
62094,9.928405,-1.050213,0.992646,0.553403,-0.137210,0.029912
62095,9.867140,-1.114865,0.984166,0.421666,-0.116711,0.022866
62096,9.874433,-1.111178,1.011112,0.302146,-0.104284,0.025801
62097,9.916462,-0.997889,0.952329,0.170001,-0.086020,0.025584
62098,9.863188,-0.993547,0.938261,-0.000660,-0.060095,0.015227
62099,9.793713,-1.047615,1.073942,-0.169402,-0.030132,0.015432
62100,9.791771,-1.121214,1.110778,-0.316663,-0.000383,0.007626
62101,9.773922,-1.092422,1.178936,-0.466551,0.020645,-0.000336
62102,9.740798,-1.139913,1.220327,-0.614834,0.040776,-0.008797
62103,9.748197,-1.198785,1.201146,-0.739374,0.054983,-0.010614
62104,9.732606,-1.281418,1.168636,-0.838949,0.058260,-0.011949
62105,9.702699,-1.485732,1.142497,-0.904404,0.074226,-0.005643
62106,9.705733,-1.689852,1.194207,-0.926828,0.068782,-0.004176
62107,9.699987,-1.796595,1.223960,-0.922327,0.076726,-0.002911
62108,9.723404,-1.881272,1.299181,-0.912486,0.076561,0.001488
62109,9.677882,-2.034151,1.334817,-0.874714,0.092794,0.002643
62110,9.604158,-2.134577,1.374980,-0.803376,0.090037,0.004621
62111,9.618951,-2.171025,1.468997,-0.730867,0.083581,0.008165
62112,9.631828,-2.232971,1.475762,-0.647368,0.077400,0.013938
62113,9.713238,-2.228591,1.524544,-0.574491,0.071468,0.014120
