// Start Time: Unknown
// Update Rate: 100.0Hz
// Filter Profile: human (46.1)
// Firmware Version: 4.3.5
PacketCounter,Acc_X,Acc_Y,Acc_Z,Gyr_X,Gyr_Y,Gyr_Z
22540,9.422217,-1.297672,0.910793,-0.067799,-0.112784,-0.026353
22541,9.508754,-1.347133,0.944223,-0.029994,-0.132925,-0.011903
22542,9.628029,-1.246108,1.110198,-0.018592,-0.138489,-0.011683
22543,9.764022,-1.155143,1.260788,-0.031239,-0.128454,-0.006224
22544,9.941068,-1.174141,1.370789,-0.042120,-0.093112,-0.009604
22545,9.949814,-1.235525,1.331963,-0.046797,-0.059317,-0.002273
22546,9.924799,-1.249250,1.307323,-0.047664,-0.042885,0.002017
22547,9.918262,-1.245833,1.214910,-0.042935,-0.041896,0.002817
22548,9.894646,-1.203419,1.119224,-0.038605,-0.038829,-0.004351
22549,9.911387,-1.213124,1.099707,-0.033914,-0.035476,-0.003309
22550,9.843315,-1.200806,1.054605,-0.033971,-0.030762,-0.002823
22551,9.818683,-1.243242,1.050799,-0.042394,-0.036285,0.004383
22552,9.764535,-1.268622,1.042856,-0.056583,-0.040809,0.005429
22553,9.772400,-1.331490,1.006776,-0.054362,-0.049566,0.015659
22554,9.699594,-1.376102,1.066799,-0.051822,-0.040871,0.028691
22555,9.643545,-1.346287,1.020869,-0.040143,-0.043760,0.037314
22556,9.626458,-1.312100,1.012626,-0.034969,-0.047228,0.045824
22557,9.635095,-1.265595,1.023463,-0.026882,-0.043036,0.052868
22558,9.628247,-1.238793,1.069022,-0.023398,-0.040696,0.055429
22559,9.668505,-1.183340,1.030699,-0.031155,-0.037566,0.057338
22560,9.694064,-1.175850,1.046017,-0.028063,-0.029243,0.048747
22561,9.703456,-1.157996,1.077802,-0.032755,-0.017767,0.042072
22562,9.771089,-1.145620,1.098363,-0.030726,-0.009767,0.027879
22563,9.740718,-1.101442,1.075532,-0.027033,0.001017,0.016938
22564,9.716892,-1.088204,1.003403,-0.024363,0.002866,0.003082
22565,9.718786,-0.975150,1.050023,-0.030944,-0.002844,-0.016546
22566,9.756040,-0.881061,1.031346,-0.049432,0.007006,-0.039840
22567,9.776891,-0.946159,1.019186,-0.065613,0.009578,-0.056366
22568,9.823728,-0.997004,1.026480,-0.074263,0.021648,-0.069863
22569,9.793903,-1.114660,0.996367,-0.090724,0.029070,-0.075074
22570,9.773907,-1.209387,1.000873,-0.092290,0.030133,-0.081517
22571,9.704704,-1.301717,0.913886,-0.079011,0.020979,-0.086013
22572,9.682870,-1.308191,0.860766,-0.075703,0.005004,-0.090014
22573,9.697332,-1.308567,0.878285,-0.076810,-0.010905,-0.082917
22574,9.725105,-1.318030,0.913314,-0.081686,-0.020419,-0.070245
22575,9.763247,-1.391369,0.881955,-0.073982,-0.017608,-0.048933
22576,9.770686,-1.420076,0.828574,-0.075611,-0.025446,-0.026564
22577,9.729179,-1.422547,0.821029,-0.074162,-0.037409,-0.006923
22578,9.754333,-1.381321,0.816553,-0.080983,-0.043325,0.010382
22579,9.755400,-1.412794,0.829422,-0.081801,-0.048039,0.023276
22580,9.752532,-1.415028,0.858121,-0.069107,-0.046713,0.034306
22581,9.720004,-1.400581,0.883764,-0.057430,-0.051965,0.042627
22582,9.713232,-1.374211,0.928345,-0.046486,-0.052596,0.054078
22583,9.718925,-1.327559,0.973136,-0.039421,-0.057346,0.058166
22584,9.794356,-1.237813,0.987370,-0.039841,-0.055616,0.076368
22585,9.774130,-1.206019,1.013400,-0.036951,-0.051847,0.078117
22586,9.759448,-1.175967,0.971432,-0.033292,-0.040982,0.067246
22587,9.749233,-1.204705,0.932797,-0.032131,-0.031339,0.063104
22588,9.693364,-1.205308,0.908173,-0.027246,-0.017882,0.047296
22589,9.706436,-1.217166,0.925515,-0.010419,-0.004324,0.022386
22590,9.703557,-1.301110,0.858738,0.000441,0.008014,0.001895
22591,9.775149,-1.314616,0.865686,0.033869,0.004677,-0.018965
22592,9.916619,-1.368958,0.931857,0.042281,0.009496,-0.029842
22593,9.933964,-1.403630,0.936345,0.050112,0.015748,-0.041543
22594,9.917507,-1.359996,0.935518,0.055144,0.005654,-0.049210
22595,10.030859,-1.336351,0.927627,0.068213,-0.000249,-0.049816
22596,10.007396,-1.315656,0.857118,0.065690,0.007139,-0.045724
22597,9.952436,-1.306031,0.836988,0.065485,0.011136,-0.038074
22598,9.904309,-1.187755,0.796535,0.056920,0.015779,-0.026136
22599,9.828272,-1.111148,0.790428,0.047866,0.024939,-0.021883
22600,9.776170,-1.050120,0.856288,0.025434,0.024878,-0.019704
22601,9.784007,-1.053811,0.946484,-0.018233,0.029686,-0.020037
22602,9.774150,-1.074701,0.915054,-0.048029,0.043101,-0.013783
22603,9.693556,-1.111090,0.896251,-0.067497,0.045994,-0.013563
22604,9.684530,-1.161770,0.883930,-0.074605,0.051528,-0.013966
22605,9.659319,-1.202842,0.887716,-0.071010,0.056937,-0.018252
22606,9.617947,-1.233905,0.907648,-0.063183,0.061622,-0.026521
22607,9.601529,-1.222171,0.928672,-0.061817,0.065696,-0.034895
22608,9.587139,-1.181636,0.897241,-0.061057,0.067308,-0.040931
22609,9.612751,-1.165351,0.922504,-0.068108,0.076714,-0.044499
22610,9.564065,-1.188142,0.856294,-0.074404,0.075236,-0.048317
22611,9.576369,-1.163646,0.862723,-0.083357,0.069442,-0.038567
22612,9.583078,-1.192355,0.817622,-0.082287,0.063456,-0.030074
22613,9.604642,-1.147709,0.857855,-0.081343,0.058290,-0.017887
22614,9.591926,-1.168304,0.861502,-0.084449,0.048297,-0.005964
22615,9.620259,-1.157169,0.849719,-0.086395,0.041689,0.004719
22616,9.645462,-1.146262,0.871718,-0.091915,0.035883,0.016770
22617,9.670603,-1.136418,0.892980,-0.097277,0.026901,0.024845
22618,9.653769,-1.130541,0.909881,-0.110074,0.023242,0.024295
22619,9.679822,-1.150563,0.947844,-0.115107,0.014179,0.021541
22620,9.679506,-1.153320,0.947727,-0.117686,0.011094,0.012630
22621,9.697322,-1.223213,0.967373,-0.111401,0.002107,0.003429
22622,9.768864,-1.238419,0.972820,-0.099431,-0.001635,-0.002474
22623,9.744141,-1.280856,0.969750,-0.082216,-0.008115,-0.007018
22624,9.770043,-1.267932,0.987192,-0.063155,-0.013419,-0.015666
22625,9.762604,-1.206430,1.017833,-0.061087,-0.017773,-0.024039
22626,9.778630,-1.183712,0.981672,-0.058395,-0.019647,-0.034729
22627,9.802587,-1.220354,0.912500,-0.065291,-0.017312,-0.039101
22628,9.846115,-1.243009,0.931401,-0.073883,-0.019299,-0.043358
22629,9.850815,-1.269351,0.911886,-0.077251,-0.021682,-0.045975
22630,9.826905,-1.307279,0.907104,-0.076438,-0.022370,-0.052282
22631,9.869847,-1.298798,0.907440,-0.073145,-0.025677,-0.062168
22632,9.835940,-1.327102,0.849540,-0.066661,-0.021118,-0.065157
22633,9.845032,-1.381218,0.812923,-0.047854,-0.031046,-0.063599
22634,9.803137,-1.349368,0.788337,-0.028162,-0.023424,-0.061506
22635,9.761136,-1.317688,0.764300,-0.004292,-0.026637,-0.057443
22636,9.695684,-1.246929,0.807162,0.004487,-0.027799,-0.057188
22637,9.629123,-1.146599,0.832214,0.004550,-0.030166,-0.057482
22638,9.596270,-1.093481,0.843343,-0.009328,-0.027096,-0.062784
22639,9.601268,-1.117323,0.824265,-0.023300,-0.019320,-0.067502
22640,9.636013,-1.158112,0.808523,-0.040164,-0.010651,-0.073440
22641,9.643384,-1.240640,0.825834,-0.039070,-0.008828,-0.071239
22642,9.705070,-1.298165,0.847413,-0.022535,-0.015307,-0.073238
22643,9.797164,-1.313943,0.801723,-0.006898,-0.016402,-0.068343
22644,9.833011,-1.273310,0.854546,0.005948,-0.021306,-0.065257
22645,9.828545,-1.207567,0.851384,0.016353,-0.025952,-0.058877
22646,9.821047,-1.141914,0.882315,0.015763,-0.028451,-0.056569
22647,9.804262,-1.097923,0.877913,0.007544,-0.026422,-0.055715
22648,9.790045,-1.113631,0.908632,-0.007700,-0.031502,-0.049558
22649,9.811504,-1.147499,0.872770,-0.023378,-0.032027,-0.051033
22650,9.812330,-1.143046,0.869321,-0.023572,-0.032805,-0.043916
22651,9.814490,-1.168507,0.883649,-0.017751,-0.030673,-0.044601
22652,9.785417,-1.147080,0.877978,-0.016607,-0.027270,-0.045810
22653,9.768412,-1.104486,0.873137,-0.013048,-0.031960,-0.044081
22654,9.764867,-1.070318,0.886969,-0.012560,-0.024762,-0.045803
22655,9.754863,-1.058187,0.831445,-0.025609,-0.024605,-0.038634
22656,9.750586,-1.105872,0.776518,-0.030672,-0.028993,-0.040850
22657,9.728506,-1.115358,0.719241,-0.047534,-0.034534,-0.037690
22658,9.739720,-1.061464,0.698019,-0.053851,-0.045475,-0.031878
22659,9.736720,-1.080923,0.588229,-0.076489,-0.057119,-0.024916
22660,9.693835,-1.053870,0.560150,-0.098506,-0.070221,-0.017150
22661,9.672230,-0.985116,0.566591,-0.128505,-0.088430,-0.009405
22662,9.695728,-0.972718,0.609758,-0.159827,-0.100668,0.000738
22663,9.734555,-0.999546,0.687202,-0.202435,-0.112589,0.002032
22664,9.839243,-1.120897,0.768834,-0.228169,-0.103104,0.006800
22665,9.836942,-1.213397,0.911987,-0.225461,-0.089985,0.009820
22666,9.877573,-1.272531,1.008357,-0.200531,-0.063533,0.013332
22667,9.944723,-1.289177,1.074818,-0.164926,-0.043947,0.012028
22668,9.970652,-1.279197,1.089323,-0.123738,-0.015797,0.007288
22669,9.968063,-1.281213,1.122185,-0.088959,0.011650,0.002464
22670,9.982327,-1.260595,1.090806,-0.057362,0.045491,0.000812
22671,9.948412,-1.233326,0.938411,-0.030220,0.077455,-0.005352
22672,9.851694,-1.311838,0.817433,-0.011594,0.097818,-0.006185
22673,9.783522,-1.376782,0.682656,0.014724,0.099440,-0.015764
22674,9.748068,-1.408165,0.637574,0.058926,0.094331,-0.017325
22675,9.764094,-1.413971,0.631415,0.109179,0.085916,-0.023891
22676,9.716345,-1.215327,0.639310,0.147635,0.076978,-0.021348
22677,9.712082,-1.042215,0.666526,0.150443,0.067254,-0.025922
22678,9.713710,-0.928327,0.692163,0.112012,0.057062,-0.028420
22679,9.749913,-0.921553,0.770346,0.050559,0.049302,-0.022163
22680,9.878589,-0.967062,0.820320,-0.014302,0.051070,-0.008767
22681,9.927597,-1.052204,0.846093,-0.055356,0.055412,0.002113
22682,9.935820,-1.112528,0.817022,-0.067343,0.063583,0.008711
22683,9.873645,-1.190398,0.799502,-0.058151,0.061848,0.013455
22684,9.817553,-1.187575,0.783063,-0.021572,0.059625,0.014027
22685,9.740659,-1.146543,0.799934,0.002221,0.058265,0.014647
22686,9.653216,-1.096349,0.764141,0.029492,0.058530,0.014199
22687,9.558447,-1.016613,0.780053,0.039931,0.059456,0.014063
22688,9.519114,-0.941386,0.817388,0.035534,0.047329,0.015380
22689,9.533639,-0.920846,0.788765,0.014991,0.043908,0.008213
22690,9.560135,-0.938735,0.829799,-0.010351,0.042506,0.004227
22691,9.582097,-1.007189,0.817569,-0.031649,0.037358,0.003054
22692,9.646025,-1.071511,0.808545,-0.049521,0.036183,0.001116
22693,9.694922,-1.157442,0.832169,-0.060472,0.030379,0.003213
22694,9.721452,-1.255706,0.801127,-0.060914,0.027094,0.001787
22695,9.755583,-1.303035,0.788196,-0.045199,0.022996,0.002685
22696,9.798631,-1.329776,0.810789,-0.021088,0.019387,0.011274
22697,9.755075,-1.304934,0.791338,0.002362,0.014000,0.006816
22698,9.756558,-1.275562,0.741012,0.014429,0.009050,0.012498
22699,9.729589,-1.179052,0.774863,0.022793,0.000024,0.010710
22700,9.733976,-1.129406,0.827693,0.016561,-0.005428,0.009929
22701,9.728101,-1.070590,0.827298,0.003943,-0.005334,0.006219
22702,9.686165,-1.075342,0.822899,-0.010535,-0.006461,0.006600
22703,9.699581,-1.084869,0.840150,-0.019670,-0.014972,0.007686
22704,9.699608,-1.085633,0.838860,-0.028981,-0.006196,0.003850
22705,9.758004,-1.090582,0.825825,-0.035389,-0.004593,0.004009
22706,9.705395,-1.146621,0.837139,-0.038403,-0.002953,0.006502
22707,9.753423,-1.142590,0.771381,-0.038249,-0.003720,0.002787
22708,9.729346,-1.185594,0.767908,-0.037663,-0.005159,0.003585
22709,9.724932,-1.156670,0.783934,-0.036959,-0.011302,0.003750
22710,9.771341,-1.182904,0.768588,-0.035153,-0.017964,0.005825
22711,9.768350,-1.183988,0.801147,-0.031122,-0.011478,0.002791
22712,9.756366,-1.205996,0.797905,-0.033460,-0.019926,0.008530
22713,9.769848,-1.215647,0.814218,-0.032240,-0.014910,0.003962
22714,9.787829,-1.254282,0.813093,-0.024320,-0.023256,-0.002357
22715,9.800099,-1.232759,0.812203,-0.019629,-0.016606,-0.007989
22716,9.803371,-1.231456,0.776090,-0.011430,-0.014623,-0.011925
22717,9.818493,-1.268835,0.810058,-0.001987,-0.013915,-0.017667
22718,9.836702,-1.305178,0.809908,0.010266,-0.011734,-0.021874
22719,9.865509,-1.290164,0.794734,0.019237,-0.002451,-0.019234
22720,9.876084,-1.376954,0.777055,0.030429,-0.006051,-0.022591
22721,9.821262,-1.289743,0.825005,0.050321,-0.010698,-0.025695
22722,9.829285,-1.235695,0.843406,0.061490,-0.008010,-0.031817
22723,9.805816,-1.214107,0.772531,0.061988,-0.000808,-0.033472
22724,9.798794,-1.180966,0.824820,0.062155,-0.001586,-0.037188
22725,9.820178,-1.214643,0.792301,0.054076,0.001950,-0.039731
22726,9.847646,-1.167266,0.761207,0.049080,0.001489,-0.045085
22727,9.845122,-1.162775,0.796767,0.043675,0.011210,-0.045470
22728,9.848583,-1.157681,0.763726,0.037986,0.006657,-0.045134
22729,9.813066,-1.136604,0.831258,0.036162,0.009363,-0.044131
22730,9.813460,-1.131953,0.832952,0.026163,0.017964,-0.045362
22731,9.798859,-1.148826,0.868291,0.019170,0.020984,-0.045999
22732,9.755727,-1.118577,0.849947,0.013816,0.028348,-0.046705
22733,9.784437,-1.100894,0.838170,0.004015,0.029881,-0.048875
22734,9.744381,-1.130418,0.854670,-0.012881,0.032854,-0.048285
22735,9.782331,-1.171755,0.809200,-0.012887,0.043060,-0.054156
22736,9.787304,-1.196111,0.795825,-0.015021,0.037778,-0.055204
22737,9.775822,-1.211857,0.798159,-0.002647,0.037602,-0.059723
22738,9.788017,-1.185225,0.803309,0.002648,0.042114,-0.049229
22739,9.765312,-1.112890,0.823359,0.007659,0.042579,-0.043871
22740,9.777267,-1.087349,0.828886,0.002346,0.043643,-0.041806
22741,9.767043,-1.074460,0.780354,-0.005839,0.045570,-0.040968
22742,9.774134,-1.019613,0.803398,-0.012898,0.050915,-0.041309
22743,9.762324,-1.037198,0.806886,-0.021693,0.050337,-0.038185
22744,9.762293,-1.033723,0.811701,-0.032231,0.054038,-0.037467
22745,9.778882,-1.038621,0.800647,-0.031049,0.051170,-0.035867
22746,9.763819,-1.057132,0.838396,-0.034583,0.051867,-0.034497
22747,9.738550,-1.066974,0.823227,-0.035250,0.051706,-0.031898
22748,9.743333,-1.093947,0.810782,-0.027974,0.052749,-0.026099
22749,9.751634,-1.070884,0.851389,-0.029914,0.053866,-0.021702
22750,9.711250,-1.043416,0.800552,-0.024100,0.049795,-0.019555
22751,9.724410,-1.050448,0.823746,-0.028909,0.051767,-0.016390
22752,9.694038,-1.032564,0.825902,-0.029147,0.054878,-0.012363
22753,9.673580,-1.074078,0.793518,-0.033238,0.050727,-0.009027
22754,9.689999,-1.081848,0.781978,-0.029833,0.044517,-0.003908
22755,9.687902,-1.112127,0.837453,-0.031598,0.044860,-0.003227
22756,9.679222,-1.133180,0.805431,-0.028777,0.040077,0.001092
22757,9.705799,-1.090248,0.777488,-0.027498,0.038798,-0.000707
22758,9.707105,-1.120293,0.797929,-0.025645,0.036096,-0.001705
22759,9.718606,-1.098893,0.802347,-0.026008,0.030478,-0.003454
22760,9.736782,-1.136673,0.806066,-0.027453,0.025365,-0.007122
22761,9.703118,-1.120102,0.839629,-0.023444,0.021661,-0.004284
22762,9.744833,-1.115086,0.845541,-0.022608,0.017122,-0.007516
22763,9.738118,-1.165241,0.827955,-0.023549,0.012933,-0.010068
22764,9.754910,-1.172597,0.813063,-0.018342,0.010306,-0.008710
22765,9.734685,-1.164279,0.863859,-0.016497,0.007611,-0.009708
22766,9.749937,-1.141636,0.831526,-0.009012,0.005558,-0.007912
22767,9.744946,-1.111289,0.849232,-0.000134,0.003815,-0.011313
22768,9.748536,-1.109858,0.814818,0.001025,-0.005300,-0.006949
22769,9.745192,-1.109590,0.848629,-0.009244,-0.004742,-0.010301
22770,9.726948,-1.070773,0.846875,-0.014064,-0.002777,-0.007143
22771,9.728654,-1.100123,0.863402,-0.016848,-0.004272,-0.008699
22772,9.732279,-1.098839,0.828301,-0.019058,-0.007190,-0.009455
22773,9.745782,-1.106512,0.845873,-0.021144,-0.008530,-0.013609
22774,9.725757,-1.097930,0.894807,-0.026902,-0.010755,-0.013005
22775,9.772907,-1.121508,0.880289,-0.021503,-0.014144,-0.015366
22776,9.798181,-1.107742,0.898923,-0.025312,-0.010343,-0.009969
22777,9.786655,-1.128503,0.896215,-0.030702,-0.006961,-0.007608
22778,9.798525,-1.106618,0.896556,-0.019600,-0.012047,-0.007498
22779,9.787242,-1.066580,0.825143,-0.019335,-0.015156,-0.011535
22780,9.896702,-1.031641,0.695468,-0.014852,-0.029864,-0.025651
22781,9.810638,-0.856096,0.512706,-0.000168,-0.043645,-0.048054
22782,9.580518,-0.423331,0.197504,-0.024405,-0.059322,-0.064977
22783,9.344781,-0.129624,-0.054124,-0.138660,-0.107361,-0.103242
22784,9.419767,-0.018580,-0.076779,-0.308744,-0.201493,-0.149509
22785,9.629246,-0.303570,0.156647,-0.519617,-0.253216,-0.166971
22786,9.876922,-0.698934,0.434554,-0.691605,-0.260561,-0.128326
22787,9.993358,-1.248299,0.635459,-0.791776,-0.246463,-0.054516
22788,10.119983,-1.755970,0.814783,-0.804835,-0.214787,0.005309
22789,10.052106,-2.129788,0.910532,-0.775639,-0.186636,0.026497
22790,10.117504,-2.394687,1.124943,-0.690174,-0.200923,0.003827
22791,10.272253,-2.205075,1.847035,-0.560029,-0.154199,-0.040196
22792,10.107466,-1.973609,2.785407,-0.289631,-0.054612,-0.133280
22793,10.859577,-1.271005,3.712902,0.167131,0.081988,-0.223738
22794,11.262449,-0.693044,3.712394,0.531922,0.423723,-0.303160
22795,11.027555,-0.682096,3.259772,0.717630,0.804181,-0.361229
22796,10.462807,-0.863904,2.392755,0.777121,0.981674,-0.422580
22797,10.072643,-1.212837,1.467240,0.900947,0.958671,-0.499421
22798,9.862562,-1.166793,0.905585,1.004345,0.930182,-0.583800
22799,9.349177,-0.803452,0.291832,1.026120,0.912179,-0.603044
22800,8.603690,-0.448189,-0.706401,0.956735,0.804602,-0.539762
22801,8.091102,0.051395,-1.880247,0.681788,0.510889,-0.461169
22802,8.104180,0.291535,-2.548150,0.267843,0.148061,-0.390246
22803,8.307200,-0.132230,-2.522808,-0.209328,-0.119389,-0.286492
22804,8.572194,-0.748437,-1.830438,-0.540771,-0.257979,-0.179225
22805,8.939666,-1.083415,-0.387089,-0.730577,-0.332881,-0.062642
22806,9.290745,-1.563100,0.948608,-0.805931,-0.369180,0.050549
22807,9.846922,-1.783006,1.944831,-0.796735,-0.328877,0.153735
22808,10.287367,-1.766363,2.538090,-0.766197,-0.209968,0.218679
22809,10.569156,-1.751022,3.229028,-0.563532,-0.095332,0.250498
22810,11.060717,-1.699626,4.125050,-0.287949,0.068909,0.248188
22811,11.668843,-1.613137,4.721132,-0.086244,0.355504,0.236855
22812,11.674016,-1.598140,4.301165,0.063391,0.704166,0.224838
22813,10.680032,-2.038127,2.767760,0.339805,0.854494,0.208991
22814,9.881591,-2.340663,1.017161,0.728455,0.706501,0.174543
22815,9.634281,-2.352000,0.253266,1.021291,0.461049,0.167101
22816,9.536076,-2.016405,0.029009,1.063047,0.284311,0.193722
22817,9.277851,-1.564002,-0.397871,0.925312,0.200611,0.247977
22818,8.762172,-1.449924,-1.241528,0.713848,0.104704,0.314936
22819,8.326435,-1.536675,-1.984448,0.548229,-0.062670,0.398049
22820,8.051699,-1.522561,-2.104947,0.402353,-0.284498,0.496736
22821,8.235400,-1.190493,-1.279510,0.207921,-0.477931,0.599758
22822,8.814234,-0.990576,0.027050,-0.021538,-0.545727,0.698834
22823,9.313510,-1.046396,1.102993,-0.275477,-0.487426,0.793130
22824,9.797529,-1.072893,2.000788,-0.506210,-0.384902,0.867296
22825,10.294103,-1.216324,3.322737,-0.587321,-0.285695,0.874790
22826,11.080761,-1.370914,4.937363,-0.462602,-0.150512,0.848838
22827,11.975573,-1.519315,5.824991,-0.337010,0.155625,0.822279
22828,11.906097,-2.012415,5.333009,-0.161031,0.565265,0.745131
22829,11.120941,-2.973051,3.691763,0.245601,0.768917,0.645580
22830,10.289630,-3.387510,2.127702,0.846122,0.690780,0.539939
22831,10.057604,-3.028521,1.208870,1.339814,0.504631,0.425491
22832,9.842420,-2.475026,0.635364,1.631341,0.358154,0.344714
22833,9.385803,-2.006128,0.029506,1.666721,0.250674,0.298846
22834,8.960534,-1.536590,-0.672108,1.487208,0.150830,0.297434
22835,8.525336,-1.363283,-1.469962,1.222162,0.072862,0.343733
22836,7.935654,-1.608296,-1.997618,0.927531,-0.090551,0.423438
22837,7.720663,-1.478840,-1.613099,0.659004,-0.312470,0.504690
22838,8.286154,-0.951277,-0.364841,0.397995,-0.446090,0.561916
22839,8.913641,-0.541455,1.152303,0.108639,-0.391284,0.604352
22840,9.310270,-0.447343,2.401414,-0.157421,-0.237035,0.617257
22841,9.785337,-0.475509,3.756419,-0.348042,-0.066761,0.591168
22842,10.352575,-0.790008,4.730005,-0.439308,0.100573,0.545217
22843,10.891763,-1.456617,5.121570,-0.426820,0.326715,0.518411
22844,10.982855,-2.379692,4.755070,-0.308787,0.560156,0.483135
22845,10.749375,-3.497248,3.550661,-0.033119,0.689357,0.453612
22846,10.110197,-4.180612,2.161672,0.404579,0.658009,0.406503
22847,9.611745,-4.116418,1.270195,0.846948,0.477444,0.347751
22848,9.400126,-3.832985,0.518266,1.132301,0.285041,0.320272
22849,9.215467,-3.427998,-0.120177,1.250382,0.168012,0.333572
22850,8.786031,-3.101309,-0.672790,1.224554,0.091381,0.383746
22851,8.257819,-2.744112,-1.093059,1.112985,-0.027971,0.440559
22852,7.866840,-2.246236,-1.269268,0.924936,-0.192545,0.492822
22853,7.927487,-1.658610,-0.639666,0.686273,-0.353663,0.537362
22854,8.617954,-0.974492,0.827667,0.376045,-0.398725,0.573383
22855,9.268027,-0.624606,2.174758,-0.014307,-0.280513,0.618404
22856,9.528248,-0.563926,3.065597,-0.356363,-0.128879,0.630088
22857,9.846931,-0.699855,3.759673,-0.556878,-0.031105,0.601385
22858,10.418530,-1.071758,4.826673,-0.702132,0.082949,0.562344
22859,11.101193,-1.801956,5.432140,-0.799990,0.290092,0.536253
22860,10.961334,-3.121918,4.738301,-0.780349,0.600761,0.510780
22861,9.696339,-4.683277,3.223378,-0.488327,0.700278,0.478755
22862,8.814257,-5.691051,1.631268,0.017782,0.513799,0.464629
22863,8.491925,-5.898615,0.747478,0.514856,0.251364,0.448418
22864,8.526469,-5.699756,0.206735,0.857730,0.079087,0.444804
22865,8.265535,-5.122779,0.008815,1.096580,0.009030,0.464391
22866,7.897468,-4.488482,-0.268493,1.166577,-0.086307,0.493944
22867,7.603764,-3.996061,-0.760236,1.149389,-0.210101,0.564938
22868,7.633546,-3.079278,-0.539251,1.052599,-0.354316,0.647189
22869,8.222645,-1.796255,0.701802,0.773898,-0.447199,0.709290
22870,8.909075,-0.887417,2.115722,0.299746,-0.409779,0.737179
22871,9.306224,-0.665371,3.126391,-0.126876,-0.255857,0.706268
22872,9.487919,-0.852799,4.167389,-0.401146,-0.102321,0.644392
22873,9.928896,-1.449160,5.098978,-0.618987,0.046915,0.590131
22874,10.145264,-2.483721,4.935921,-0.727407,0.250229,0.562537
22875,9.390403,-3.887828,4.132462,-0.674934,0.388595,0.473302
22876,8.784319,-5.255464,2.968366,-0.399312,0.366105,0.355601
22877,8.446702,-5.853087,1.943451,-0.004446,0.268849,0.297558
22878,8.421911,-6.053958,0.970951,0.325756,0.149864,0.300394
22879,8.444610,-6.051334,0.294787,0.620043,0.062209,0.350948
22880,8.179587,-5.802542,-0.210724,0.822070,-0.034117,0.429834
22881,7.910841,-5.241384,-0.544196,0.915675,-0.136978,0.501516
22882,7.852408,-4.450477,-0.450465,0.919101,-0.266975,0.569751
22883,8.095808,-3.247454,0.586825,0.758310,-0.328217,0.619355
22884,8.344446,-2.087324,2.002437,0.458091,-0.320051,0.649734
22885,8.860315,-1.284666,3.479821,0.070637,-0.232723,0.645870
22886,9.320178,-1.265728,4.160607,-0.325604,-0.059704,0.630086
22887,9.320874,-2.074480,4.168208,-0.599707,0.112300,0.598847
22888,9.167875,-3.306195,3.882642,-0.693042,0.175270,0.554285
22889,9.106395,-4.358113,3.522240,-0.583444,0.195267,0.529900
22890,8.911695,-5.201400,2.949432,-0.376578,0.206921,0.503266
22891,8.667348,-5.888785,2.090848,-0.068042,0.167214,0.475341
22892,8.650188,-6.371808,1.338594,0.310984,0.054146,0.457986
22893,8.549656,-6.868170,0.631807,0.677938,-0.038332,0.449340
22894,8.096438,-7.303163,-0.442987,1.025746,-0.122074,0.475793
22895,7.598101,-6.931909,-0.835769,1.375290,-0.211200,0.542481
22896,7.693247,-5.511644,-0.146808,1.553470,-0.315291,0.631681
22897,8.107808,-3.814618,1.126416,1.430875,-0.351447,0.703112
22898,8.504541,-2.456460,2.159036,1.073843,-0.279338,0.711553
22899,8.821636,-1.578026,2.794430,0.641901,-0.166806,0.695912
22900,9.103635,-1.272290,3.254911,0.173417,-0.090246,0.659488
22901,9.267986,-1.572084,3.129033,-0.259238,-0.050448,0.595784
22902,9.269882,-2.068436,2.805998,-0.568003,-0.031917,0.502077
22903,9.263227,-2.702655,2.757382,-0.705093,-0.047116,0.395929
22904,9.409953,-3.481753,2.528533,-0.669084,-0.033706,0.299986
22905,9.380162,-4.305080,2.040930,-0.450230,-0.004376,0.233615
22906,9.286042,-4.778960,1.594708,-0.095821,-0.018222,0.186263
22907,9.286470,-4.597133,1.606967,0.243366,-0.062775,0.150460
22908,9.369696,-3.820745,1.834188,0.482513,-0.092235,0.093431
22909,9.284486,-2.966809,1.820016,0.598174,-0.087752,0.009182
22910,9.070098,-2.296153,1.589911,0.550923,-0.107902,-0.059870
22911,8.952966,-1.825308,1.407047,0.387944,-0.139619,-0.106092
22912,9.111298,-1.396511,1.421009,0.139153,-0.173194,-0.129542
22913,9.386566,-1.279436,1.690512,-0.223578,-0.151984,-0.145076
22914,9.500176,-1.639243,1.587073,-0.616992,-0.082923,-0.160907
22915,9.173168,-2.123721,1.199021,-0.965916,-0.056314,-0.164481
22916,8.914190,-2.632793,1.117608,-1.195254,-0.143909,-0.205179
22917,9.316954,-2.884242,2.120960,-1.384951,-0.239517,-0.258316
22918,9.828762,-3.189414,3.505757,-1.549991,-0.159838,-0.341756
22919,10.211171,-3.801036,4.270315,-1.511125,0.056697,-0.436966
22920,9.995933,-4.919816,3.809678,-1.171403,0.295540,-0.490586
22921,9.460742,-5.897127,3.121088,-0.597296,0.340112,-0.520193
22922,9.310326,-5.994475,2.716901,-0.003256,0.238733,-0.554566
22923,9.635293,-5.031954,2.605386,0.434760,0.164941,-0.645773
22924,9.614796,-4.108668,1.999713,0.753209,0.221840,-0.791592
22925,9.062569,-3.428389,1.379488,0.959888,0.282333,-0.928530
22926,8.536716,-3.067454,1.011253,0.940818,0.229819,-0.990025
22927,8.267569,-2.933977,0.408705,0.802771,0.106639,-0.968479
22928,8.229131,-2.800495,-0.023497,0.570436,-0.009120,-0.884023
22929,8.282994,-2.669964,-0.120952,0.228644,-0.119040,-0.773665
22930,8.710159,-2.326380,0.456874,-0.189797,-0.213632,-0.686846
22931,9.419768,-1.755285,1.591000,-0.688272,-0.206454,-0.652964
22932,9.977674,-1.292708,2.732497,-1.201672,-0.065910,-0.674580
22933,10.235741,-1.530605,3.353540,-1.631419,0.127668,-0.697572
22934,10.245589,-2.561063,3.512219,-1.786159,0.314744,-0.703349
22935,10.088172,-3.917339,3.458345,-1.659953,0.417881,-0.693224
22936,10.210394,-4.768526,3.461862,-1.415930,0.469788,-0.690096
22937,10.312263,-5.065594,3.275942,-1.040483,0.523764,-0.727569
22938,10.198751,-4.886672,2.861258,-0.567285,0.599762,-0.802836
22939,9.814452,-4.687933,2.022527,-0.036971,0.615154,-0.903581
22940,9.491356,-4.390736,1.444406,0.374193,0.590949,-0.983025
22941,9.207529,-4.126544,1.184943,0.614114,0.532097,-1.023614
22942,9.159880,-3.653705,1.074470,0.763239,0.480289,-1.020149
22943,9.410774,-3.130135,1.238320,0.731020,0.437023,-0.969506
22944,9.759850,-2.604101,1.486419,0.584763,0.435351,-0.914555
22945,9.842034,-2.083686,2.087915,0.344352,0.462235,-0.881841
22946,9.882292,-1.383944,3.039554,0.046942,0.486605,-0.874735
22947,10.195643,-0.713523,4.025811,-0.349376,0.564495,-0.899217
22948,10.673023,-0.735684,4.597003,-0.732362,0.715358,-0.924721
22949,10.982181,-1.288569,4.680361,-1.006830,0.934738,-0.900380
22950,10.322677,-2.236812,4.031077,-1.088934,1.121926,-0.873137
22951,9.554725,-3.264366,2.940416,-0.830686,1.159071,-0.860941
22952,9.097198,-4.042219,2.085897,-0.437390,1.072642,-0.808784
22953,8.651701,-4.383436,1.305694,-0.048385,0.937076,-0.769344
22954,8.347689,-4.228694,0.712863,0.313947,0.775331,-0.762077
22955,8.406585,-3.564634,0.579608,0.661669,0.602042,-0.760607
22956,8.475109,-2.800162,0.519586,0.878186,0.473694,-0.758641
22957,8.785444,-2.072450,0.582795,0.918367,0.356118,-0.730337
22958,8.936666,-1.461363,0.777563,0.798208,0.263302,-0.684001
22959,9.046161,-0.790423,1.226886,0.550936,0.163890,-0.629998
22960,9.123375,-0.195259,2.104955,0.138621,0.098918,-0.587782
22961,9.322902,0.284296,3.277668,-0.394538,0.110822,-0.548733
22962,9.661269,0.356140,3.994262,-0.969396,0.204562,-0.494638
22963,10.069623,-0.165059,4.551386,-1.485790,0.408166,-0.428401
22964,10.090520,-1.315029,4.756553,-1.782175,0.645881,-0.365326
22965,10.049472,-2.584100,4.654215,-1.799111,0.819787,-0.305220
22966,9.580357,-3.929061,4.151814,-1.544856,0.919405,-0.275963
22967,9.256203,-4.760032,3.844650,-1.101717,0.913730,-0.251946
22968,8.943079,-5.020665,3.692093,-0.601766,0.842433,-0.226135
22969,8.931148,-4.650300,3.641080,-0.129142,0.803218,-0.225300
22970,8.801977,-4.109054,3.051343,0.308012,0.786370,-0.236775
22971,8.540873,-3.458519,2.390034,0.668537,0.777270,-0.257623
22972,8.119928,-2.818200,1.689456,0.882250,0.701951,-0.279767
22973,8.012106,-2.259526,1.311304,0.996566,0.550388,-0.284715
22974,8.316033,-1.578278,1.401024,0.973549,0.391304,-0.252371
22975,8.423263,-0.829565,1.544470,0.784967,0.232336,-0.210971
22976,8.670707,-0.140675,1.843680,0.426598,0.079658,-0.174724
22977,8.886177,0.391306,2.618716,-0.088670,-0.015562,-0.146572
22978,9.032547,0.538710,3.769743,-0.720641,-0.045966,-0.109128
22979,9.023735,-0.160398,4.671330,-1.317634,0.047233,-0.061626
22980,9.015689,-1.546520,4.446744,-1.584391,0.125806,0.032769
22981,9.201122,-2.893846,4.634070,-1.621085,0.239181,0.147287
22982,9.437088,-4.228640,4.647903,-1.444617,0.295458,0.259232
22983,9.959408,-4.975533,4.827317,-1.090054,0.343240,0.378673
22984,10.075679,-5.204406,4.801294,-0.691746,0.469428,0.460769
22985,9.702867,-5.143764,4.506315,-0.232813,0.554342,0.513440
22986,9.325244,-4.722284,4.380812,0.132571,0.547880,0.563615
22987,9.030967,-4.240585,4.128516,0.337278,0.548101,0.604932
22988,8.554090,-3.927900,3.115682,0.505042,0.507832,0.653320
22989,8.523698,-3.558585,2.940438,0.605083,0.432463,0.731729
22990,8.349479,-3.265170,3.032636,0.566910,0.406483,0.784062
22991,8.349973,-2.911434,3.022472,0.457755,0.344664,0.850629
22992,8.325269,-2.530469,3.156500,0.276362,0.297662,0.921347
22993,8.266479,-2.477719,2.892096,0.139590,0.247177,0.992376
22994,8.555722,-2.449546,3.026046,-0.069586,0.150154,1.109993
22995,8.874979,-2.739992,3.264040,-0.307506,0.106084,1.210992
22996,9.066620,-3.059892,4.344596,-0.526281,0.094144,1.290863
22997,9.078383,-3.344012,5.505579,-0.679513,0.186427,1.332586
22998,9.002364,-3.542778,6.084342,-0.688127,0.343963,1.335635
22999,9.340241,-3.986698,6.175708,-0.652093,0.481757,1.396871
23000,9.462256,-4.510020,5.876745,-0.514824,0.650978,1.505767
23001,9.299627,-4.923995,5.331682,-0.314801,0.775956,1.617044
23002,8.992760,-5.266975,5.116425,-0.167790,0.841359,1.692073
23003,8.642167,-5.482008,4.856608,-0.049963,0.855444,1.717619
23004,8.267835,-5.493769,4.529225,0.141113,0.882317,1.700306
23005,7.928967,-5.163988,4.384410,0.330691,0.907519,1.659518
23006,7.540830,-4.648819,4.080956,0.488495,0.923443,1.606322
23007,7.275326,-3.968495,3.861498,0.454280,0.866584,1.586836
23008,7.115208,-3.407599,3.728096,0.273830,0.789458,1.583650
23009,7.120778,-2.951670,3.638127,0.035925,0.692851,1.600167
23010,7.101832,-2.786510,3.353566,-0.247501,0.602778,1.595508
23011,6.974580,-2.727379,3.141412,-0.570732,0.482421,1.577697
23012,7.034651,-2.877427,3.306381,-0.941740,0.342640,1.557095
23013,7.099207,-3.505199,4.016308,-1.275561,0.265789,1.500907
23014,7.041192,-4.244463,5.225457,-1.514423,0.269886,1.412317
23015,6.890016,-5.219158,5.974499,-1.591203,0.362350,1.327439
23016,6.696490,-6.151453,6.096795,-1.387557,0.494481,1.280808
23017,6.528533,-6.738311,6.013162,-1.059447,0.600554,1.296839
23018,6.520520,-6.827633,5.753488,-0.679882,0.672577,1.340467
23019,6.528511,-6.499344,5.383103,-0.377500,0.741510,1.360475
23020,6.483651,-6.407370,4.999355,-0.153510,0.792782,1.331388
23021,6.419016,-6.378235,4.669213,0.064444,0.821273,1.255945
23022,6.346831,-6.227465,4.381566,0.265552,0.821708,1.145209
23023,5.981959,-5.940719,4.059975,0.412399,0.813103,1.027652
23024,5.483100,-5.490549,3.787420,0.454151,0.756134,0.916710
23025,5.203337,-4.771703,3.594836,0.345949,0.651777,0.845410
23026,4.877847,-4.175929,3.299894,0.144372,0.554493,0.756311
23027,4.777666,-3.761273,3.045163,-0.099763,0.424232,0.626289
23028,4.841123,-3.704536,3.009576,-0.403054,0.252264,0.492191
23029,4.898372,-3.933739,3.337636,-0.719379,0.091765,0.422955
23030,4.913339,-4.683865,3.692280,-0.986491,-0.031502,0.416358
23031,5.168279,-5.586096,4.114414,-1.107389,-0.101486,0.454093
23032,5.338810,-6.285836,4.706737,-1.138023,-0.115078,0.471109
23033,5.410094,-6.787207,5.302921,-1.057014,-0.073646,0.445131
23034,5.426771,-7.215677,5.703411,-0.835115,0.004758,0.414127
23035,5.279905,-7.428796,5.885600,-0.526878,0.095209,0.394304
23036,5.227508,-7.445365,5.554002,-0.167109,0.190269,0.368221
23037,5.129613,-7.355858,5.203992,0.172805,0.257217,0.312652
23038,5.097984,-6.975705,4.796827,0.406045,0.272207,0.240968
23039,4.982950,-6.295425,4.464295,0.545107,0.293646,0.121324
23040,4.746286,-5.590683,4.075140,0.567217,0.287581,0.002568
23041,4.637233,-5.023941,3.594256,0.457698,0.209694,-0.089863
23042,4.589230,-4.675279,3.246930,0.216563,0.099482,-0.154739
23043,4.555903,-4.600685,2.841136,-0.062707,-0.029248,-0.206144
23044,4.386106,-4.809955,2.853839,-0.351275,-0.173061,-0.244129
23045,4.231955,-5.187630,3.190711,-0.574136,-0.299025,-0.308656
23046,4.379977,-5.549032,3.836503,-0.751625,-0.421562,-0.335974
23047,5.072449,-6.191166,4.377395,-0.858966,-0.479842,-0.299839
23048,5.644443,-7.010922,5.054094,-0.835378,-0.466586,-0.253537
23049,6.136305,-7.456705,5.529092,-0.700344,-0.409008,-0.224055
23050,6.363011,-7.648207,5.665047,-0.469451,-0.273754,-0.255307
23051,6.273107,-7.661948,5.586947,-0.178426,-0.161305,-0.331181
23052,6.106569,-7.421011,5.614610,0.081446,-0.073136,-0.391617
23053,5.801558,-7.136230,5.444679,0.309293,0.023457,-0.419143
23054,5.356785,-6.888009,5.083123,0.486078,0.092132,-0.423991
23055,4.988393,-6.589466,4.545323,0.577844,0.131784,-0.413684
23056,4.968543,-6.113152,4.089055,0.589402,0.143293,-0.394853
23057,5.034977,-5.578522,3.570800,0.536513,0.142409,-0.378526
23058,5.209897,-5.039381,3.220208,0.433915,0.079155,-0.413151
23059,5.208456,-4.659539,3.097554,0.245010,-0.030965,-0.500260
23060,4.898422,-4.677273,3.403099,-0.014855,-0.149875,-0.623318
23061,4.473374,-5.041594,3.979542,-0.287634,-0.260956,-0.714120
23062,4.568573,-5.347748,4.365436,-0.488575,-0.374652,-0.757347
23063,5.124191,-5.702059,4.560727,-0.631277,-0.407207,-0.811798
23064,5.907472,-5.936760,5.123538,-0.678773,-0.379567,-0.850648
23065,6.660784,-6.148531,5.506985,-0.658045,-0.302836,-0.863146
23066,7.429563,-6.470629,5.454677,-0.580894,-0.238479,-0.868892
23067,7.859143,-6.897448,5.296425,-0.445551,-0.182060,-0.870926
23068,8.046639,-7.275360,4.982697,-0.254236,-0.130484,-0.881013
23069,7.797626,-7.583596,4.599549,-0.012981,-0.058291,-0.905065
23070,7.221581,-7.674705,4.341022,0.291118,0.034723,-0.935019
23071,6.377215,-7.650711,4.153429,0.584955,0.113903,-0.962369
23072,5.592036,-7.442084,3.888171,0.829901,0.135803,-0.975565
23073,5.106994,-7.047607,3.508219,1.013409,0.102977,-0.957515
23074,5.007424,-6.461355,2.956532,1.146222,0.012810,-0.925942
23075,5.076419,-5.741709,2.476068,1.176546,-0.148946,-0.906928
23076,5.437781,-4.792573,2.293072,1.041381,-0.344856,-0.914232
23077,6.052836,-3.919048,2.191391,0.781298,-0.518791,-0.977557
23078,6.688209,-3.087944,2.364954,0.408526,-0.659504,-1.038987
23079,7.095351,-2.535274,2.945878,-0.028027,-0.740256,-1.102333
23080,7.371027,-2.537458,3.650323,-0.478233,-0.790525,-1.136876
23081,7.796709,-3.088622,4.416441,-0.899362,-0.808194,-1.094359
23082,8.297585,-4.040274,5.269129,-1.199776,-0.728490,-1.009194
23083,8.625429,-5.292988,5.800905,-1.317042,-0.584884,-0.886456
23084,8.708682,-6.453099,6.092171,-1.252636,-0.411094,-0.788467
23085,8.549533,-7.609696,5.650265,-0.939543,-0.259548,-0.742050
23086,8.381854,-8.038693,5.269070,-0.496175,-0.191860,-0.712504
23087,8.032019,-7.930882,4.990559,-0.050155,-0.103281,-0.732322
23088,7.621168,-7.654643,4.443964,0.397201,-0.028749,-0.778045
23089,7.265964,-7.223913,3.909313,0.754882,0.004237,-0.798978
23090,6.959490,-6.605812,3.428262,1.023065,-0.011474,-0.793009
23091,6.809380,-5.898038,2.946054,1.194434,-0.073695,-0.775053
23092,6.919780,-5.119615,2.487701,1.248610,-0.195208,-0.771119
23093,7.093188,-4.212272,2.083403,1.138069,-0.324560,-0.790240
23094,7.336689,-3.262331,2.067228,0.856183,-0.477585,-0.808607
23095,7.621290,-2.417422,2.660320,0.430013,-0.583236,-0.819772
23096,7.893487,-2.185060,3.464202,-0.077621,-0.614978,-0.818468
23097,8.165648,-2.586724,4.169551,-0.533278,-0.612638,-0.809687
23098,8.653124,-3.300509,5.005255,-0.869271,-0.559815,-0.763081
23099,9.235771,-4.353692,5.821615,-0.993143,-0.409650,-0.702459
23100,9.828674,-5.358447,6.436474,-0.912072,-0.198510,-0.649043
23101,10.148656,-6.160842,6.673107,-0.629924,0.039535,-0.618878
23102,9.867481,-6.613161,6.508902,-0.227210,0.289356,-0.610999
23103,9.170608,-6.786012,5.850404,0.225436,0.470458,-0.635472
23104,8.343468,-6.512009,5.141943,0.633422,0.552714,-0.657446
23105,7.711816,-6.153519,4.244315,0.967524,0.557966,-0.676475
23106,7.283568,-5.652923,3.131818,1.274148,0.493146,-0.676105
23107,7.015027,-5.054215,2.123486,1.486472,0.388422,-0.660678
23108,6.820784,-4.476417,1.376591,1.608508,0.248366,-0.644040
23109,6.824344,-3.673109,1.079889,1.620265,0.068982,-0.618937
23110,7.041240,-2.650593,1.169772,1.467575,-0.104884,-0.589049
23111,7.337253,-1.915999,1.524636,1.145091,-0.246154,-0.561464
23112,7.571958,-1.378050,1.973927,0.695365,-0.383203,-0.530084
23113,7.831454,-1.219266,2.594094,0.148212,-0.525320,-0.489690
23114,8.374531,-1.610452,3.271504,-0.406693,-0.667163,-0.438331
23115,9.078271,-2.171280,3.961122,-0.800417,-0.758121,-0.365165
23116,9.700486,-2.899743,4.844327,-1.028992,-0.721155,-0.293628
23117,9.866317,-3.902964,6.142958,-1.132305,-0.534011,-0.275364
23118,10.043101,-4.587431,7.569704,-1.116979,-0.281277,-0.258990
23119,9.707590,-4.974981,7.876711,-0.885693,0.061634,-0.285375
23120,9.053583,-5.628607,6.422448,-0.247101,0.343025,-0.338602
23121,8.734888,-5.750231,4.965651,0.549929,0.430055,-0.330772
23122,8.574869,-5.312028,4.181541,1.082546,0.416902,-0.300179
23123,8.212713,-4.448968,3.390318,1.400069,0.359435,-0.305703
23124,7.862678,-3.587021,2.445798,1.578675,0.252296,-0.329773
23125,7.539589,-2.825231,1.539164,1.628087,0.099778,-0.356114
23126,7.325520,-2.278504,1.009092,1.506097,-0.072642,-0.362477
23127,7.327077,-1.871592,0.842238,1.252494,-0.228371,-0.335817
23128,7.329604,-1.581611,0.791828,0.954994,-0.368930,-0.274741
23129,7.573389,-1.489057,0.835246,0.603206,-0.536988,-0.186471
23130,7.860909,-1.784656,1.146404,0.258441,-0.717614,-0.092450
23131,8.228229,-1.936287,2.183353,-0.163058,-0.914328,0.008565
23132,8.983081,-2.285216,3.089180,-0.603855,-1.074528,0.131987
23133,10.015173,-2.842770,3.878708,-0.904352,-1.077746,0.254453
23134,10.804329,-3.600400,5.233635,-1.067463,-0.854994,0.369091
23135,10.795581,-4.554481,6.827815,-1.098983,-0.501952,0.433703
23136,10.415066,-5.532167,7.899971,-0.939405,-0.157566,0.466533
23137,9.927114,-6.440296,7.525252,-0.531100,0.111466,0.483537
23138,9.143717,-6.977983,6.195809,0.110128,0.230776,0.519831
23139,8.593495,-6.900880,4.720049,0.820112,0.180127,0.583585
23140,8.109951,-6.378309,3.222849,1.438535,0.028274,0.631048
23141,7.782585,-5.540940,2.018524,1.946363,-0.126461,0.634991
23142,7.439661,-4.320715,1.253188,2.253801,-0.251587,0.594335
23143,7.162549,-2.832639,1.079970,2.275766,-0.404329,0.543454
23144,7.062467,-1.648793,1.104847,2.030430,-0.580164,0.514754
23145,7.262418,-0.845930,0.993556,1.576001,-0.786216,0.538000
23146,7.968480,-0.468966,0.731334,1.042423,-0.993572,0.639383
23147,8.683693,-0.411465,0.859580,0.490688,-1.108390,0.792507
23148,8.874959,-0.684087,1.548852,-0.111310,-1.155718,0.904389
23149,8.721338,-1.317892,2.622678,-0.669562,-1.274215,0.944619
23150,9.522030,-1.892845,4.446525,-1.071340,-1.322664,0.895357
23151,10.643711,-2.469350,6.211866,-1.257214,-1.029300,0.773368
23152,10.654379,-3.225279,6.595636,-1.117051,-0.550536,0.662707
23153,9.805854,-4.660912,5.546077,-0.719419,-0.283193,0.607702
23154,9.042135,-6.363589,3.719929,-0.067161,-0.290034,0.634981
23155,8.123122,-6.908932,2.112557,0.701596,-0.505527,0.654346
23156,7.435361,-5.942177,0.816587,1.303733,-0.880911,0.651490
23157,7.190760,-4.952675,-0.885642,1.658896,-1.214400,0.634288
23158,7.169762,-4.006102,-2.018840,1.801006,-1.484620,0.633987
23159,8.089482,-3.387602,-1.668117,1.661807,-1.701979,0.727408
23160,9.080375,-2.921832,-0.614184,1.159454,-1.686950,0.906787
23161,9.491139,-2.483552,0.873997,0.512660,-1.543964,1.068130
23162,9.750653,-1.956321,2.618982,-0.021400,-1.379734,1.151848
23163,10.233214,-1.545703,4.710216,-0.570922,-1.145207,1.154039
23164,10.886368,-1.821678,6.169200,-1.156606,-0.787457,1.101844
23165,10.910738,-2.761724,6.649370,-1.536784,-0.341616,1.008514
23166,10.088614,-4.560151,5.528487,-1.508915,-0.023036,0.881043
23167,9.189059,-6.699445,3.807196,-0.893388,0.075701,0.782801
23168,8.480647,-7.629071,2.294525,-0.006542,-0.056733,0.726172
23169,8.036735,-7.588201,1.028490,0.802441,-0.307865,0.664209
23170,7.979874,-6.475707,0.370487,1.414596,-0.508040,0.575169
23171,7.890518,-4.827647,0.255695,1.796340,-0.673406,0.470720
23172,8.226378,-3.297679,0.266859,1.922390,-0.815336,0.392992
23173,8.692549,-2.239693,0.652381,1.698223,-0.786453,0.383442
23174,8.724566,-1.819112,0.993959,1.222153,-0.681982,0.419656
23175,8.612877,-1.838494,1.226405,0.717303,-0.618796,0.484029
23176,8.703823,-1.677573,2.079877,0.261001,-0.571274,0.541373
23177,9.009784,-1.857081,3.392992,-0.199253,-0.485358,0.517636
23178,9.710187,-2.125286,4.264809,-0.618679,-0.317449,0.458951
23179,9.392991,-3.068551,4.090722,-0.997822,-0.035545,0.350463
23180,8.487358,-4.735327,3.250966,-1.007546,0.061585,0.221135
23181,8.105746,-6.328808,2.632171,-0.727079,-0.030210,0.165585
23182,8.240652,-6.819414,2.453764,-0.423990,-0.075562,0.143154
23183,8.144844,-6.902620,1.902812,-0.062633,-0.042258,0.111313
23184,8.002623,-6.752906,1.121571,0.336405,-0.065421,0.099044
23185,8.063413,-6.516663,0.589646,0.611271,-0.167631,0.122424
23186,8.569283,-6.334837,0.387881,0.739926,-0.253604,0.187082
23187,8.960014,-5.457364,0.593653,0.824734,-0.262756,0.258293
23188,9.079998,-4.265618,1.137298,0.817331,-0.269643,0.311811
23189,9.401060,-3.022677,1.989334,0.680171,-0.221207,0.331940
23190,9.527503,-2.052830,2.470964,0.403773,-0.131371,0.311779
23191,9.617486,-1.990297,2.483110,0.066513,-0.128010,0.266859
23192,10.073434,-2.828068,2.589793,-0.136148,-0.071201,0.260722
23193,9.897380,-3.976299,2.320916,-0.201367,0.095913,0.277015
23194,9.329614,-4.876831,2.006619,-0.206131,0.173937,0.285835
23195,9.044879,-5.275600,1.591365,-0.081138,0.117716,0.280879
23196,9.218662,-5.043466,1.252192,0.088090,0.042254,0.294217
23197,9.379164,-4.291956,1.431917,0.229761,0.038155,0.278503
23198,9.545466,-3.492559,1.855652,0.310105,0.082591,0.203939
23199,9.610875,-3.416356,1.768337,0.318395,0.158186,0.142368
23200,9.233159,-3.628543,1.539432,0.402763,0.242527,0.088774
23201,8.976700,-3.265285,1.479312,0.508151,0.229438,0.028632
23202,8.913221,-2.230291,1.495722,0.464459,0.203517,-0.033128
23203,8.696108,-1.141621,1.524142,0.233725,0.225784,-0.142862
23204,8.501162,-0.584223,1.481829,-0.073220,0.228881,-0.292378
23205,8.631439,-0.626767,1.644447,-0.478708,0.235527,-0.416825
23206,8.690664,-1.085189,1.655132,-0.878434,0.277271,-0.517540
23207,8.632498,-1.697832,1.147497,-1.119479,0.308492,-0.601571
23208,8.626205,-2.244836,0.792684,-1.229886,0.250575,-0.662273
23209,9.001484,-2.444494,0.875131,-1.369032,0.190590,-0.728044
23210,9.314113,-2.542138,1.040537,-1.515276,0.191167,-0.815993
23211,9.259325,-2.806409,1.533529,-1.562175,0.179827,-0.953910
23212,9.919329,-3.056595,2.442399,-1.585896,0.176182,-1.092802
23213,10.460529,-3.454532,3.681948,-1.655382,0.326807,-1.202147
23214,10.605708,-4.175305,4.146868,-1.665559,0.531833,-1.299853
23215,10.555704,-5.285447,3.763645,-1.437577,0.743300,-1.330204
23216,10.056416,-6.671355,2.891829,-0.917829,0.833089,-1.275736
23217,9.403183,-7.820882,1.698361,-0.255605,0.790739,-1.207777
23218,8.559381,-8.242068,0.457511,0.366629,0.649922,-1.138562
23219,7.475220,-7.730041,-0.887557,1.019423,0.430969,-1.130022
23220,6.967250,-6.385029,-1.840086,1.594689,0.152424,-1.137446
23221,6.731198,-4.510253,-2.456303,1.796864,-0.098462,-1.087879
23222,6.884605,-2.579123,-2.849329,1.587950,-0.320194,-0.990377
23223,7.370645,-1.144471,-1.901054,0.947285,-0.480370,-0.860910
23224,8.731186,-0.461331,0.094466,-0.058707,-0.550741,-0.678046
23225,10.336736,-0.337114,1.369233,-1.181017,-0.389597,-0.483760
23226,10.681040,-0.644479,1.650444,-2.111132,-0.159866,-0.381516
23227,10.513401,-1.822399,1.409547,-2.718960,-0.103994,-0.388874
23228,10.222826,-3.230279,1.899122,-2.962803,-0.149681,-0.458845
23229,10.140256,-3.998365,3.947701,-2.920201,-0.185653,-0.567759
23230,11.372765,-4.229382,5.717757,-2.778903,0.038537,-0.612671
23231,11.290031,-5.193082,5.929347,-2.392924,0.502749,-0.638075
23232,10.779235,-6.897614,4.784056,-1.612248,0.805543,-0.622096
23233,9.530186,-8.223483,2.685677,-0.665416,0.916283,-0.535259
23234,8.767752,-8.189297,0.984601,0.287542,0.708557,-0.477922
23235,9.224721,-7.224687,0.579468,1.040783,0.457000,-0.470702
23236,9.492579,-5.427299,0.458302,1.536046,0.380756,-0.527679
23237,9.040740,-3.588875,-0.415924,1.823734,0.405093,-0.617224
23238,7.934802,-2.161085,-1.798066,1.931855,0.327019,-0.676318
23239,7.147996,-1.301566,-2.384678,1.742663,0.047306,-0.681970
23240,7.574428,-0.579448,-1.906740,1.266147,-0.287103,-0.606961
23241,8.539485,0.144552,-0.633894,0.514849,-0.370645,-0.502500
23242,9.112748,0.440229,0.738684,-0.298763,-0.256141,-0.432588
23243,9.731063,0.080512,1.828889,-1.000814,-0.095345,-0.374128
23244,9.993623,-0.572915,2.369056,-1.538494,0.058840,-0.347062
23245,10.084287,-1.329916,2.829232,-1.903992,0.147772,-0.374719
23246,10.370249,-2.128530,3.308653,-2.041856,0.207447,-0.429935
23247,10.837026,-2.632608,3.894020,-2.005723,0.339002,-0.496976
23248,11.021545,-3.070947,3.997021,-1.829589,0.545001,-0.584467
23249,10.899978,-3.629556,3.311336,-1.425261,0.695705,-0.668425
23250,10.313309,-4.221555,2.286650,-0.807199,0.734859,-0.731241
23251,9.408742,-4.334079,0.958445,-0.103384,0.621836,-0.780050
23252,8.577614,-3.663899,-0.025566,0.516451,0.410790,-0.829075
23253,8.345753,-2.556015,-0.560984,0.960079,0.143477,-0.866652
23254,8.604628,-1.279265,-0.295268,1.034332,-0.058787,-0.881170
23255,8.968206,-0.073714,0.247571,0.722421,-0.144894,-0.888223
23256,9.350503,0.699211,0.711540,0.252423,-0.126136,-0.897915
23257,9.660097,0.790958,1.351975,-0.239609,-0.068690,-0.884523
23258,9.999124,0.349717,1.968134,-0.713455,-0.024388,-0.855401
23259,10.370479,-0.252253,2.529895,-1.119466,0.051785,-0.821307
23260,10.516669,-0.913446,3.096433,-1.415573,0.152875,-0.805549
23261,10.637205,-1.499924,3.689047,-1.509175,0.252381,-0.795335
23262,10.854831,-1.937097,4.193198,-1.499145,0.404864,-0.785863
23263,10.957175,-2.533849,3.977238,-1.404848,0.615685,-0.774826
23264,10.458331,-3.422147,3.154044,-1.081556,0.779310,-0.757487
23265,9.931247,-4.175700,2.512184,-0.630874,0.819622,-0.722457
23266,9.603552,-4.579358,1.939387,-0.144069,0.797118,-0.660897
23267,9.277341,-4.464555,1.274679,0.350476,0.783791,-0.617026
23268,8.302854,-3.827383,-0.094890,0.819001,0.731717,-0.578797
23269,7.213738,-2.710939,-1.903922,1.189840,0.507316,-0.595240
23270,6.860617,-1.582503,-3.346285,1.453831,0.085185,-0.665949
23271,7.672588,-1.223112,-3.824134,1.556464,-0.309349,-0.636447
23272,7.391855,-0.067390,-3.260520,1.055508,-0.637361,-0.588786
23273,7.960649,0.396665,-2.236325,0.471645,-0.912672,-0.520124
23274,8.629573,0.829953,-0.805091,-0.136372,-1.004757,-0.415435
23275,9.345077,0.611920,0.427618,-0.866763,-1.024843,-0.280992
23276,10.027027,-0.058795,1.332148,-1.596686,-0.972838,-0.137286
23277,10.578865,-0.800408,2.007210,-2.136435,-0.892881,-0.016595
23278,10.933212,-1.667081,2.981797,-2.353265,-0.789818,0.066093
23279,11.095638,-2.757497,3.952863,-2.325768,-0.675139,0.116356
23280,11.367677,-3.930420,4.676970,-2.062100,-0.475699,0.143467
23281,11.303294,-4.699701,4.658860,-1.561806,-0.137546,0.156642
23282,10.242087,-4.945710,3.486913,-0.846728,0.098974,0.143070
23283,9.257231,-4.587278,1.873206,-0.001854,0.051961,0.122777
23284,8.833894,-3.353908,0.573768,0.606811,-0.092773,0.070092
23285,8.630345,-1.777656,-0.226164,0.859752,-0.204103,0.012736
23286,8.795158,-0.519020,-0.373695,0.837745,-0.300087,-0.034817
23287,9.303671,0.272057,-0.012713,0.548597,-0.334935,-0.055923
23288,9.779565,0.427252,0.197950,0.111503,-0.299952,-0.040159
23289,9.525394,-0.153672,-0.185215,-0.293643,-0.283467,-0.011199
23290,8.708508,-1.031961,-1.115412,-0.468925,-0.428784,-0.009803
23291,8.297132,-1.521869,-1.575139,-0.389119,-0.732919,-0.022686
23292,8.831150,-1.578769,-0.930703,-0.253533,-0.994579,-0.004132
23293,9.790993,-1.357427,0.762290,-0.232678,-1.060330,0.034291
23294,10.690525,-1.228897,2.388532,-0.339701,-0.909612,0.069765
23295,10.940072,-1.208143,3.457825,-0.422084,-0.667464,0.087774
23296,11.006593,-1.562002,3.825574,-0.467332,-0.442110,0.113098
23297,10.879433,-1.756992,3.704872,-0.508442,-0.197780,0.142909
23298,10.514370,-1.725328,2.890314,-0.536259,0.012281,0.152479
23299,10.167315,-1.697871,1.752942,-0.495244,0.146602,0.139423
23300,9.778234,-1.615422,0.827007,-0.428330,0.199915,0.123401
23301,9.555471,-1.646849,0.114800,-0.405164,0.201449,0.118050
23302,9.443004,-1.969530,-0.226512,-0.367379,0.147092,0.136902
23303,9.549441,-2.027686,-0.089972,-0.317189,0.070859,0.173277
23304,9.723052,-1.844386,0.063771,-0.275940,0.025466,0.177354
23305,9.690358,-1.767781,0.080690,-0.272358,0.007580,0.178919
23306,9.324484,-1.856840,-0.169734,-0.245158,-0.054076,0.171900
23307,9.135015,-1.930992,-0.230224,-0.160691,-0.142929,0.147046
23308,9.263660,-1.642380,0.092097,-0.063480,-0.194388,0.111308
23309,9.473410,-1.376974,0.692267,-0.009664,-0.168920,0.080487
23310,9.577607,-1.212565,1.015729,-0.004485,-0.092976,0.069046
23311,9.589947,-1.340219,1.086998,-0.013532,-0.034896,0.063016
23312,9.650355,-1.272029,0.952532,-0.024354,0.007910,0.047818
23313,9.806157,-1.092498,0.940072,-0.049716,0.046067,0.028341
23314,9.932843,-1.039182,0.928672,-0.107983,0.109518,-0.001554
23315,10.001858,-1.020182,0.866744,-0.172489,0.159097,-0.024302
23316,10.008101,-1.045012,0.784978,-0.246237,0.186034,-0.041062
23317,10.011154,-1.223766,0.659563,-0.324684,0.196691,-0.061449
23318,9.938916,-1.430004,0.638729,-0.381317,0.196891,-0.066044
23319,9.899755,-1.576699,0.565688,-0.413701,0.196826,-0.054298
23320,9.812272,-1.704620,0.506155,-0.423038,0.191741,-0.043735
23321,9.703299,-1.763913,0.443337,-0.429005,0.183079,-0.017403
23322,9.634356,-1.820134,0.460280,-0.405324,0.162315,0.003492
23323,9.617921,-1.854469,0.419035,-0.388006,0.148349,0.034399
23324,9.582900,-1.888082,0.392674,-0.368157,0.139032,0.059653
23325,9.576381,-1.906358,0.357903,-0.348800,0.128926,0.083656
23326,9.563550,-1.936577,0.354720,-0.329223,0.117584,0.098851
23327,9.567211,-1.971610,0.407705,-0.296781,0.098899,0.111025
23328,9.626984,-2.049613,0.419885,-0.267061,0.092212,0.111896
23329,9.607368,-2.092490,0.447408,-0.219930,0.094451,0.117467
23330,9.565066,-2.031866,0.468351,-0.167489,0.079569,0.121150
23331,9.600565,-1.973516,0.466859,-0.125568,0.073476,0.129823
23332,9.619133,-1.946400,0.489050,-0.096124,0.066903,0.130785
23333,9.635865,-1.995822,0.485138,-0.079541,0.062273,0.128444
23334,9.681673,-2.027765,0.474431,-0.062351,0.064889,0.125555
23335,9.738282,-2.039544,0.472695,-0.038659,0.054876,0.125175
23336,9.799350,-2.041902,0.512113,-0.012864,0.055485,0.119900
23337,9.871330,-2.023926,0.560522,0.017783,0.043561,0.117741
23338,9.861220,-2.012431,0.589827,0.026902,0.040059,0.115955
23339,9.821016,-1.983908,0.617867,0.037075,0.024763,0.112824
23340,9.832085,-1.897933,0.655749,0.047477,0.015940,0.107870
23341,9.787973,-1.877585,0.641013,0.049254,0.009140,0.105315
23342,9.725616,-1.853924,0.641748,0.052559,0.008882,0.104099
23343,9.665890,-1.931043,0.664288,0.053659,-0.005156,0.102108
23344,9.644010,-1.869912,0.665932,0.062985,0.000007,0.099144
23345,9.634849,-1.855866,0.691444,0.070516,-0.007851,0.096682
23346,9.632420,-1.830706,0.684573,0.083176,-0.007381,0.091218
23347,9.607353,-1.811283,0.652386,0.096452,-0.014094,0.089488
23348,9.596605,-1.694672,0.654304,0.106699,-0.019489,0.080801
23349,9.605208,-1.614143,0.647376,0.100518,-0.024608,0.073118
23350,9.646647,-1.684524,0.671364,0.083486,-0.022563,0.064052
23351,9.620287,-1.663090,0.710797,0.072998,-0.023229,0.051935
23352,9.619657,-1.667346,0.709348,0.054483,-0.028965,0.045966
23353,9.648010,-1.620676,0.692732,0.051764,-0.025617,0.035876
23354,9.677746,-1.640198,0.691465,0.050765,-0.031283,0.022634
23355,9.684843,-1.664791,0.664706,0.052226,-0.033332,0.011958
23356,9.714400,-1.648394,0.655299,0.053975,-0.031135,-0.001214
23357,9.689299,-1.620618,0.693510,0.052025,-0.029446,-0.014441
23358,9.693825,-1.575003,0.724763,0.040120,-0.023500,-0.027796
23359,9.684042,-1.624701,0.722399,0.028140,-0.020743,-0.046817
23360,9.680425,-1.629136,0.680033,0.017557,-0.016960,-0.057644
23361,9.686802,-1.647038,0.727217,0.009227,-0.020477,-0.065314
23362,9.722142,-1.613613,0.758928,-0.000967,-0.021357,-0.081178
23363,9.794941,-1.618828,0.767128,-0.017612,-0.009561,-0.099613
23364,9.898755,-1.672824,0.785074,-0.034782,0.010346,-0.116779
23365,9.941457,-1.767599,0.705312,-0.049514,0.036083,-0.130753
23366,9.956010,-1.911646,0.642518,-0.044534,0.052285,-0.136311
23367,9.982025,-2.035030,0.589713,-0.028681,0.061352,-0.140479
23368,9.927928,-2.054224,0.536992,-0.007733,0.069775,-0.137022
23369,9.860910,-2.094697,0.549219,0.018126,0.061237,-0.131653
23370,9.828618,-2.075110,0.513751,0.033383,0.052880,-0.120140
23371,9.716252,-1.986809,0.484075,0.044622,0.041996,-0.105541
23372,9.688955,-1.849869,0.505256,0.045913,0.033096,-0.091711
23373,9.614682,-1.694251,0.467076,0.019252,0.025257,-0.072642
23374,9.559377,-1.645342,0.508680,-0.007013,0.018195,-0.052305
23375,9.437705,-1.609849,0.587388,-0.038340,0.003779,-0.023883
23376,9.350166,-1.516461,0.617152,-0.064274,-0.009252,0.009029
23377,9.283839,-1.385909,0.662909,-0.086596,-0.020522,0.037591
23378,9.185919,-1.276539,0.787355,-0.118810,-0.041056,0.075395
23379,9.165755,-1.173686,0.887920,-0.161841,-0.054566,0.111776
23380,9.177921,-1.090717,0.914644,-0.202239,-0.065771,0.155108
23381,9.184536,-1.056611,0.979808,-0.231223,-0.083410,0.201063
23382,9.282737,-1.042400,0.964018,-0.267992,-0.099516,0.241834
23383,9.452866,-1.079798,0.963770,-0.308258,-0.107250,0.271886
23384,9.618723,-1.163697,0.928595,-0.333929,-0.105973,0.294664
23385,9.825149,-1.246985,0.901646,-0.355458,-0.105120,0.295479
23386,9.932798,-1.364334,0.805818,-0.364864,-0.090932,0.280304
23387,10.092857,-1.491178,0.735731,-0.359956,-0.075073,0.250934
23388,10.165764,-1.661538,0.613766,-0.343619,-0.058704,0.209211
23389,10.195327,-1.798527,0.550204,-0.320533,-0.037467,0.167726
23390,10.154538,-1.983423,0.492706,-0.284074,-0.017597,0.127084
23391,10.072246,-2.098025,0.414395,-0.239363,-0.007501,0.090165
23392,9.947120,-2.146600,0.388914,-0.190854,0.007127,0.064123
23393,9.840356,-2.161358,0.343043,-0.147549,0.017850,0.042348
23394,9.738642,-2.132547,0.333933,-0.117793,0.029711,0.032999
23395,9.609349,-2.183535,0.272729,-0.102868,0.044887,0.033592
23396,9.514805,-2.278358,0.259993,-0.092191,0.053126,0.039609
23397,9.467797,-2.360214,0.225733,-0.074958,0.066170,0.049629
23398,9.431954,-2.423566,0.202179,-0.054797,0.072465,0.060152
23399,9.448554,-2.466452,0.198177,-0.022489,0.070629,0.066260
23400,9.448594,-2.537060,0.144273,0.005843,0.077185,0.078825
23401,9.428054,-2.508320,0.161407,0.041325,0.065812,0.094174
23402,9.494450,-2.469607,0.238175,0.062806,0.054401,0.102388
23403,9.532842,-2.478083,0.253981,0.082375,0.043176,0.114977
23404,9.525957,-2.395492,0.387314,0.096998,0.035856,0.125703
23405,9.580681,-2.276882,0.434169,0.102891,0.031124,0.129437
23406,9.647062,-2.173171,0.496266,0.103821,0.025909,0.129934
23407,9.674655,-2.067125,0.475373,0.106680,0.024887,0.127430
23408,9.736160,-2.072428,0.514624,0.095504,0.023912,0.117776
