// Start Time: Unknown
// Update Rate: 100.0Hz
// Filter Profile: human (46.1)
// Firmware Version: 4.3.5
PacketCounter,Acc_X,Acc_Y,Acc_Z,Gyr_X,Gyr_Y,Gyr_Z
35581,9.149162,-3.503227,1.799316,-0.005084,0.003742,-0.040484
35582,9.100264,-3.480652,1.773231,-0.002656,0.004586,-0.043393
35583,9.117486,-3.494946,1.798317,-0.007549,0.006718,-0.043378
35584,9.136768,-3.496856,1.783019,-0.002393,0.003785,-0.041169
35585,9.084227,-3.533322,1.812371,-0.005093,0.003762,-0.040453
35586,9.105079,-3.488775,1.781771,-0.005301,0.002951,-0.045304
35587,9.122424,-3.502910,1.806650,-0.003437,0.003248,-0.044148
35588,9.106680,-3.527045,1.797198,-0.001779,0.002730,-0.047849
35589,9.160138,-3.494907,1.808487,-0.004417,0.001078,-0.049782
35590,9.126088,-3.478990,1.839669,-0.003858,0.001640,-0.053829
35591,9.160352,-3.372959,1.917204,-0.028107,0.015239,-0.057389
35592,9.288805,-3.113472,2.239801,-0.075682,0.036733,-0.063186
35593,9.638365,-2.590351,2.688489,-0.189350,0.112751,-0.085662
35594,10.093374,-1.975590,3.049127,-0.369315,0.255327,-0.125686
35595,10.201948,-0.584558,2.801896,-0.860847,0.450277,-0.141901
35596,9.789411,-0.254884,1.423600,-1.533008,0.638689,-0.162261
35597,9.168953,-0.510467,0.458549,-2.236646,0.764078,-0.180606
35598,8.821069,-1.985946,0.300539,-2.775861,0.838051,-0.213992
35599,8.562469,-3.612391,0.343008,-3.056311,0.838663,-0.252145
35600,7.668595,-4.070933,0.045179,-3.179488,0.725527,-0.278211
35601,7.013519,-4.691849,-0.770709,-3.208233,0.481204,-0.258590
35602,6.585288,-6.137739,-1.673177,-2.977100,0.171078,-0.253065
35603,6.464946,-8.570190,-1.041383,-2.202033,-0.270767,-0.299313
35604,8.459818,-11.017616,0.859329,-0.815857,-0.600760,-0.293284
35605,10.530242,-11.772885,2.431620,0.760462,-0.648628,-0.178832
35606,10.658575,-10.166463,2.440846,2.160358,-0.667359,-0.023230
35607,9.948696,-7.506768,1.697848,3.134785,-0.781118,0.137766
35608,9.707150,-5.674067,0.835578,3.742288,-0.869516,0.256669
35609,9.732902,-4.451799,0.707835,3.983209,-0.934723,0.365300
35610,10.021940,-3.617317,1.507992,3.927045,-0.948333,0.474155
35611,10.431498,-2.247349,2.833774,3.580261,-0.844493,0.602516
35612,10.607556,-0.056861,4.028458,2.847099,-0.646428,0.724672
35613,10.673099,2.012018,4.641009,1.709387,-0.356627,0.795832
35614,10.463497,3.511939,3.213800,0.262285,0.018673,0.788577
35615,9.465480,3.909535,0.435853,-1.242725,0.377955,0.691248
35616,8.758452,2.518563,-0.145585,-2.458128,0.703562,0.556606
35617,8.752189,-0.253844,0.592197,-3.325116,0.980910,0.438664
35618,8.751689,-2.677505,1.803979,-3.892109,1.216303,0.389470
35619,8.530518,-4.208066,2.347983,-4.284317,1.332526,0.397138
35620,8.812170,-5.326012,2.527165,-4.571718,1.370416,0.494963
35621,8.970567,-6.453284,1.916307,-4.731099,1.325867,0.640393
35622,8.182064,-7.305950,0.464823,-4.670963,1.132775,0.754913
35623,7.825612,-8.960354,0.939121,-4.117645,0.822132,0.848782
35624,8.123090,-10.791687,1.906173,-3.162652,0.502006,0.956683
35625,8.823837,-12.809062,2.129856,-1.743665,0.180404,1.097331
35626,9.477511,-13.514656,1.751514,0.008506,-0.089916,1.188581
35627,10.108092,-12.353336,1.940844,1.662922,-0.268922,1.282434
35628,10.646254,-10.257808,2.650107,2.945531,-0.269385,1.362529
35629,10.886262,-7.435886,4.161231,3.638722,-0.052693,1.451580
35630,9.511937,-3.243349,3.514617,3.501361,0.142796,1.496631
35631,8.273738,0.543177,1.195836,2.624734,0.268729,1.479897
35632,7.981366,0.956414,0.149757,1.346093,0.560336,1.403907
35633,8.014180,-0.623592,0.382658,0.045658,0.918536,1.270462
35634,7.874590,-1.379777,1.393828,-1.102909,1.234123,1.103779
35635,7.554823,-1.140830,2.611588,-2.169957,1.510248,0.961267
35636,6.941552,-1.089443,3.007348,-3.230751,1.707666,0.902973
35637,6.682244,-2.179167,2.506961,-4.208833,1.811129,0.918220
35638,6.268715,-4.474707,1.501873,-4.760937,1.819127,0.933408
35639,5.655285,-7.400665,-0.537416,-4.691003,1.684946,0.890988
35640,4.590466,-10.429327,-2.422484,-3.883902,1.325528,0.806764
35641,4.183161,-12.760677,-2.290649,-2.388824,0.850291,0.685130
35642,4.612478,-13.567411,-1.388781,-0.561335,0.306427,0.548587
35643,5.664868,-13.042003,-0.446392,1.238401,-0.216011,0.451893
35644,7.353750,-11.839101,0.272854,2.800198,-0.623259,0.432327
35645,8.275345,-10.422666,0.066980,3.956664,-0.910726,0.454306
35646,7.923336,-8.376868,-0.444158,4.592684,-1.128435,0.515255
35647,7.760613,-6.055367,-0.348965,4.711534,-1.313992,0.573772
35648,8.117381,-3.854659,0.972295,4.366090,-1.338128,0.601139
35649,8.110386,-2.042941,1.936920,3.655305,-1.221328,0.603303
35650,7.764044,-1.176764,2.634158,2.676989,-0.848991,0.542527
35651,7.121008,-1.934816,1.495697,1.690517,-0.418856,0.456557
35652,6.940304,-3.382354,0.475548,0.988502,0.056416,0.362884
35653,6.948802,-3.580463,0.985162,0.451392,0.515442,0.232366
35654,6.663140,-2.159438,1.849743,-0.322147,0.879791,0.099809
35655,6.458907,-1.353718,2.671857,-1.433782,1.124006,0.049268
35656,6.576074,-2.247086,2.854045,-2.624585,1.299733,0.027571
35657,6.608932,-4.507201,2.242322,-3.531311,1.364063,0.055206
35658,5.804297,-7.218341,0.120407,-3.894835,1.202191,0.136988
35659,4.878049,-12.093548,-1.374837,-3.237905,0.814040,0.195994
35660,4.478311,-16.090230,-0.577997,-1.471278,0.247941,0.159917
35661,5.006356,-17.127344,0.316663,0.767173,-0.471524,0.164992
35662,7.096647,-16.047130,0.904728,2.878114,-1.062254,0.285013
35663,8.508842,-13.685836,0.605681,4.477046,-1.451554,0.489015
35664,8.374247,-9.790391,0.510809,5.340935,-1.728996,0.699578
35665,8.282478,-6.157973,1.196633,5.377485,-1.885952,0.855929
35666,8.367929,-3.610335,1.834786,4.847426,-1.869135,0.945989
35667,8.548420,-1.864323,3.562002,4.067735,-1.559046,0.923860
35668,7.557877,-0.749126,3.950068,2.921304,-1.110315,0.884265
35669,6.783820,-1.801653,2.965490,1.718528,-0.599563,0.805460
35670,6.391985,-2.356705,2.821539,0.719726,-0.068106,0.639927
35671,6.534308,-2.386040,3.802859,-0.197732,0.417722,0.422720
35672,6.487677,-1.537038,4.800543,-1.250107,0.856700,0.247167
35673,6.291839,-1.104215,5.069819,-2.531562,1.174019,0.192180
35674,6.606000,-2.332506,4.496705,-3.791646,1.416184,0.204216
35675,6.727547,-4.952384,2.878840,-4.691713,1.554675,0.247593
35676,5.047738,-7.746116,-0.796652,-5.078554,1.387670,0.340854
35677,2.994125,-11.735266,-3.167634,-4.551165,0.911190,0.383159
35678,2.910498,-15.980040,-0.199617,-2.830881,0.352963,0.289736
35679,4.366407,-17.669497,3.360199,-0.531873,-0.356117,0.290787
35680,7.392902,-16.809811,3.688939,1.644701,-0.975564,0.436024
35681,8.514268,-13.707876,2.868059,3.261010,-1.351414,0.650359
35682,7.948956,-9.344106,2.689294,4.029034,-1.637155,0.830035
35683,7.272367,-5.772125,2.178161,3.894694,-1.793493,0.964917
35684,7.090085,-4.169162,1.476437,3.281300,-1.813131,0.992629
35685,7.581497,-3.875205,1.794308,2.689233,-1.620381,0.923262
35686,7.578376,-3.013734,3.907519,2.096739,-1.214705,0.830935
35687,7.595349,-1.583983,5.860200,1.328302,-0.606303,0.699848
35688,7.094134,-0.133496,5.824529,0.270429,0.113073,0.532089
35689,6.432598,0.197271,4.538102,-1.021778,0.761374,0.359025
35690,6.147033,-0.541072,3.699980,-2.388099,1.246316,0.221652
35691,6.421715,-2.532256,3.369068,-3.600869,1.613064,0.141043
35692,6.821070,-5.755670,2.311714,-4.369452,1.852679,0.132868
35693,5.661265,-8.471188,-0.758958,-4.547134,1.809585,0.161076
35694,2.554715,-12.088833,-3.845029,-3.820239,1.316586,0.140833
35695,0.726093,-15.632785,-3.098613,-2.095620,0.485279,0.063821
35696,1.757810,-18.008827,-1.420225,0.155011,-0.403477,0.012568
35697,5.041022,-18.205276,-0.386091,2.443902,-1.162644,0.090456
35698,7.433374,-14.973678,-0.451835,4.243540,-1.696869,0.262486
35699,7.874541,-10.018694,-0.373370,5.094728,-2.057788,0.440454
35700,8.054325,-5.839561,0.333478,4.999998,-2.190794,0.581518
35701,8.416725,-4.053603,1.367683,4.304386,-1.973266,0.672777
35702,8.077731,-3.668524,1.425716,3.331700,-1.546192,0.735491
35703,7.279341,-2.666479,2.376176,2.374677,-0.999281,0.683006
35704,7.031643,-0.916524,3.668327,1.239906,-0.390590,0.573590
35705,7.045872,0.103462,5.627588,-0.142281,0.281171,0.463246
35706,7.045964,-0.432355,5.262999,-1.677162,0.888915,0.375769
35707,7.000176,-2.392265,4.215912,-2.966324,1.317629,0.317170
35708,7.067035,-4.630004,3.482058,-3.819256,1.599806,0.298379
35709,6.091784,-7.951043,0.012850,-4.099199,1.642685,0.315660
35710,3.287313,-11.223739,-1.901571,-3.485789,1.370945,0.232493
35711,1.629871,-13.091831,-0.896467,-2.231332,0.776048,0.154996
35712,1.808052,-14.533454,0.050294,-0.662818,0.088731,0.125071
35713,3.354265,-14.305134,0.675349,0.976264,-0.533641,0.118885
35714,5.241580,-11.796194,0.812149,2.313857,-0.979806,0.135508
35715,6.806766,-8.381200,1.595557,2.975936,-1.179849,0.160337
35716,7.609124,-5.242347,2.361546,2.870459,-1.157112,0.204626
35717,7.946950,-3.401775,2.789271,2.180208,-0.941713,0.220881
35718,7.594141,-3.104211,3.130672,1.253631,-0.623301,0.198330
35719,6.955343,-3.782754,3.638212,0.403155,-0.313838,0.154079
35720,6.719704,-4.435169,4.308965,-0.308481,-0.062572,0.120934
35721,6.536185,-4.608734,4.667356,-0.931366,0.155271,0.097275
35722,6.227640,-5.227399,4.402349,-1.476945,0.299860,0.084743
35723,5.820165,-6.291565,3.993819,-1.747233,0.346728,0.063384
35724,5.681586,-7.339760,3.284965,-1.743905,0.326514,0.036486
35725,5.492811,-8.182664,2.478576,-1.490638,0.258960,-0.007975
35726,5.462603,-8.273593,2.203061,-1.106406,0.147980,-0.048751
35727,5.718360,-8.240562,2.423494,-0.748971,0.059768,-0.077440
35728,6.203046,-8.238936,2.676919,-0.469367,-0.020863,-0.082939
35729,6.687040,-8.035091,2.876827,-0.268489,-0.070723,-0.062209
35730,6.953874,-7.304406,2.734791,-0.225463,-0.109804,-0.039077
35731,7.047115,-6.295005,2.608677,-0.342271,-0.138245,-0.022145
35732,7.245527,-6.007848,2.603592,-0.575111,-0.118773,-0.008086
35733,7.592613,-6.585755,2.638770,-0.781143,-0.050437,0.001660
35734,8.054696,-7.618068,3.193267,-0.851006,0.075716,0.030340
35735,8.113540,-8.557596,3.222859,-0.748344,0.174120,0.054100
35736,7.827873,-8.100076,3.127622,-0.626381,0.246153,0.096533
35737,7.535253,-7.247229,2.893073,-0.636176,0.304775,0.137989
35738,7.623729,-6.803445,2.755824,-0.748080,0.397110,0.186102
35739,7.698026,-6.685703,2.492799,-0.910620,0.490915,0.235047
35740,7.688265,-6.394511,2.036005,-1.109420,0.582804,0.284441
35741,7.281150,-6.797481,1.110401,-1.337575,0.643802,0.355811
35742,6.715748,-8.523945,0.143237,-1.367544,0.620455,0.419615
35743,6.088858,-9.955292,-0.475791,-1.122076,0.471404,0.479156
35744,5.548745,-10.330020,-0.376521,-0.693285,0.206206,0.525490
35745,5.571840,-10.760991,-0.172496,-0.211491,-0.092625,0.585767
35746,5.632127,-11.443351,0.124693,0.424547,-0.413537,0.629537
35747,5.457421,-11.488927,0.725980,1.215770,-0.741378,0.657717
35748,5.591416,-10.478938,1.134058,1.892763,-1.023038,0.691456
35749,5.653287,-9.168569,0.965537,2.293976,-1.249807,0.732261
35750,5.948330,-8.460768,1.061736,2.445437,-1.424804,0.768551
35751,6.621892,-7.729118,2.177815,2.418604,-1.456085,0.789605
35752,7.093460,-7.173434,3.279127,2.195516,-1.285138,0.811886
35753,6.877250,-6.486833,3.491393,1.849158,-0.982840,0.811193
35754,6.236087,-5.470193,3.573406,1.336013,-0.608209,0.798898
35755,5.798346,-4.475142,3.978163,0.632591,-0.221087,0.751854
35756,5.695021,-3.924403,4.194037,-0.237759,0.190915,0.680864
35757,5.192551,-4.407249,3.768054,-1.149059,0.567551,0.618182
35758,4.552703,-5.280892,3.363567,-1.997662,0.824189,0.585251
35759,4.407089,-7.120952,2.693769,-2.543754,0.970379,0.546303
35760,4.211891,-8.836708,1.382001,-2.648098,0.999207,0.505078
35761,3.708612,-10.565073,0.249293,-2.349209,0.919802,0.484786
35762,2.714201,-12.185523,-0.318172,-1.682321,0.672629,0.434795
35763,2.395092,-12.632651,-0.026244,-0.817416,0.295553,0.393035
35764,2.934360,-12.465117,0.754617,0.031321,-0.087831,0.366542
35765,3.898090,-11.960179,1.361439,0.772825,-0.413941,0.348106
35766,4.667073,-11.147414,1.344738,1.353976,-0.701792,0.364716
35767,5.004442,-10.200723,0.554464,1.666347,-0.965252,0.410422
35768,5.088138,-9.038997,-0.109420,1.701137,-1.203936,0.448056
35769,5.624219,-8.419712,0.405576,1.571249,-1.363660,0.502914
35770,6.114811,-8.647486,1.452467,1.361148,-1.336016,0.583586
35771,6.105584,-9.042469,2.313933,1.211508,-1.176493,0.660276
35772,5.637890,-9.039747,2.759158,1.090287,-0.931233,0.751675
35773,5.098032,-8.241755,3.166674,0.888533,-0.638108,0.810638
35774,4.675305,-7.106682,3.575456,0.495458,-0.311264,0.838438
35775,4.314635,-6.678771,3.787068,-0.053356,0.038528,0.854999
35776,3.834072,-6.839500,3.591675,-0.610982,0.374859,0.854977
35777,3.487192,-7.445017,3.356374,-1.088253,0.639364,0.854710
35778,3.374077,-8.605491,2.707035,-1.386053,0.844212,0.852797
35779,2.881457,-9.678910,1.702129,-1.487619,0.916298,0.875611
35780,2.085583,-10.718222,0.747861,-1.395164,0.834530,0.884400
35781,1.446050,-11.662475,0.273003,-1.128049,0.600911,0.904767
35782,1.364134,-12.429931,0.369084,-0.711673,0.277632,0.920081
35783,1.628923,-12.568916,0.401811,-0.203045,-0.091808,0.930905
35784,1.942941,-12.286954,0.756880,0.275410,-0.448681,0.943180
35785,2.363882,-12.202170,0.842698,0.655481,-0.754205,0.975332
35786,2.403188,-11.799559,0.583353,0.912590,-1.016210,1.008268
35787,2.012181,-11.097028,0.385732,1.069959,-1.262296,1.025737
35788,1.633302,-9.978320,0.846455,1.080811,-1.473185,1.051301
35789,1.558574,-9.153670,1.610602,0.943733,-1.628040,1.083416
35790,1.450865,-9.136354,2.881356,0.848292,-1.655288,1.106170
35791,1.609817,-9.897762,4.059490,0.876912,-1.534259,1.139904
35792,1.684771,-10.422514,4.327815,1.013710,-1.279067,1.187300
35793,1.529124,-9.936126,4.061895,1.101770,-0.957313,1.238470
35794,1.501917,-9.178250,3.737431,1.025300,-0.582252,1.267970
35795,1.435798,-8.337644,3.781288,0.797296,-0.189173,1.272739
35796,1.526009,-7.752462,3.877433,0.473069,0.202769,1.257524
35797,1.638934,-7.532660,4.167160,0.063841,0.608167,1.257161
35798,1.578671,-7.664363,4.123168,-0.356065,0.974742,1.275423
35799,1.374258,-8.213631,3.434665,-0.763544,1.254814,1.336520
35800,0.764212,-9.570989,2.026817,-0.963152,1.413578,1.369883
35801,-0.153074,-10.949195,0.441085,-0.943956,1.342368,1.409187
35802,-0.554409,-12.009768,-0.614809,-0.759762,1.050643,1.439793
35803,-0.129708,-12.772572,-0.753959,-0.466518,0.631181,1.452602
35804,0.356886,-13.638107,-0.596143,-0.029225,0.146106,1.489755
35805,1.100307,-14.072906,0.117297,0.492482,-0.328146,1.572673
35806,1.519846,-13.587712,0.461083,0.939847,-0.741848,1.675881
35807,1.272078,-12.146268,0.247114,1.202178,-1.089049,1.746333
35808,0.859564,-10.249791,-0.015236,1.196642,-1.398308,1.783387
35809,1.036648,-9.214802,0.840590,0.956705,-1.583922,1.820886
35810,1.246685,-9.086512,2.162755,0.676505,-1.629461,1.846255
35811,1.024509,-9.382680,3.116287,0.492839,-1.528086,1.875225
35812,0.633281,-9.606272,3.687654,0.487128,-1.304558,1.906292
35813,0.208981,-9.109668,4.121218,0.607693,-0.998140,1.911364
35814,-0.083161,-7.911507,4.511265,0.709967,-0.636378,1.882545
35815,-0.302278,-6.720579,4.784266,0.662797,-0.225697,1.850923
35816,-0.362190,-6.018921,5.000930,0.463356,0.231839,1.798710
35817,-0.461255,-5.560295,4.885530,0.159267,0.655212,1.754431
35818,-0.619134,-5.140783,4.167454,-0.265546,1.029852,1.723020
35819,-1.416754,-5.750819,2.478350,-0.749583,1.291227,1.711221
35820,-2.583276,-7.392493,1.034910,-1.043906,1.355453,1.688680
35821,-3.562690,-9.499397,-0.163674,-1.098487,1.163606,1.689344
35822,-3.630120,-11.819886,-0.723683,-0.867513,0.827412,1.682058
35823,-3.225345,-13.269053,-0.793460,-0.457498,0.352481,1.690313
35824,-2.930738,-13.204961,-0.606225,-0.028200,-0.189977,1.747130
35825,-2.909744,-12.147543,-0.674350,0.240386,-0.739873,1.818339
35826,-3.083721,-10.593330,-0.435486,0.309011,-1.223840,1.854323
35827,-2.867263,-9.622062,0.516717,0.231757,-1.571604,1.863261
35828,-2.674951,-9.086571,2.025233,0.054337,-1.730240,1.898971
35829,-2.726179,-9.196601,3.146032,-0.162749,-1.754967,1.954751
35830,-2.967688,-9.166282,3.991381,-0.247004,-1.633048,1.990182
35831,-3.308410,-9.353723,4.508989,-0.182242,-1.413597,2.020843
35832,-3.727875,-9.185078,5.275183,-0.020252,-1.134797,2.060756
35833,-3.892620,-8.908994,5.824453,0.194904,-0.798611,2.073620
35834,-3.827320,-8.608193,5.807339,0.351473,-0.447843,2.127270
35835,-4.273435,-8.000427,6.178765,0.381894,-0.034630,2.184188
35836,-4.974135,-8.483686,5.255190,0.380824,0.277704,2.259117
35837,-6.015904,-8.069318,3.586845,0.399097,0.447376,2.338062
35838,-7.139589,-8.166930,2.339782,0.339343,0.479842,2.397313
35839,-8.162003,-9.689930,1.281183,0.388372,0.387978,2.448288
35840,-8.744556,-10.196680,0.536569,0.505457,0.155291,2.512833
35841,-9.264928,-10.222541,0.067446,0.579523,-0.145191,2.610591
35842,-9.076785,-9.761732,0.001076,0.600207,-0.483873,2.705589
35843,-8.853099,-9.377546,0.058464,0.535022,-0.828177,2.790470
35844,-8.225204,-9.025696,0.057730,0.466950,-1.191236,2.854660
35845,-7.291807,-8.493346,0.355181,0.399244,-1.540403,2.910315
35846,-6.416109,-8.082064,1.021256,0.420404,-1.816088,2.934138
35847,-5.546913,-7.772752,2.458184,0.551202,-2.014850,2.933742
35848,-4.583919,-7.299753,4.317453,0.704152,-2.072252,2.926299
35849,-3.747755,-6.381108,5.701153,0.825792,-1.997721,2.881387
35850,-3.211963,-5.381819,6.581605,0.877279,-1.826437,2.826933
35851,-2.754809,-4.458514,7.285307,0.898384,-1.563994,2.747542
35852,-2.401640,-3.591472,7.800500,0.872198,-1.256191,2.647117
35853,-2.409235,-2.711297,8.334931,0.778678,-0.905043,2.520249
35854,-2.447302,-2.349799,8.384975,0.658308,-0.520528,2.358353
35855,-2.905615,-2.665893,8.037100,0.643896,-0.101766,2.175372
35856,-3.725094,-2.859533,7.242707,0.721122,0.294041,2.003351
35857,-4.586249,-2.805928,5.993034,0.823059,0.581674,1.845317
35858,-5.540257,-2.749334,4.284792,0.924305,0.723040,1.704051
35859,-6.777272,-2.594528,2.474649,1.041893,0.693759,1.584063
35860,-8.128094,-2.837296,1.299602,1.115783,0.533201,1.482273
35861,-9.120710,-3.428377,0.600120,1.134613,0.261105,1.424051
35862,-9.506107,-4.096768,0.413788,1.131013,-0.071541,1.383756
35863,-9.234715,-4.400519,0.534696,1.123387,-0.441081,1.368200
35864,-8.494049,-4.042067,0.956935,1.034446,-0.765563,1.379165
35865,-7.911145,-3.731926,1.575388,0.836848,-1.014094,1.436862
35866,-7.361790,-3.571532,2.643783,0.618258,-1.187688,1.516764
35867,-6.883446,-3.416073,3.981890,0.475972,-1.266113,1.595681
35868,-6.170750,-3.521722,5.245610,0.436082,-1.256084,1.670365
35869,-5.824818,-3.154752,6.642032,0.460636,-1.132939,1.736187
35870,-5.654746,-2.762468,7.696951,0.532074,-0.942901,1.767200
35871,-5.380558,-2.370421,8.247326,0.673807,-0.679466,1.768726
35872,-5.265698,-1.706179,8.663478,0.828771,-0.371188,1.741220
35873,-5.273190,-1.050666,8.831330,0.948478,-0.012233,1.668793
35874,-5.461302,-0.701895,8.658080,1.118538,0.355960,1.566649
35875,-5.642690,-0.063079,7.804903,1.282138,0.660207,1.444257
35876,-5.784287,1.015316,6.472386,1.268040,0.902020,1.330302
35877,-6.227845,1.428057,4.894085,1.190952,1.056109,1.176697
35878,-7.145846,0.333382,2.639807,1.200275,1.049120,1.029620
35879,-8.014199,-0.522987,1.148525,1.431875,0.886581,0.887211
35880,-8.321545,-0.679498,0.954459,1.683147,0.625461,0.731858
35881,-7.993307,-0.480901,1.185320,1.764085,0.323293,0.626352
35882,-7.452993,0.339870,1.929846,1.563404,0.051071,0.556469
35883,-6.861271,1.197869,2.692757,1.082487,-0.190926,0.500164
35884,-6.291629,1.919970,3.239800,0.456777,-0.396179,0.467018
35885,-5.833748,1.901465,4.237873,-0.103499,-0.507679,0.431539
35886,-5.472703,1.076339,5.477906,-0.469508,-0.568090,0.376216
35887,-5.057595,0.748300,7.089675,-0.622945,-0.533848,0.295585
35888,-4.577631,0.542092,8.363641,-0.735530,-0.408706,0.202131
35889,-4.169418,0.229184,8.962484,-0.732295,-0.172709,0.095897
35890,-4.106713,0.054367,8.818903,-0.572909,0.153181,-0.036272
35891,-4.884051,0.418068,8.055085,-0.350961,0.494406,-0.165311
35892,-6.169858,1.075723,6.700910,-0.191871,0.793009,-0.289741
35893,-7.187426,0.637240,5.136036,-0.053949,0.999207,-0.369400
35894,-8.224567,-0.498023,4.069199,0.232519,1.090143,-0.428966
35895,-9.074847,-1.339787,3.203877,0.589469,1.048730,-0.457204
35896,-9.778951,-0.801870,2.824692,0.769233,0.901893,-0.441515
35897,-10.344318,0.313863,2.044540,0.595774,0.658234,-0.412587
35898,-10.432059,1.237644,1.638426,0.215868,0.366716,-0.387473
35899,-9.965120,1.269413,1.490443,-0.266355,0.046597,-0.372095
35900,-9.416824,0.547195,1.757374,-0.639426,-0.245884,-0.354813
35901,-8.484565,0.108277,2.851170,-0.823520,-0.529838,-0.351017
35902,-7.570030,0.191031,4.396878,-0.920677,-0.744943,-0.366347
35903,-6.870956,0.563231,5.817751,-1.043274,-0.896029,-0.399713
35904,-6.205492,0.705892,6.837767,-1.167029,-0.968488,-0.477968
35905,-5.662982,0.646109,8.015131,-1.202140,-0.929325,-0.600946
35906,-5.236153,0.955032,8.856087,-1.201803,-0.818119,-0.761484
35907,-4.999708,1.307035,9.195193,-1.241622,-0.616084,-0.959693
35908,-5.376855,0.843158,8.479543,-1.264524,-0.320619,-1.179125
35909,-6.459023,-0.619872,7.560072,-1.066452,0.040928,-1.403995
35910,-7.032810,-2.151668,6.686133,-0.681206,0.315531,-1.567453
35911,-7.381862,-3.188652,5.402992,-0.287479,0.545355,-1.641676
35912,-8.054587,-3.789860,3.817917,-0.002367,0.653626,-1.618326
35913,-8.953061,-4.373562,2.575764,0.148113,0.636116,-1.512466
35914,-9.872815,-4.844186,1.743992,0.221819,0.517175,-1.373551
35915,-10.256441,-4.530664,1.338742,0.164935,0.306540,-1.214820
35916,-10.031361,-3.611036,1.035783,-0.088623,0.056599,-1.067366
35917,-9.424996,-2.332176,0.943097,-0.478582,-0.188619,-0.961007
35918,-8.770135,-1.650732,1.118054,-0.965952,-0.429973,-0.910127
35919,-7.788039,-1.735992,2.343352,-1.329574,-0.652166,-0.927877
35920,-6.928634,-1.700229,4.048122,-1.532206,-0.816381,-1.001210
35921,-6.050339,-1.815932,5.589169,-1.610706,-0.875130,-1.106495
35922,-5.314035,-1.885232,6.863396,-1.552530,-0.798660,-1.231349
35923,-4.677247,-2.111211,7.813231,-1.387382,-0.630665,-1.375078
35924,-3.914371,-2.443612,8.283692,-1.180416,-0.389810,-1.510598
35925,-3.239982,-2.257166,8.646075,-0.953263,-0.094235,-1.663300
35926,-3.370607,-1.879119,8.486223,-0.830480,0.249973,-1.820926
35927,-4.660217,-2.711325,7.679685,-0.750010,0.665414,-1.953203
35928,-6.599257,-4.489406,6.163677,-0.585914,1.016170,-2.022025
35929,-7.888041,-6.136156,4.408113,-0.251140,1.195477,-2.063591
35930,-8.213718,-7.314154,2.755151,0.125793,1.195104,-2.070007
35931,-7.929934,-7.321212,1.560667,0.311044,0.998105,-1.995915
35932,-7.925653,-6.858016,0.939018,0.196088,0.704329,-1.868800
35933,-8.231609,-6.314077,0.303573,-0.135480,0.337107,-1.730995
35934,-8.788470,-5.309218,0.012954,-0.581746,-0.033587,-1.641986
35935,-8.721364,-4.511745,-0.143924,-1.129998,-0.430579,-1.590153
35936,-7.867955,-4.996849,1.193263,-1.539025,-0.696380,-1.570589
35937,-6.536358,-5.543917,3.635913,-1.691654,-0.842361,-1.587523
35938,-5.535965,-5.811350,5.886135,-1.621282,-0.847313,-1.609756
35939,-4.624071,-5.545511,7.525621,-1.514248,-0.682230,-1.641206
35940,-3.809561,-5.031922,8.384811,-1.371231,-0.387159,-1.731564
35941,-3.373528,-4.669053,8.930586,-1.175193,-0.008366,-1.837855
35942,-3.173794,-4.937414,9.115270,-0.936979,0.413359,-1.951325
35943,-3.797680,-5.846463,8.981930,-0.623239,0.864437,-2.068898
35944,-5.350857,-6.387012,7.760645,-0.298596,1.262024,-2.165294
35945,-7.160777,-5.946959,6.583118,-0.137328,1.557099,-2.223435
35946,-7.455604,-5.668058,4.845757,-0.148285,1.668275,-2.246662
35947,-7.452949,-5.904981,3.302417,-0.199404,1.675793,-2.264893
35948,-7.584074,-6.700486,2.070931,-0.178731,1.505226,-2.285155
35949,-7.463303,-7.496303,0.941973,-0.140258,1.209571,-2.275698
35950,-7.352614,-7.631830,0.362014,-0.065631,0.841841,-2.283244
35951,-7.071971,-7.034068,0.102993,0.010675,0.452657,-2.352159
35952,-6.683673,-6.502176,-0.159301,0.017592,0.021453,-2.417809
35953,-6.070200,-5.619982,0.502220,-0.035065,-0.310988,-2.524035
35954,-4.880540,-5.221977,1.792373,-0.116356,-0.589500,-2.623525
35955,-3.672078,-5.960859,3.377724,-0.149180,-0.708674,-2.702080
35956,-2.923596,-6.687333,5.203877,0.030754,-0.687651,-2.786638
35957,-2.165131,-6.732788,6.717693,0.252147,-0.574142,-2.858413
35958,-1.471165,-5.556160,7.688149,0.306930,-0.348310,-2.913621
35959,-1.300600,-4.493400,7.996173,0.123957,-0.026562,-2.981586
35960,-1.488069,-5.977918,7.695364,-0.209720,0.396863,-2.999654
35961,-1.923397,-8.225431,6.781042,-0.349814,0.797428,-2.991779
35962,-2.469852,-10.388980,5.441884,-0.228199,1.112630,-2.923681
35963,-3.028339,-11.441295,4.395870,-0.026392,1.306719,-2.809198
35964,-2.971590,-11.457660,3.852180,0.110255,1.378209,-2.681947
35965,-3.564026,-11.490727,2.776298,0.088084,1.288111,-2.544889
35966,-3.918462,-11.735825,1.662991,0.062643,1.011530,-2.384750
35967,-3.902607,-12.393944,1.427216,0.136851,0.681245,-2.259825
35968,-3.241398,-13.070774,1.523760,0.279060,0.250686,-2.128190
35969,-1.973984,-11.979598,1.680041,0.415519,-0.201374,-2.019600
35970,-1.282846,-10.216019,2.198977,0.385275,-0.550279,-1.933710
35971,-0.925731,-9.198584,2.979632,0.262374,-0.767097,-1.893222
35972,-0.639023,-8.920278,3.746034,0.191444,-0.866929,-1.897650
35973,-0.389219,-8.529379,4.626887,0.176977,-0.831419,-1.908026
35974,-0.286953,-7.737416,5.667837,0.182424,-0.696687,-1.945872
35975,-0.106112,-6.492756,6.785525,0.143646,-0.442661,-2.018426
35976,-0.138017,-5.792705,7.310686,-0.012305,-0.121261,-2.087534
35977,0.032605,-6.042137,7.067936,-0.321141,0.219827,-2.102956
35978,0.649908,-8.389908,6.157072,-0.605897,0.578787,-2.071729
35979,0.988950,-10.780640,5.060336,-0.605197,0.843717,-2.017278
35980,0.434499,-12.335075,3.694763,-0.356496,0.955076,-1.924787
35981,-0.424995,-13.336157,2.446522,0.073927,0.918266,-1.835508
35982,-0.989088,-13.734024,1.684083,0.614118,0.745223,-1.753908
35983,-0.575402,-13.327924,1.861818,1.029931,0.456927,-1.639501
35984,0.514717,-12.111086,2.458240,1.156291,0.154961,-1.501396
35985,1.409286,-10.893156,3.061350,1.057278,-0.051317,-1.360021
35986,1.397619,-9.859179,3.903524,0.884205,-0.109024,-1.253089
35987,0.555574,-8.355658,5.032847,0.747071,-0.037136,-1.220593
35988,-0.715535,-6.461031,6.274264,0.631282,0.117023,-1.297575
35989,-2.027052,-5.768741,6.776654,0.558413,0.375721,-1.469014
35990,-2.454732,-4.817543,7.066677,0.510997,0.672967,-1.710343
35991,-1.973661,-3.722641,7.414357,0.187621,1.035764,-1.936518
35992,-0.457336,-3.357870,7.893451,-0.559420,1.457198,-2.107337
35993,1.430261,-4.876716,7.418465,-1.477448,1.920887,-2.209135
35994,2.518834,-7.714854,5.392290,-2.111814,2.274524,-2.237077
35995,2.605487,-10.976108,2.499046,-2.264441,2.369329,-2.194173
35996,2.381731,-12.854530,0.872677,-1.883350,2.100508,-2.163045
35997,2.314555,-13.392493,0.176273,-1.241809,1.597006,-2.075554
35998,2.152212,-13.422887,0.536625,-0.533112,0.962528,-1.972419
35999,3.609899,-12.987568,1.669526,0.085085,0.295195,-1.829589
36000,5.009046,-13.739745,2.381015,0.615714,-0.180253,-1.655109
36001,6.066654,-13.539130,2.666493,1.247719,-0.589026,-1.479645
36002,6.701846,-11.455308,2.875097,1.716344,-0.852167,-1.267941
36003,6.775307,-9.125163,3.210717,1.797543,-0.937736,-1.076024
36004,6.534341,-7.678054,3.706078,1.619130,-0.848071,-0.920781
36005,6.128470,-6.430375,4.245970,1.276481,-0.622807,-0.872103
36006,5.317830,-5.717396,4.769404,0.808175,-0.337448,-0.862383
36007,5.207594,-4.963764,5.266099,0.190725,-0.033237,-0.886886
36008,5.162808,-4.269427,5.176625,-0.544743,0.288585,-0.943454
36009,4.836845,-4.174602,5.222419,-1.314304,0.567738,-0.995896
36010,5.088790,-5.725639,4.539197,-1.891603,0.804576,-1.019926
36011,5.821841,-8.297265,3.789654,-2.027662,0.995393,-1.026502
36012,6.246825,-9.608653,2.954125,-1.837431,1.056386,-1.016490
36013,5.330269,-9.407741,1.288094,-1.601645,0.917598,-0.958253
36014,4.385117,-10.023687,1.380465,-1.297001,0.579233,-0.864251
36015,4.835982,-11.624157,1.704796,-0.784619,0.226477,-0.734363
36016,5.341463,-12.616584,1.959949,0.011380,-0.172616,-0.579164
36017,5.610342,-11.435377,2.394414,0.903395,-0.540845,-0.456911
36018,5.698010,-8.941117,3.072901,1.552123,-0.759431,-0.391878
36019,5.571159,-6.681129,3.255949,1.776870,-0.857152,-0.367067
36020,5.380934,-5.514440,3.500179,1.685937,-0.830546,-0.407303
36021,5.444052,-4.688499,4.093120,1.372374,-0.690559,-0.497942
36022,5.562052,-3.595665,4.927859,0.837171,-0.439886,-0.632489
36023,5.676328,-2.747650,5.570152,0.100417,-0.104564,-0.786699
36024,5.681337,-2.689865,4.927367,-0.760828,0.243287,-0.926456
36025,5.877748,-4.096631,4.358592,-1.529508,0.549440,-1.005465
36026,6.541655,-6.084331,4.111945,-2.015498,0.750865,-1.034777
36027,7.503484,-7.910162,4.244969,-2.194662,0.901657,-0.984694
36028,8.146381,-9.365811,3.614004,-2.120923,0.950153,-0.861814
36029,7.199168,-10.350454,1.549754,-1.853094,0.828008,-0.665231
36030,5.835676,-11.536078,1.589588,-1.284455,0.496566,-0.456442
36031,5.818373,-12.609454,2.003431,-0.503293,0.110553,-0.226843
36032,6.168684,-13.209486,1.938262,0.474120,-0.323156,0.055239
36033,6.739860,-11.839388,2.592587,1.543289,-0.712933,0.236305
36034,7.300824,-8.896855,3.601357,2.284163,-0.901560,0.367377
36035,6.848542,-6.591720,4.053005,2.526167,-0.892904,0.388639
36036,5.857128,-4.630030,4.229210,2.310828,-0.753506,0.277533
36037,5.052595,-2.982794,3.930727,1.690413,-0.551121,0.056971
36038,4.816613,-1.467599,3.984584,0.844321,-0.302969,-0.259843
36039,4.825730,-1.794366,4.713687,-0.073430,-0.030114,-0.574752
36040,5.683503,-3.484588,5.187487,-0.850588,0.159700,-0.791887
36041,6.529405,-5.290035,4.876274,-1.436811,0.300672,-0.876548
36042,7.043499,-7.073341,4.186236,-1.733763,0.351778,-0.796594
36043,7.452706,-8.849510,3.428616,-1.666475,0.290435,-0.592943
36044,7.554902,-10.320407,3.297074,-1.249570,0.167661,-0.304653
36045,7.713772,-11.914473,2.913572,-0.569265,0.003349,0.023145
36046,7.543148,-11.763650,2.562134,0.282234,-0.229798,0.302331
36047,7.428293,-10.204088,2.833072,1.006842,-0.417835,0.465728
36048,6.801347,-7.120852,3.536725,1.409170,-0.518375,0.448131
36049,5.729908,-5.122618,3.947857,1.371783,-0.508353,0.308384
36050,4.880712,-4.846078,3.870869,1.097138,-0.444429,0.089647
36051,4.694223,-5.526052,4.106397,0.803156,-0.385307,-0.142346
36052,5.236652,-5.907202,4.415568,0.577228,-0.285615,-0.337412
36053,5.661399,-6.036656,4.512698,0.398810,-0.207953,-0.434115
36054,5.916848,-5.875873,4.159362,0.290864,-0.181147,-0.466776
36055,7.082271,-5.704225,4.674010,0.091105,-0.171995,-0.356545
36056,7.612673,-7.040544,4.815147,-0.108310,-0.075056,-0.247752
36057,7.337710,-8.410755,4.755285,0.146063,-0.013729,-0.197462
36058,7.249644,-7.783997,4.759465,0.513713,-0.035368,-0.105996
36059,7.297633,-6.252340,4.662604,0.634408,-0.034309,-0.037862
36060,7.614130,-5.719481,4.854838,0.547909,0.025765,-0.001018
36061,8.242773,-5.845512,5.639783,0.421987,0.134342,0.060471
36062,9.093081,-5.744902,6.017611,0.251124,0.302173,0.168191
36063,9.425255,-5.021308,6.112461,-0.004281,0.541113,0.263321
36064,9.606318,-4.066746,6.424257,-0.409825,0.809417,0.360981
36065,9.785642,-3.563118,6.482424,-0.996550,1.109800,0.464228
36066,9.411291,-3.309429,6.068038,-1.604897,1.409170,0.510836
36067,8.771936,-3.234519,5.737020,-2.167885,1.638338,0.509409
36068,8.184609,-3.741449,5.077583,-2.611816,1.855950,0.455758
36069,7.387221,-4.230093,4.227849,-2.849262,1.992913,0.339694
36070,6.616572,-4.524151,3.347401,-2.927556,2.057959,0.187935
36071,5.697956,-4.222998,2.239820,-2.917852,2.035089,-0.015832
36072,4.617489,-3.969910,0.788051,-2.989916,1.916972,-0.236598
36073,3.114271,-4.701010,-1.028661,-3.124223,1.626082,-0.414711
36074,1.795785,-7.313806,-2.844734,-3.037305,1.138864,-0.512110
36075,0.652081,-10.553497,-4.396480,-2.422872,0.415832,-0.583423
36076,1.786063,-13.347704,-2.887996,-1.199843,-0.371540,-0.633297
36077,4.346245,-16.092082,-1.034844,0.424892,-1.000015,-0.584259
36078,6.361515,-16.695277,-0.441070,2.279351,-1.534159,-0.496731
36079,7.209008,-14.396205,-0.967113,3.844857,-2.061231,-0.295069
36080,7.502708,-10.782131,-1.610067,4.681821,-2.552740,-0.053478
36081,7.800256,-8.389370,-1.952584,4.717758,-2.989531,0.260328
36082,7.923649,-7.527913,-1.946909,4.348353,-3.338244,0.530520
36083,7.788645,-6.179790,0.257221,4.010036,-3.568361,0.648999
36084,7.890813,-4.320374,5.258648,3.604807,-3.405338,0.653157
36085,7.273434,-3.869110,8.164034,3.020873,-2.876982,0.579749
36086,6.094606,-2.960815,9.043075,2.458786,-2.131669,0.362743
36087,4.418912,-0.903053,9.001690,1.671814,-1.273403,0.015100
36088,3.086942,0.895283,7.757892,0.555076,-0.423876,-0.411736
36089,2.697295,3.046207,7.045703,-0.821947,0.300091,-0.887763
36090,3.157600,3.940327,7.241100,-2.516327,0.934400,-1.277322
36091,4.595145,0.479525,6.575402,-4.075804,1.519124,-1.482717
36092,5.435728,-5.475531,4.189147,-4.851779,1.900145,-1.567946
36093,5.230787,-9.661566,1.355867,-4.816609,1.893463,-1.571893
36094,5.038100,-12.675384,0.175470,-4.134111,1.591781,-1.500554
36095,5.530891,-14.928346,0.780817,-2.983691,1.120365,-1.354139
36096,6.886376,-16.005103,1.548085,-1.625796,0.552368,-1.164261
36097,8.391094,-15.577049,1.731617,-0.300153,0.011970,-0.887194
36098,8.934744,-14.035763,1.018563,0.782973,-0.478244,-0.568753
36099,8.835484,-11.602270,0.051807,1.551749,-0.888868,-0.311476
36100,8.173431,-9.030610,-0.903001,1.821250,-1.233155,-0.167403
36101,7.485320,-6.904614,-1.396976,1.755301,-1.492866,-0.094091
36102,6.497465,-5.113171,-0.676324,1.573944,-1.633989,-0.142867
36103,5.933967,-4.102788,2.841515,1.375789,-1.515349,-0.284429
36104,5.195820,-4.835686,5.627304,1.082078,-1.128070,-0.424710
36105,4.213704,-5.763395,5.672983,0.868027,-0.704123,-0.572861
36106,3.786076,-5.499569,4.730773,0.689482,-0.287822,-0.714277
36107,3.865576,-4.426662,4.010697,0.336464,0.125394,-0.841823
36108,4.427198,-2.917620,3.594102,-0.275348,0.482801,-0.952924
36109,5.185502,-1.763644,3.488364,-1.148031,0.786499,-1.037490
36110,6.085485,-1.409217,3.689368,-2.187730,1.039955,-1.054972
36111,7.234497,-4.021119,3.495313,-3.115999,1.301428,-0.998200
36112,7.280062,-7.932352,0.992009,-3.530050,1.405920,-0.912231
36113,6.652701,-11.291067,-1.213828,-3.215931,1.217438,-0.811893
36114,5.937918,-12.853315,-2.313432,-2.442480,0.804783,-0.752627
36115,6.184570,-13.742987,-1.872941,-1.331214,0.211331,-0.697668
36116,7.766985,-14.081309,0.488885,0.049344,-0.409193,-0.597283
36117,9.403236,-13.466575,2.016206,1.291408,-0.957553,-0.374073
36118,9.932018,-11.484284,1.665864,2.156584,-1.333878,-0.107813
36119,9.317188,-8.511367,0.905558,2.528696,-1.629405,0.125829
36120,8.867459,-6.186462,0.615904,2.543622,-1.789598,0.267381
36121,7.963278,-4.245310,0.925675,2.358842,-1.844973,0.266145
36122,6.909963,-2.795273,1.700379,1.980351,-1.851108,0.180663
36123,6.766727,-1.975695,3.649609,1.496421,-1.713669,0.046443
36124,6.121582,-2.451114,4.272477,0.763955,-1.435742,-0.116551
36125,5.479617,-4.245566,3.651480,0.152465,-1.074599,-0.296381
36126,5.359374,-4.971319,3.602491,-0.052516,-0.657069,-0.498471
36127,5.161186,-4.200308,4.158223,-0.131674,-0.227966,-0.740401
36128,5.610123,-2.077754,5.034488,-0.374145,0.184537,-0.981708
36129,6.231094,0.108350,5.089588,-0.995374,0.535034,-1.144774
36130,6.956121,1.036943,4.672300,-1.937577,0.832888,-1.249853
36131,7.381877,0.267787,4.036271,-2.974430,1.089268,-1.300628
36132,7.862742,-1.857463,2.986552,-3.802190,1.254624,-1.317894
36133,8.224044,-5.042481,1.328475,-4.186306,1.296203,-1.306405
36134,8.680215,-8.844092,0.237064,-3.883823,1.208719,-1.279051
36135,9.054266,-11.760008,0.665506,-3.017909,1.016517,-1.219875
36136,9.536990,-12.659964,1.704955,-1.841319,0.755663,-1.158929
36137,9.573862,-11.525268,1.207186,-0.642080,0.397116,-1.119120
36138,9.211930,-9.504884,1.339053,0.424341,0.004131,-1.076767
36139,9.140113,-8.391631,1.410282,1.136319,-0.455542,-0.908885
36140,9.039061,-8.695988,0.188623,1.713656,-0.884794,-0.735882
36141,8.855676,-9.042524,-0.409481,2.343809,-1.269146,-0.581392
36142,8.665745,-8.281123,-0.738770,2.871752,-1.596181,-0.426671
36143,8.410512,-6.748096,-0.817738,3.144005,-1.831294,-0.313720
36144,8.323793,-5.688469,-1.412310,3.071644,-1.959702,-0.256528
36145,8.557031,-5.881554,-1.996135,3.046854,-1.898111,-0.270920
36146,8.003253,-6.449628,-1.821912,3.264036,-1.732494,-0.371748
36147,7.881837,-5.847661,-0.114420,3.693386,-1.521153,-0.507480
36148,7.999612,-2.887456,2.059082,3.919295,-1.149882,-0.673884
36149,7.604451,1.504623,3.778131,3.522052,-0.700119,-0.873283
36150,7.327537,4.700954,4.477245,2.435830,-0.227926,-1.088625
36151,7.354640,5.481176,4.370868,0.893106,0.226590,-1.265626
36152,8.050761,4.633170,3.881780,-0.756838,0.559135,-1.362944
36153,9.079725,2.239576,3.632887,-2.260523,0.843890,-1.373432
36154,9.686144,-1.441969,3.575793,-3.358735,1.042188,-1.307783
36155,9.013788,-5.613366,1.735054,-3.710809,0.990863,-1.202093
36156,8.428885,-9.827887,0.495021,-2.996617,0.711923,-1.170047
36157,8.237164,-12.521743,1.090142,-1.507229,0.261878,-1.132166
36158,9.229728,-12.055472,1.073447,0.066999,-0.273891,-1.005885
36159,10.294411,-8.432370,1.665887,1.145656,-0.619586,-0.819811
36160,10.678044,-3.941258,1.984441,1.419633,-0.795719,-0.641803
36161,10.446240,-0.877892,1.750868,1.120564,-0.825168,-0.557081
36162,10.055595,0.977092,1.971064,0.569273,-0.742039,-0.616788
36163,9.826681,1.736356,1.607978,-0.385767,-0.634418,-0.746792
36164,9.634548,0.534302,-0.337004,-1.587550,-0.402076,-0.845232
36165,9.686666,-1.990967,-1.988017,-2.485501,-0.087539,-0.934432
36166,9.207763,-5.189642,-2.283393,-2.581089,0.232515,-1.036710
36167,8.354655,-5.299781,-1.475167,-2.004671,0.377359,-1.155224
36168,8.056975,-3.198291,0.048725,-1.499198,0.428232,-1.206920
36169,8.417920,-1.667354,1.142035,-1.454519,0.396350,-1.186458
36170,9.988743,1.226523,5.527953,-2.027794,0.422354,-1.101164
36171,12.228862,-0.782265,7.390464,-3.486055,0.557140,-0.781477
36172,10.748390,-6.570665,5.213421,-3.839158,0.577200,-0.500736
36173,9.139858,-8.491656,3.832685,-3.251685,0.426216,-0.296070
36174,9.147863,-8.322360,2.654757,-2.488320,0.196945,-0.135661
36175,9.696675,-7.943753,1.412161,-1.826644,0.022708,0.026985
36176,10.202750,-6.606997,0.541768,-1.266618,-0.095674,0.165996
36177,10.204232,-5.335881,0.081748,-0.846613,-0.166818,0.275391
36178,9.990184,-3.549275,-0.384133,-0.685640,-0.184209,0.282522
36179,9.590624,-2.550046,-0.929817,-0.840264,-0.140407,0.260045
36180,9.226353,-3.216658,-1.584654,-0.997298,-0.050932,0.214826
36181,8.705071,-5.049159,-2.012132,-0.808305,0.029050,0.148948
36182,8.141020,-6.271157,-1.711867,-0.221277,0.095616,0.063109
36183,8.111663,-6.435215,-0.627210,0.563759,0.159342,-0.026805
36184,8.306313,-5.371342,0.608675,1.260528,0.259938,-0.131168
36185,8.745190,-3.911040,1.671826,1.598567,0.319307,-0.204621
36186,9.124746,-3.522802,2.284000,1.616397,0.385207,-0.204704
36187,9.014797,-3.261678,2.553849,1.554836,0.418052,-0.179247
36188,8.971392,-3.020231,2.594965,1.452229,0.393615,-0.139734
36189,9.056160,-3.127124,2.402396,1.319909,0.362624,-0.083856
36190,9.104965,-2.887957,2.307390,1.203247,0.336190,-0.019168
36191,9.419598,-2.359899,2.317891,1.015532,0.302775,0.037342
36192,9.762641,-2.142324,2.438854,0.745542,0.324289,0.106548
36193,10.145218,-2.111375,2.535997,0.439681,0.320682,0.172275
36194,10.409212,-2.108873,2.371800,0.110569,0.328065,0.245971
36195,10.250301,-2.143079,2.072885,-0.201582,0.338353,0.297636
36196,9.901395,-2.222367,1.806535,-0.450789,0.357145,0.318175
36197,9.683229,-2.404269,1.583864,-0.643302,0.363856,0.312753
36198,9.527274,-2.736719,1.439961,-0.771294,0.369759,0.298234
36199,9.332677,-2.934359,1.349775,-0.845614,0.357999,0.277915
36200,9.204630,-3.226391,1.222766,-0.877267,0.345618,0.258993
36201,9.136309,-3.583271,1.088953,-0.836118,0.331206,0.246591
36202,9.036371,-3.833767,0.985170,-0.725713,0.307970,0.224347
36203,8.979440,-3.803145,0.885465,-0.559696,0.269157,0.208954
