// Start Time: Unknown
// Update Rate: 100.0Hz
// Filter Profile: human (46.1)
// Firmware Version: 4.3.5
PacketCounter,Acc_X,Acc_Y,Acc_Z,Gyr_X,Gyr_Y,Gyr_Z
28954,9.688683,-0.786808,1.010662,-0.143313,-0.088710,0.023110
28955,9.689377,-0.790863,1.000797,-0.150635,-0.090999,0.030076
28956,9.789155,-0.706466,1.143222,-0.152006,-0.101769,0.033075
28957,10.028012,-0.678222,1.607234,-0.151428,-0.070392,0.015568
28958,10.100960,-0.854368,2.069507,-0.130013,0.012965,-0.014069
28959,10.246927,-1.173665,2.285684,-0.038723,0.116173,-0.046815
28960,10.160215,-1.354201,2.139020,0.147759,0.218906,-0.062657
28961,9.897176,-1.410233,1.649508,0.365948,0.258857,-0.067594
28962,9.704559,-1.095024,1.223917,0.507658,0.228381,-0.069776
28963,9.728716,-0.493776,0.954700,0.525315,0.169943,-0.085691
28964,9.746497,-0.037056,0.898665,0.404742,0.164404,-0.092930
28965,9.647656,0.111595,0.625024,0.203248,0.178103,-0.084718
28966,9.380368,-0.117345,0.249002,-0.007662,0.147840,-0.058591
28967,9.124777,-0.430090,-0.170809,-0.183877,0.047753,-0.005250
28968,9.163803,-0.680938,-0.208523,-0.337032,-0.082060,0.046286
28969,9.299618,-0.884802,0.123098,-0.426596,-0.188714,0.088153
28970,9.455422,-0.890086,0.782106,-0.450521,-0.255913,0.089707
28971,9.738874,-0.498808,1.640846,-0.455121,-0.242997,0.064885
28972,9.942019,-0.336931,2.248524,-0.378435,-0.162998,0.013801
28973,10.258550,-0.686465,2.613512,-0.235286,-0.040854,-0.030641
28974,10.457488,-1.255935,2.958597,-0.080492,0.136642,-0.044419
28975,10.481452,-1.383027,3.073866,0.130530,0.313416,-0.044862
28976,10.429122,-1.083078,2.903351,0.290563,0.441537,-0.041072
28977,10.374906,-0.810854,2.351708,0.337219,0.518872,-0.048278
28978,10.209723,-0.774331,1.720189,0.327936,0.532676,-0.055687
28979,9.973402,-1.042972,1.012681,0.307739,0.507149,-0.053361
28980,9.583620,-1.359362,0.386362,0.290024,0.440128,-0.014212
28981,9.158671,-1.482068,-0.356811,0.255770,0.311007,0.040096
28982,8.846406,-1.264730,-0.781558,0.190172,0.128061,0.106106
28983,8.998683,-0.944179,-0.589341,0.033343,-0.059250,0.159439
28984,9.355278,-0.789814,0.078217,-0.175110,-0.165301,0.208510
28985,9.553999,-0.973157,0.896608,-0.375772,-0.160234,0.264837
28986,9.473369,-1.090592,1.391193,-0.493524,-0.092933,0.305738
28987,9.310494,-1.387074,1.323892,-0.482634,-0.085693,0.333019
28988,9.298335,-1.551978,1.648090,-0.353404,-0.134757,0.338714
28989,9.839328,-1.556401,2.492263,-0.243946,-0.152652,0.318678
28990,10.534806,-1.761573,3.365853,-0.163108,0.014838,0.298337
28991,10.688230,-1.743105,3.762279,0.004046,0.307141,0.281418
28992,10.497979,-1.907955,3.514406,0.259585,0.523390,0.267722
28993,10.191139,-2.112778,2.878356,0.550820,0.620408,0.271585
28994,9.833737,-2.111161,2.171839,0.783305,0.615754,0.268189
28995,9.548303,-1.874312,1.346709,0.934498,0.536292,0.258409
28996,9.231858,-1.654778,0.657766,1.030206,0.424766,0.250587
28997,9.128228,-1.261466,0.138457,1.016924,0.303384,0.251205
28998,9.066558,-0.971974,-0.384732,0.864036,0.167921,0.278255
28999,9.226176,-0.958418,-0.503620,0.606159,0.027793,0.332571
29000,9.207197,-0.990511,-0.228434,0.295689,-0.088547,0.390037
29001,9.154015,-1.076131,0.294023,0.010271,-0.194046,0.436754
29002,9.185072,-0.981541,0.917426,-0.159540,-0.252843,0.444923
29003,9.233326,-0.749005,1.608020,-0.254687,-0.247677,0.429438
29004,9.553172,-0.662263,2.447196,-0.315647,-0.221848,0.404976
29005,10.040992,-0.763450,3.297711,-0.335165,-0.126542,0.379660
29006,10.548931,-0.953592,3.978516,-0.316378,0.086226,0.348024
29007,10.839821,-1.325469,4.103437,-0.233061,0.363550,0.324704
29008,10.729019,-1.982657,3.699613,-0.052276,0.589466,0.321306
29009,10.257043,-2.649652,2.852096,0.232011,0.666104,0.336336
29010,9.778605,-2.840402,1.994142,0.554596,0.594178,0.340780
29011,9.438417,-2.704871,1.337479,0.828021,0.428564,0.323184
29012,9.358499,-2.245755,0.946356,0.980874,0.278847,0.299309
29013,9.210708,-1.751877,0.628670,0.993596,0.204918,0.284107
29014,9.101944,-1.387874,0.398243,0.906835,0.157613,0.286275
29015,9.019474,-1.351123,0.380749,0.751045,0.075715,0.317905
29016,9.046432,-1.414743,0.752054,0.529782,-0.033175,0.365300
29017,9.158393,-1.232273,1.176364,0.259520,-0.096411,0.393596
29018,9.101722,-1.096757,1.453896,0.059454,-0.105617,0.390183
29019,8.981753,-1.083497,1.860382,-0.037964,-0.116718,0.382270
29020,9.363048,-1.131580,2.730959,-0.110562,-0.103911,0.376762
29021,9.938199,-1.249848,3.418720,-0.207675,0.013728,0.378146
29022,10.263077,-1.538861,3.810605,-0.218301,0.194221,0.380079
29023,10.529639,-1.950373,4.050754,-0.163252,0.389903,0.381033
29024,10.585815,-2.441946,3.804431,-0.051568,0.549564,0.401520
29025,10.219417,-2.925952,3.221578,0.137728,0.633395,0.408434
29026,9.798743,-3.012924,2.699496,0.362385,0.613960,0.406596
29027,9.480772,-2.938952,2.186590,0.556137,0.528899,0.399224
29028,9.219711,-2.757923,1.589576,0.691089,0.454537,0.397382
29029,8.748706,-2.578479,0.903828,0.782822,0.393188,0.390783
29030,8.381477,-2.480241,0.304169,0.824635,0.279139,0.399815
29031,8.303815,-2.344064,0.036959,0.788369,0.096479,0.425567
29032,8.679883,-2.273738,0.258867,0.626372,-0.109761,0.467069
29033,9.002213,-1.995554,0.829680,0.375061,-0.218530,0.491123
29034,9.113157,-1.613048,1.300798,0.141773,-0.232872,0.479187
29035,8.912244,-1.472801,1.531838,0.034741,-0.199196,0.449469
29036,8.682635,-1.483214,2.013690,0.009223,-0.207822,0.440785
29037,8.936909,-1.601292,2.859946,-0.064410,-0.237372,0.455727
29038,9.585995,-1.591722,3.944951,-0.171459,-0.173805,0.468972
29039,10.406569,-1.561791,4.925451,-0.310913,0.017194,0.475702
29040,10.912106,-1.988126,5.092446,-0.412358,0.318579,0.472321
29041,10.539918,-2.776646,4.351904,-0.331041,0.613858,0.461039
29042,9.610301,-3.460619,3.295004,-0.052640,0.711677,0.446693
29043,8.947778,-3.840624,2.307588,0.255817,0.580301,0.457027
29044,8.631730,-3.722175,1.680651,0.456372,0.406098,0.471000
29045,8.504275,-3.505820,0.990695,0.552900,0.276462,0.471404
29046,8.374680,-3.352844,0.435181,0.619182,0.165283,0.465870
29047,8.376236,-3.291493,0.203977,0.633084,0.022506,0.463597
29048,8.487716,-3.187056,0.381200,0.588726,-0.133839,0.479393
29049,8.502088,-2.696919,0.749146,0.511385,-0.284778,0.471451
29050,8.650088,-2.144136,1.157377,0.396429,-0.383821,0.448753
29051,8.689142,-1.788234,1.617852,0.247763,-0.406474,0.434622
29052,8.698127,-1.692324,2.520369,0.099597,-0.401042,0.437078
29053,9.064841,-1.758457,3.522485,-0.071234,-0.384120,0.454297
29054,9.835468,-1.794192,4.402121,-0.262649,-0.260668,0.485133
29055,10.280263,-1.924882,4.963117,-0.455842,0.005358,0.494488
29056,10.189349,-2.485642,4.714784,-0.540553,0.257032,0.470834
29057,9.736353,-3.179384,3.991776,-0.472063,0.401115,0.452903
29058,9.260024,-3.620246,3.274371,-0.301540,0.417229,0.434683
29059,9.034664,-3.836340,2.589762,-0.132390,0.355403,0.416591
29060,8.897894,-4.184470,1.817879,0.027697,0.261735,0.403437
29061,8.741651,-4.487982,1.159627,0.210530,0.157586,0.384530
29062,8.483604,-4.540838,0.911114,0.422137,0.062684,0.363555
29063,8.270591,-4.419872,0.813690,0.642236,-0.044975,0.359149
29064,8.068603,-4.183476,0.905930,0.763212,-0.179504,0.376152
29065,8.290026,-3.696779,1.307790,0.747911,-0.338565,0.415359
29066,8.586669,-2.915423,1.741652,0.583198,-0.380647,0.433921
29067,8.665719,-2.342962,2.054759,0.361954,-0.360565,0.421313
29068,8.565952,-1.999927,2.368302,0.123085,-0.320186,0.401134
29069,8.496312,-2.094040,2.727095,-0.120980,-0.315491,0.398490
29070,8.863692,-2.367918,3.332959,-0.349902,-0.291563,0.410577
29071,9.412088,-2.435604,4.214180,-0.597864,-0.155913,0.408664
29072,9.802928,-2.895917,4.331706,-0.830652,0.049990,0.392452
29073,9.315052,-3.695999,3.605690,-0.843209,0.310959,0.356953
29074,8.298687,-4.646078,2.525914,-0.566454,0.374943,0.314796
29075,7.732245,-5.567246,1.474680,-0.182057,0.209931,0.321361
29076,7.659602,-5.942331,0.770710,0.129281,-0.061976,0.375456
29077,7.889032,-5.727212,0.553651,0.301588,-0.302820,0.431994
29078,8.227795,-5.063384,0.742520,0.413763,-0.408772,0.451476
29079,8.420595,-4.268676,1.376138,0.489579,-0.430668,0.445854
29080,8.610458,-3.410749,2.315947,0.428179,-0.436229,0.446617
29081,8.839420,-2.783881,3.345846,0.183258,-0.390954,0.429368
29082,9.088803,-2.468460,4.032689,-0.167190,-0.283793,0.408259
29083,9.172159,-2.693535,4.007934,-0.435484,-0.110322,0.373331
29084,8.799848,-3.349709,3.443604,-0.519556,0.063134,0.326992
29085,8.215740,-4.016753,2.673630,-0.449387,0.111286,0.286297
29086,7.949615,-4.484836,2.126541,-0.333643,0.044645,0.276158
29087,7.877204,-4.659503,1.780044,-0.226078,-0.041047,0.251367
29088,7.837488,-4.806715,1.758835,-0.070621,-0.077709,0.182697
29089,8.015943,-4.995018,2.153416,0.140264,-0.082670,0.113415
29090,8.397115,-4.969609,2.687275,0.366918,-0.025030,0.078011
29091,8.540823,-4.768600,2.768286,0.596427,0.064417,0.066134
29092,8.321133,-4.193367,2.284660,0.850417,0.112317,0.068206
29093,8.024631,-3.633512,1.860745,1.030203,0.032943,0.073033
29094,8.124362,-3.210308,1.770133,0.997184,-0.119932,0.071553
29095,8.396617,-2.812332,1.782373,0.817217,-0.207873,0.043198
29096,8.490587,-2.432985,1.823522,0.576444,-0.243595,0.006843
29097,8.748054,-2.312301,1.986000,0.354412,-0.246595,-0.012504
29098,9.073137,-2.430789,2.199940,0.149359,-0.192351,-0.009480
29099,9.231205,-2.822667,2.241390,-0.044618,-0.125842,-0.004462
29100,9.231548,-3.345088,2.134809,-0.162971,-0.092179,-0.013654
29101,9.237030,-3.641929,1.917018,-0.147513,-0.090234,-0.040859
29102,9.163638,-3.850441,1.727928,-0.067236,-0.106798,-0.066138
29103,9.235316,-3.981514,1.682154,0.037633,-0.138121,-0.071644
29104,9.417261,-4.178428,1.808921,0.109316,-0.151669,-0.056473
29105,9.462308,-4.214405,1.919168,0.209706,-0.136884,-0.054989
29106,9.299969,-4.066086,1.960433,0.330118,-0.138555,-0.052095
29107,9.148044,-3.564288,2.079501,0.382450,-0.152818,-0.059503
29108,9.044441,-3.175047,2.206905,0.357128,-0.177853,-0.067275
29109,9.049638,-2.858197,2.345865,0.293505,-0.195408,-0.070993
29110,9.260813,-2.736766,2.586075,0.163181,-0.204336,-0.059021
29111,9.614523,-2.761009,2.889277,-0.003991,-0.159997,-0.034125
29112,9.885910,-3.010830,2.945570,-0.154833,-0.065559,-0.020422
29113,9.784437,-3.432607,2.715976,-0.205287,0.006041,-0.023920
29114,9.591076,-3.915323,2.417293,-0.172945,0.022337,-0.034619
29115,9.331450,-4.165240,2.378664,-0.141940,0.010699,-0.047663
29116,8.890180,-4.225186,2.234355,-0.156734,0.027573,-0.072552
29117,8.370931,-4.276994,1.728898,-0.105516,0.013611,-0.085753
29118,8.098955,-4.567781,1.367639,0.004936,-0.064164,-0.073123
29119,8.349174,-4.712382,1.731302,0.016299,-0.149184,-0.013124
29120,9.051787,-4.461945,2.540181,-0.160619,-0.171770,0.081621
29121,9.630599,-3.881925,3.199263,-0.423788,-0.044274,0.152020
29122,9.679419,-3.710211,3.598955,-0.635725,0.151908,0.184189
29123,9.232083,-4.279266,3.361011,-0.735458,0.279236,0.207393
29124,8.586791,-5.206901,2.823579,-0.687145,0.285513,0.243802
29125,8.347293,-5.806015,2.458860,-0.511992,0.205600,0.278287
29126,8.306591,-5.702993,2.225145,-0.242049,0.130952,0.276819
29127,8.565374,-5.315089,2.008206,0.044185,0.086682,0.247492
29128,8.739234,-5.078850,1.894746,0.332492,0.099505,0.213901
29129,8.662487,-5.040555,1.867164,0.628069,0.122362,0.188533
29130,8.508210,-5.196721,1.698557,0.889358,0.114028,0.189860
29131,8.421686,-5.185027,1.395192,1.137341,0.037557,0.216601
29132,8.635288,-4.709663,1.042792,1.316716,-0.060899,0.240213
29133,8.887347,-3.822080,0.795185,1.393507,-0.134025,0.241454
29134,9.241337,-2.574754,0.911378,1.291590,-0.198798,0.223907
29135,9.640670,-1.743798,1.185952,0.983185,-0.213716,0.202608
29136,9.874743,-1.347961,1.594418,0.534922,-0.146654,0.179587
29137,9.802998,-1.336267,2.068908,0.043865,-0.057499,0.142650
29138,9.293825,-1.725083,2.152705,-0.349248,0.001151,0.096339
29139,8.607437,-2.391871,1.888386,-0.609840,-0.023162,0.052227
29140,8.213347,-3.007860,1.340526,-0.677188,-0.122849,0.022081
29141,8.222653,-3.443689,0.975050,-0.658089,-0.256152,0.019520
29142,8.742418,-3.332557,1.267339,-0.646750,-0.340593,0.011224
29143,9.143274,-2.854753,1.820760,-0.666797,-0.314067,-0.057508
29144,9.465853,-2.228950,2.545991,-0.646242,-0.260303,-0.169549
29145,9.799468,-2.119034,3.164217,-0.731682,-0.186967,-0.249087
29146,9.621393,-2.450145,3.259864,-0.787504,-0.061195,-0.312703
29147,9.227736,-2.698350,3.017145,-0.749709,0.003329,-0.378940
29148,9.059025,-2.666978,2.781178,-0.605924,-0.009017,-0.454841
29149,9.318740,-2.401695,3.041133,-0.544446,-0.039586,-0.562970
29150,10.032035,-2.531182,4.069437,-0.613907,0.030906,-0.703786
29151,10.838012,-3.271043,4.868688,-0.709694,0.260771,-0.809148
29152,10.665582,-4.669331,4.343747,-0.539700,0.599896,-0.858226
29153,9.418842,-6.010776,2.778720,-0.009817,0.743799,-0.835330
29154,8.484441,-6.592633,1.619002,0.598159,0.586946,-0.763123
29155,8.340231,-6.021510,0.722835,0.989244,0.329326,-0.663343
29156,8.415529,-4.743669,0.183019,1.129240,0.145306,-0.602598
29157,8.448682,-3.497937,-0.178646,1.057197,-0.009546,-0.588902
29158,8.742904,-2.653093,-0.032763,0.841659,-0.139672,-0.590770
29159,9.118431,-1.994160,0.440976,0.530752,-0.207255,-0.595821
29160,9.663231,-1.329875,1.226559,0.090804,-0.204075,-0.591026
29161,10.141223,-0.741862,2.120199,-0.423026,-0.134793,-0.572106
29162,10.341049,-0.189770,3.391155,-0.937789,-0.040514,-0.569658
29163,10.631838,0.016327,4.739705,-1.419449,0.096219,-0.628969
29164,10.958368,-0.416303,5.309251,-1.809634,0.344339,-0.701109
29165,10.686249,-1.812678,4.877472,-1.888188,0.613920,-0.785846
29166,10.129263,-3.586807,3.764471,-1.582870,0.749899,-0.851250
29167,9.516072,-4.751255,2.393437,-1.050224,0.743083,-0.885549
29168,8.873181,-5.006904,1.416139,-0.467574,0.625426,-0.933874
29169,8.412777,-4.646625,0.645581,0.130351,0.443451,-1.009535
29170,8.381140,-3.891125,0.317962,0.621365,0.270774,-1.108666
29171,8.588588,-3.041482,0.185585,0.904446,0.160378,-1.191722
29172,8.894319,-2.292921,0.046613,0.971506,0.093886,-1.245296
29173,9.202395,-1.456042,0.376586,0.940717,0.022298,-1.269875
29174,9.500870,-0.272374,0.908833,0.715656,-0.020654,-1.290436
29175,9.822193,0.953497,1.359141,0.267246,-0.086575,-1.316871
29176,10.098327,1.397573,1.841562,-0.342924,-0.086388,-1.336354
29177,10.225301,1.551224,3.098031,-0.976413,-0.056188,-1.355975
29178,11.105435,1.233904,4.480297,-1.705970,0.130036,-1.324335
29179,11.634794,-0.039007,4.768342,-2.250141,0.445376,-1.220337
29180,11.945507,-2.053819,4.590013,-2.503490,0.748465,-1.054342
29181,11.474821,-4.170705,3.953968,-2.413749,0.974456,-0.876169
29182,10.656527,-5.741518,3.100028,-2.002810,1.089474,-0.735059
29183,9.821070,-6.618484,2.436723,-1.430180,1.075590,-0.620661
29184,9.029621,-6.799618,1.561312,-0.804871,0.955577,-0.509070
29185,8.731272,-6.326088,1.243418,-0.250425,0.774359,-0.423381
29186,8.788983,-5.667220,0.920054,0.199067,0.675413,-0.339303
29187,8.540633,-4.620601,0.403065,0.548047,0.592949,-0.240526
29188,8.323800,-3.690582,0.098606,0.689345,0.446750,-0.158360
29189,8.012355,-3.049250,-0.338102,0.704289,0.223845,-0.068162
29190,8.180166,-2.098272,0.238579,0.472770,-0.033591,0.024569
29191,8.701487,-0.953733,1.261484,0.057995,-0.190655,0.102654
29192,9.207006,-0.043830,2.640357,-0.453020,-0.197930,0.174247
29193,10.047454,0.123883,3.935496,-1.071169,-0.048803,0.303649
29194,10.465426,-0.566086,4.757677,-1.657864,0.272652,0.468509
29195,10.221507,-2.154754,5.082665,-1.960588,0.567258,0.621415
29196,10.007835,-4.111695,4.928198,-1.939947,0.707385,0.777894
29197,9.976226,-5.394677,4.731150,-1.666708,0.777263,0.914999
29198,10.047450,-5.973906,4.332569,-1.200260,0.828122,1.016580
29199,9.826063,-6.045903,3.467624,-0.607002,0.842229,1.092186
29200,9.438426,-5.639176,3.151545,-0.082710,0.788875,1.153732
29201,9.098130,-4.899020,2.822571,0.258240,0.786584,1.175582
29202,8.750074,-4.250286,2.228398,0.463465,0.712258,1.194107
29203,8.837245,-3.652848,1.974131,0.559851,0.643615,1.221549
29204,8.908225,-3.212528,1.876198,0.546172,0.626927,1.229271
29205,9.174953,-2.815660,1.983477,0.420886,0.605103,1.254622
29206,9.190083,-2.648744,1.942508,0.212705,0.579565,1.296317
29207,9.069615,-2.691790,2.146020,-0.017849,0.521274,1.363893
29208,8.866956,-2.918128,2.647908,-0.312676,0.446306,1.448971
29209,8.692514,-2.984032,3.164440,-0.603964,0.390410,1.512066
29210,8.634801,-3.255880,3.692816,-0.932873,0.367902,1.561376
29211,8.411274,-4.082091,3.623454,-1.117106,0.357493,1.599354
29212,8.281337,-4.852127,3.846062,-1.218328,0.340433,1.650647
29213,8.449463,-5.521722,4.050528,-1.155289,0.331247,1.730478
29214,8.719392,-5.931883,4.271760,-0.993706,0.401335,1.802780
29215,8.954305,-6.183586,4.858663,-0.863950,0.487598,1.879490
29216,8.970364,-6.476940,4.954526,-0.647654,0.658313,1.903792
29217,8.600867,-6.751854,4.676688,-0.326325,0.806783,1.900993
29218,8.252836,-6.779807,4.357953,0.020504,0.874450,1.905433
29219,7.980941,-6.661354,3.836807,0.315824,0.923498,1.902927
29220,7.492746,-6.370685,3.308723,0.539002,0.946724,1.879937
29221,7.082535,-5.942573,3.029532,0.653323,0.914456,1.873276
29222,6.647473,-5.607699,2.870534,0.695376,0.904942,1.835905
29223,6.397868,-5.167955,2.726024,0.650536,0.880433,1.800942
29224,6.182166,-4.883623,2.669327,0.486633,0.811155,1.773478
29225,6.088609,-4.701798,2.560790,0.281254,0.680034,1.763885
29226,6.118945,-4.460014,2.604170,0.002091,0.585833,1.744987
29227,6.043630,-4.373700,2.291095,-0.236560,0.465671,1.691540
29228,6.038696,-4.216470,2.372617,-0.518997,0.318163,1.635738
29229,5.857923,-4.130451,3.168400,-0.834827,0.224197,1.546570
29230,5.822924,-4.329825,3.959119,-1.065506,0.166602,1.456113
29231,5.960431,-4.791500,4.926702,-1.303662,0.209607,1.393647
29232,6.142429,-5.778886,5.643536,-1.387312,0.316186,1.357477
29233,6.287041,-6.810109,6.067920,-1.229941,0.437525,1.341272
29234,6.288114,-7.521538,5.939276,-0.837359,0.602459,1.298447
29235,6.060480,-7.759876,5.466513,-0.358368,0.727994,1.228379
29236,5.878198,-7.602168,4.915724,0.071433,0.804657,1.144790
29237,5.530712,-7.464991,4.298859,0.437850,0.853481,1.040473
29238,5.058939,-7.232314,3.647311,0.752515,0.866220,0.927835
29239,4.561053,-6.831641,3.013329,0.964992,0.833582,0.824662
29240,3.946914,-6.364748,2.574799,1.025256,0.770185,0.734340
29241,3.408865,-5.846283,2.148247,0.968802,0.624007,0.668416
29242,3.302797,-5.128963,1.970393,0.764923,0.451714,0.600431
29243,3.319628,-4.616517,1.707917,0.415858,0.256188,0.545859
29244,3.669089,-4.207749,1.623847,-0.013422,0.056204,0.509518
29245,3.882555,-4.103539,1.742420,-0.444979,-0.093780,0.421267
29246,4.091112,-4.228275,2.248913,-0.842324,-0.253806,0.314312
29247,4.323826,-4.651748,3.263591,-1.226466,-0.357791,0.196189
29248,4.709302,-5.630998,4.471906,-1.474004,-0.366316,0.084776
29249,5.045111,-6.894239,5.409550,-1.487217,-0.273852,0.013547
29250,5.323692,-7.893443,6.077881,-1.260923,-0.155786,-0.006974
29251,5.463161,-8.347112,6.401071,-0.820906,0.002593,-0.017360
29252,5.451109,-8.316647,6.115950,-0.266807,0.170456,-0.057852
29253,5.343942,-7.966855,5.631081,0.194913,0.292332,-0.138214
29254,5.231579,-7.743693,4.916586,0.532028,0.373281,-0.249405
29255,4.937058,-7.505559,4.138154,0.800784,0.443730,-0.378182
29256,4.288346,-7.147260,3.440378,0.980386,0.448612,-0.497274
29257,3.788381,-6.729355,2.849633,1.029159,0.377622,-0.595073
29258,3.484653,-6.226966,2.289724,0.965757,0.257669,-0.649985
29259,3.327759,-5.709915,1.935149,0.812654,0.103874,-0.692423
29260,3.462418,-5.158806,1.832314,0.585309,-0.077856,-0.753316
29261,3.940758,-4.626171,1.905152,0.284159,-0.248105,-0.810677
29262,4.531532,-4.355969,2.120662,-0.050893,-0.385002,-0.883597
29263,4.892098,-4.225606,2.521346,-0.375955,-0.481278,-0.991855
29264,5.072310,-4.310156,3.266971,-0.697273,-0.562292,-1.106227
29265,5.278241,-4.589153,4.050635,-0.988085,-0.619621,-1.219145
29266,5.470327,-5.175523,4.739421,-1.215514,-0.616341,-1.302665
29267,5.667859,-5.919695,5.157566,-1.273909,-0.612778,-1.339614
29268,6.231651,-6.578273,5.059492,-1.208958,-0.636977,-1.320604
29269,6.921615,-7.003593,4.677374,-1.020823,-0.665990,-1.286709
29270,7.946190,-7.232401,4.483229,-0.741138,-0.636974,-1.304568
29271,8.407439,-7.522152,4.578800,-0.406566,-0.428131,-1.372803
29272,8.056284,-8.238339,4.730107,-0.094380,-0.174775,-1.414561
29273,7.171624,-8.881760,4.500582,0.149037,-0.000726,-1.387539
29274,6.243229,-8.946385,4.023078,0.383440,0.091354,-1.326557
29275,5.317867,-8.664257,3.345926,0.662540,0.101807,-1.305046
29276,4.907056,-7.946137,2.656303,0.884111,0.008004,-1.311156
29277,4.824627,-6.945560,2.374421,0.929226,-0.121852,-1.333689
29278,5.064325,-6.000045,2.149721,0.853801,-0.244355,-1.353176
29279,5.358966,-5.268116,1.807699,0.711418,-0.384743,-1.375835
29280,5.925377,-4.661005,1.658269,0.454627,-0.557751,-1.385167
29281,6.530449,-4.183968,1.908714,0.101433,-0.699543,-1.391941
29282,6.962878,-4.053075,2.234031,-0.232787,-0.819770,-1.440366
29283,7.478688,-3.831370,3.105591,-0.572070,-0.904267,-1.476105
29284,8.359932,-3.994313,4.041943,-0.948158,-0.909026,-1.480320
29285,9.399211,-4.688790,4.781409,-1.201917,-0.779287,-1.440213
29286,10.082363,-5.535629,5.656883,-1.321789,-0.565831,-1.375530
29287,10.432225,-6.653985,6.139166,-1.278409,-0.300552,-1.296549
29288,10.210930,-7.749042,6.039848,-1.005949,0.024198,-1.215555
29289,9.327362,-8.477887,5.592044,-0.613304,0.287871,-1.139384
29290,8.278061,-8.864441,4.649848,-0.127711,0.415159,-1.046150
29291,7.506979,-8.690644,3.452925,0.373186,0.416180,-0.973559
29292,7.078637,-8.089844,2.407542,0.807713,0.314927,-0.930592
29293,6.894074,-7.078442,1.619325,1.126669,0.170414,-0.920415
29294,6.834491,-6.004285,1.054055,1.297439,0.007411,-0.919263
29295,6.811799,-5.037219,0.571692,1.317965,-0.184389,-0.927736
29296,6.898728,-4.169994,0.386358,1.253796,-0.411309,-0.928615
29297,7.204658,-3.237847,0.694240,1.041039,-0.636562,-0.915157
29298,7.663990,-2.428289,1.226920,0.656640,-0.808380,-0.903997
29299,8.240971,-2.102772,2.042085,0.183034,-0.918905,-0.868263
29300,9.115693,-2.145708,3.206249,-0.282553,-0.948071,-0.800705
29301,9.921094,-2.782771,4.593235,-0.634924,-0.848191,-0.699822
29302,10.656913,-4.220079,5.636153,-0.809777,-0.637623,-0.584318
29303,10.564622,-6.446674,6.437732,-0.667852,-0.322120,-0.465798
29304,10.032175,-7.886701,6.497466,-0.282116,-0.082138,-0.383739
29305,9.632160,-8.113668,5.188071,0.151375,0.099590,-0.294041
29306,8.894347,-7.673572,3.860576,0.610580,0.205619,-0.229256
29307,8.257048,-6.624194,3.423451,0.998567,0.195779,-0.238958
29308,8.089167,-5.411138,3.351140,1.208248,0.194427,-0.284578
29309,7.902666,-4.736553,3.026320,1.263214,0.269106,-0.295272
29310,7.547377,-4.553283,2.279187,1.308674,0.321176,-0.261350
29311,7.282322,-4.603061,1.484239,1.354743,0.266480,-0.202641
29312,7.200968,-4.473609,0.762294,1.453140,0.168271,-0.183374
29313,6.973319,-3.888151,0.331442,1.442339,-0.008747,-0.195465
29314,6.968455,-3.052795,0.089250,1.264819,-0.269709,-0.196333
29315,7.016052,-1.982860,0.087728,0.947789,-0.539343,-0.211434
29316,7.206118,-1.510501,0.642482,0.533503,-0.805023,-0.222126
29317,7.599465,-1.845116,1.128216,0.221500,-0.990567,-0.222177
29318,8.189114,-2.287760,2.391534,-0.033893,-1.051867,-0.204450
29319,9.091821,-2.624465,4.022718,-0.295361,-1.007303,-0.196194
29320,10.017800,-3.013200,5.516936,-0.512116,-0.827498,-0.195417
29321,10.259767,-3.684366,6.181440,-0.591301,-0.539924,-0.199353
29322,9.803539,-4.521055,5.731852,-0.353588,-0.290259,-0.231282
29323,9.438418,-5.143451,4.785920,0.077035,-0.214759,-0.263567
29324,9.457777,-5.211530,4.144925,0.508433,-0.225773,-0.257457
29325,9.387784,-4.900153,3.741921,0.749478,-0.210389,-0.240602
29326,8.913337,-4.577090,2.737377,0.821332,-0.170539,-0.205681
29327,8.095105,-4.512615,1.589786,0.886480,-0.182240,-0.170671
29328,7.392144,-4.449190,0.306888,0.978994,-0.339670,-0.133241
29329,7.055327,-4.325725,-0.493514,1.034089,-0.555538,-0.099413
29330,6.958596,-3.750173,-0.502251,0.934142,-0.844372,-0.059464
29331,7.533243,-3.231703,-0.451673,0.718155,-1.111278,-0.003282
29332,7.812088,-2.707771,0.570277,0.523545,-1.208532,0.064433
29333,7.936057,-1.875989,2.890715,0.156668,-1.254075,0.124058
29334,9.272733,-1.403643,5.034842,-0.302968,-1.224131,0.239091
29335,11.002206,-1.842182,6.287175,-0.713018,-0.915009,0.402101
29336,11.644718,-3.402624,6.471076,-0.894831,-0.420053,0.519670
29337,10.973237,-5.475041,5.876364,-0.727150,-0.005166,0.516258
29338,10.082620,-7.068953,4.854781,-0.341749,0.154925,0.485948
29339,9.400482,-7.556075,3.848965,0.207881,0.188329,0.479465
29340,8.873235,-6.863112,3.267482,0.774768,0.171507,0.464642
29341,8.316950,-5.932403,2.518027,1.223899,0.112889,0.421069
29342,7.972669,-5.087767,1.369099,1.598250,0.012297,0.379993
29343,7.675669,-4.427732,0.184299,1.883122,-0.119755,0.351353
29344,7.498627,-3.941521,-0.516713,1.987768,-0.324605,0.353717
29345,7.699628,-3.467980,-0.778634,1.892269,-0.511149,0.388949
29346,7.955102,-2.937470,-0.764440,1.657521,-0.606037,0.431141
29347,7.931073,-2.352670,-0.207324,1.354225,-0.673290,0.471186
29348,8.110105,-1.708524,0.845369,0.938329,-0.781586,0.522545
29349,8.766601,-1.043284,2.106190,0.370773,-0.837173,0.596581
29350,9.370885,-0.923109,2.811250,-0.267887,-0.756990,0.658009
29351,9.529525,-1.398351,3.391374,-0.733065,-0.584511,0.692359
29352,9.697280,-2.122863,4.186444,-1.056459,-0.444113,0.683908
29353,9.960242,-3.131317,4.539279,-1.182580,-0.270264,0.664774
29354,9.989190,-4.175017,4.565677,-1.147774,-0.075849,0.634523
29355,9.640689,-5.057271,4.058975,-0.884578,0.104222,0.613673
29356,8.860987,-5.713566,2.823074,-0.430681,0.166159,0.578710
29357,8.286716,-6.115556,1.605598,0.104889,0.083412,0.565189
29358,8.008157,-6.134083,0.794371,0.534697,-0.079616,0.578905
29359,8.043078,-5.724516,0.209722,0.809573,-0.275093,0.587285
29360,8.258711,-5.157283,-0.402669,0.969859,-0.417725,0.578520
29361,8.288364,-4.514704,-0.823931,1.140537,-0.562721,0.571766
29362,8.644805,-3.787841,-0.520475,1.159282,-0.735793,0.590231
29363,9.325528,-2.809358,0.372326,0.926439,-0.830235,0.633812
29364,9.614305,-1.790335,1.588716,0.486006,-0.828892,0.679790
29365,9.917831,-0.867284,3.142813,-0.066280,-0.808854,0.670344
29366,10.959079,-0.290277,4.538980,-0.588938,-0.650954,0.617347
29367,11.260975,-0.392006,5.127887,-1.075556,-0.222929,0.545814
29368,10.548790,-1.638597,4.614723,-1.286868,0.146126,0.459809
29369,10.088702,-3.292143,3.884676,-1.174666,0.313204,0.427216
29370,9.649720,-4.548791,3.090066,-0.907007,0.341496,0.457633
29371,9.306385,-5.326583,1.919871,-0.542290,0.297205,0.447732
29372,8.722145,-5.931025,0.489448,-0.042722,0.218013,0.375561
29373,8.152896,-5.993515,-0.567419,0.597070,0.035086,0.260584
29374,8.208347,-5.422764,-0.772377,1.122455,-0.201396,0.152183
29375,8.466771,-4.573671,-0.640991,1.385004,-0.343647,0.095742
29376,8.530877,-3.512474,-0.349188,1.408159,-0.413437,0.080669
29377,8.579786,-2.627458,0.060466,1.222273,-0.476694,0.095068
29378,8.778774,-1.977631,0.777335,0.894968,-0.528713,0.111684
29379,9.251310,-1.696451,1.893489,0.432840,-0.523010,0.136861
29380,9.774248,-1.642705,2.833641,-0.121429,-0.399308,0.159322
29381,10.049603,-2.047306,3.375192,-0.555126,-0.153885,0.146010
29382,9.682556,-3.007530,3.309997,-0.715207,0.043023,0.123670
29383,9.441425,-4.009202,2.960957,-0.670959,0.108690,0.114949
29384,9.359370,-4.752159,2.441087,-0.545511,0.096035,0.114011
29385,9.170314,-5.311022,1.883240,-0.341736,0.086529,0.089038
29386,8.857339,-5.842512,1.188965,-0.012133,0.030718,0.035627
29387,8.603307,-6.087285,0.782116,0.323936,-0.037713,0.000287
29388,8.488637,-5.841816,0.721886,0.581937,-0.113408,-0.023567
29389,8.463598,-4.992147,0.892144,0.754474,-0.168930,-0.042832
29390,8.550524,-4.123002,1.265898,0.772955,-0.194847,-0.060083
29391,8.712387,-3.633687,1.554151,0.664820,-0.178926,-0.066249
29392,8.726722,-3.319999,1.827552,0.492832,-0.125694,-0.054207
29393,8.809768,-3.129056,2.101329,0.310425,-0.081217,-0.057138
29394,8.971441,-2.896585,2.091391,0.136470,-0.054980,-0.070758
29395,8.857472,-2.736506,1.898835,0.017508,-0.069239,-0.128234
29396,8.997508,-2.787021,1.872449,0.009695,-0.094301,-0.220842
29397,9.331212,-3.094025,2.063896,-0.010934,-0.046104,-0.265355
29398,9.392576,-3.704474,2.411447,-0.149603,0.028129,-0.258155
29399,9.157729,-4.332915,2.205230,-0.153080,0.074187,-0.234581
29400,8.880507,-4.681069,1.555485,-0.024727,0.035766,-0.220670
29401,9.042868,-4.389077,1.067914,0.079382,-0.029420,-0.207117
29402,9.205448,-3.890976,0.640516,0.031361,-0.046731,-0.205975
29403,8.859739,-3.731127,0.267763,-0.025930,-0.074130,-0.225998
29404,8.979740,-3.776633,0.288420,-0.086769,-0.197852,-0.238062
29405,9.204732,-3.505436,0.441320,-0.214770,-0.283606,-0.225214
29406,9.265034,-2.671954,0.735031,-0.296675,-0.330533,-0.266310
29407,9.468303,-1.306389,0.975446,-0.439298,-0.339363,-0.330783
29408,9.595068,-0.017510,1.181679,-0.819414,-0.289262,-0.392445
29409,9.561008,0.389229,1.254804,-1.316459,-0.233324,-0.469794
29410,9.593827,-0.132594,1.236392,-1.764754,-0.209099,-0.563604
29411,9.697648,-1.090057,1.687154,-2.084078,-0.207444,-0.696643
29412,10.180027,-2.152952,2.558933,-2.212943,-0.156790,-0.867461
29413,10.506386,-3.115097,4.069584,-2.102085,0.032453,-1.077622
29414,11.077161,-3.847557,5.043730,-1.762350,0.267166,-1.236012
29415,11.137486,-4.591888,4.528202,-1.317729,0.620371,-1.290923
29416,10.127702,-5.311565,3.035797,-0.632480,0.828269,-1.342876
29417,9.642983,-5.686083,1.889082,0.111304,0.725782,-1.389470
29418,9.686612,-5.456170,1.331361,0.614975,0.442375,-1.437337
29419,10.342846,-4.669645,1.453138,1.005832,0.273255,-1.557994
29420,10.714902,-3.353873,1.772912,1.471179,0.322261,-1.781032
29421,11.017119,-1.835458,2.301177,1.842551,0.435194,-2.036570
29422,11.121358,-0.890277,2.455301,1.907142,0.613333,-2.236250
29423,10.044834,-0.875572,0.890400,1.808513,0.807047,-2.346743
29424,8.155435,-1.507991,-1.523493,1.825296,0.791597,-2.385010
29425,6.621937,-1.770266,-3.326155,1.941562,0.382686,-2.337117
29426,6.231265,-2.091727,-4.185393,1.808954,-0.275899,-2.214073
29427,7.400624,-1.954768,-4.000636,1.357021,-0.827750,-1.996506
29428,9.325947,-1.606379,-2.813800,0.730233,-0.961454,-1.711334
29429,10.392200,-1.227686,-1.295808,0.079017,-0.819731,-1.432584
29430,10.835219,-0.611854,0.263394,-0.558664,-0.723039,-1.206638
29431,11.183772,0.165568,2.199715,-1.246184,-0.691548,-1.078110
29432,12.088996,0.640096,4.537241,-1.990947,-0.545584,-1.004559
29433,12.822331,0.591298,6.254379,-2.710336,-0.118323,-0.952121
29434,12.789709,-0.218034,6.967209,-3.159473,0.405424,-0.932457
29435,12.204564,-1.764347,6.396722,-3.121683,0.872588,-0.916226
29436,11.486041,-3.799111,4.936898,-2.590251,1.158548,-0.857516
29437,10.720741,-5.462419,3.383856,-1.631503,1.214861,-0.799334
29438,10.488121,-6.444107,2.601379,-0.486008,1.149185,-0.797422
29439,10.372087,-6.458717,1.892235,0.655608,1.108818,-0.834671
29440,9.874608,-5.409711,1.204142,1.673832,1.063033,-0.897618
29441,9.346112,-3.772924,0.390880,2.497189,0.958383,-0.974713
29442,8.569511,-2.331300,-0.558399,3.016848,0.791617,-1.043668
29443,8.056831,-0.680325,-1.479858,3.314688,0.537763,-1.076868
29444,7.711419,0.959823,-1.991370,3.304188,0.268132,-1.100107
29445,7.656478,2.248469,-2.102179,3.066893,-0.029480,-1.088838
29446,7.760011,3.367826,-1.487920,2.586731,-0.261779,-1.066680
29447,8.547441,4.379606,-0.020020,1.841722,-0.401426,-1.024315
29448,9.436221,5.113198,1.589880,0.899597,-0.350103,-0.944614
29449,10.142445,4.986680,2.702970,-0.147932,-0.189460,-0.874981
29450,10.590554,4.143056,3.385641,-1.093092,0.047175,-0.845740
29451,10.798538,2.096056,3.518874,-1.787362,0.269010,-0.815997
29452,10.516414,-0.548166,2.968348,-1.996245,0.442058,-0.748661
29453,9.884580,-2.667640,2.233885,-1.708276,0.517821,-0.628218
29454,9.096028,-3.623343,1.536360,-1.125995,0.471610,-0.495128
29455,8.379592,-3.398152,0.909315,-0.473614,0.317290,-0.399031
29456,7.894163,-2.386554,0.261252,0.087158,0.114859,-0.374294
29457,7.832412,-1.164677,-0.083521,0.496623,-0.099298,-0.377748
29458,8.198632,0.115021,-0.196240,0.668312,-0.279595,-0.338112
29459,8.632700,0.976859,-0.193159,0.565984,-0.379089,-0.269956
29460,8.783123,1.604211,-0.097092,0.299326,-0.454506,-0.175748
29461,8.810419,2.136522,0.028800,-0.048457,-0.544622,-0.090464
29462,8.908561,2.482113,0.272893,-0.436450,-0.651348,0.002341
29463,9.169745,2.612419,0.629780,-0.868965,-0.754774,0.099940
29464,9.469774,2.576660,1.242567,-1.307316,-0.815862,0.192559
29465,10.088928,2.391784,2.384594,-1.713074,-0.838532,0.258759
29466,10.596269,2.077983,3.809183,-2.107832,-0.732418,0.297269
29467,10.879171,1.351386,4.941818,-2.423221,-0.550263,0.307300
29468,11.090050,0.270565,5.444160,-2.510298,-0.305029,0.312761
29469,11.148108,-1.074613,5.309232,-2.305035,-0.050749,0.337984
29470,10.863910,-2.272077,4.650546,-1.841391,0.156346,0.370408
29471,10.307384,-2.958682,3.564773,-1.178168,0.266966,0.391890
29472,9.466570,-2.613408,2.067440,-0.540797,0.217209,0.411479
29473,8.856663,-1.193579,0.841048,-0.129499,0.034190,0.377469
29474,8.993145,0.020947,0.048133,-0.015698,-0.196611,0.298157
29475,9.589815,0.228243,-0.106090,-0.098601,-0.325095,0.249513
29476,9.902994,0.161610,0.214878,-0.316077,-0.357035,0.231073
29477,9.651358,-0.267111,0.288842,-0.577340,-0.381843,0.224182
29478,8.851477,-0.773842,-0.315923,-0.634566,-0.447455,0.233514
29479,8.070642,-0.969782,-0.892982,-0.529825,-0.672083,0.224711
29480,8.266711,-0.676500,-0.913535,-0.370722,-0.942356,0.237525
29481,9.054793,-0.266208,0.074272,-0.357114,-1.019574,0.296451
29482,9.683424,-0.109067,1.316474,-0.522146,-0.902700,0.399085
29483,10.201526,-0.290302,2.494379,-0.637414,-0.714591,0.503494
29484,10.372594,-0.591504,3.412834,-0.641122,-0.525881,0.566891
29485,10.703303,-1.028336,3.967361,-0.604994,-0.334704,0.609200
29486,10.863938,-1.130417,4.113100,-0.566997,-0.096657,0.628160
29487,10.782951,-1.250787,3.398477,-0.419369,0.097750,0.613908
29488,10.336408,-1.076821,2.379486,-0.165639,0.193149,0.543502
29489,9.988981,-0.667989,1.446215,0.002808,0.122319,0.422350
29490,9.911554,-0.459219,0.403265,0.061152,0.010376,0.340900
29491,9.637186,-0.623279,-0.576910,0.019808,-0.146208,0.300293
29492,9.845512,-0.884714,-1.044012,-0.090273,-0.332683,0.284747
29493,9.675208,-1.632394,-1.245789,-0.183441,-0.378583,0.371346
29494,8.914576,-2.310037,-1.736817,-0.159277,-0.530691,0.493550
29495,8.662040,-2.521543,-1.511051,0.011099,-0.699831,0.593625
29496,8.575299,-2.467706,-0.921959,0.210387,-0.849636,0.661365
29497,8.989511,-1.828700,-0.148551,0.320073,-0.903071,0.735260
29498,9.394469,-0.814193,0.780200,0.310507,-0.835153,0.779755
29499,9.891202,0.300801,1.837279,0.301544,-0.782436,0.714012
29500,10.552427,1.115363,2.737817,0.172307,-0.675322,0.580808
29501,10.862907,1.553042,3.305148,-0.020962,-0.476967,0.423531
29502,10.892096,1.882503,3.136004,-0.143966,-0.245387,0.246054
29503,10.704027,1.842859,2.789443,-0.191604,-0.098566,0.078685
29504,10.750107,1.584878,2.684912,-0.290599,0.016336,-0.021436
29505,10.633784,1.154292,2.325032,-0.503168,0.182954,-0.077322
29506,10.253660,0.645077,1.556478,-0.667701,0.294304,-0.119713
29507,9.980862,0.116890,0.735531,-0.775498,0.331405,-0.159300
29508,9.737490,-0.398835,0.271719,-0.823329,0.302441,-0.191223
29509,9.800549,-0.951451,0.076847,-0.840550,0.257314,-0.223773
29510,9.828619,-1.627930,0.024597,-0.763552,0.248469,-0.214998
29511,9.698394,-2.013274,0.055805,-0.600062,0.211497,-0.193364
29512,9.768856,-1.954852,0.083928,-0.434019,0.155306,-0.177782
29513,9.645295,-1.872838,-0.176185,-0.335860,0.118884,-0.151173
29514,9.273060,-1.926206,-0.524498,-0.228390,0.061860,-0.122286
29515,9.092334,-1.981697,-0.470405,-0.116386,-0.047898,-0.100573
29516,9.269543,-2.001360,-0.021041,-0.046807,-0.119044,-0.080638
29517,9.438463,-1.875085,0.447586,0.020389,-0.119703,-0.045015
29518,9.569758,-1.611006,0.793575,0.094066,-0.113173,-0.020486
29519,9.760167,-1.338130,0.820210,0.135577,-0.105027,-0.009481
29520,9.893516,-0.901458,0.992146,0.194284,-0.094873,0.003276
29521,10.303936,-0.393780,1.543950,0.141582,-0.031377,0.008091
29522,10.432587,-0.386446,1.664843,-0.032729,0.107108,0.006047
29523,10.207542,-0.826229,1.162012,-0.180828,0.186823,0.015941
29524,9.982325,-1.195374,0.439517,-0.194403,0.198510,0.037785
29525,9.752662,-1.358899,0.098884,-0.128309,0.125818,0.048014
29526,9.772600,-1.233354,0.127524,-0.052655,0.057400,0.050447
29527,9.746290,-1.091109,0.349200,0.014912,0.029315,0.052700
29528,9.814146,-0.953565,0.369921,0.018721,0.000208,0.027898
29529,9.716221,-1.079410,0.351281,0.032775,-0.009032,0.029893
29530,9.586655,-1.415250,0.214796,0.086828,-0.038594,0.043282
29531,9.446267,-1.478632,0.143440,0.192001,-0.092645,0.068968
29532,9.440852,-1.107763,0.297439,0.261825,-0.137840,0.079999
29533,9.467434,-0.781369,0.350117,0.296035,-0.142681,0.079312
29534,9.477332,-0.482637,0.426759,0.305171,-0.142851,0.071455
29535,9.568819,-0.412604,0.579984,0.287216,-0.133098,0.059697
29536,9.667281,-0.363383,0.757939,0.258741,-0.133315,0.041827
29537,9.854940,-0.267668,0.906210,0.228995,-0.113002,0.026934
29538,9.994138,-0.181438,1.034440,0.162317,-0.077487,-0.000362
29539,10.064935,-0.292169,0.932758,0.108987,-0.037929,-0.006319
29540,10.134347,-0.375274,0.931051,0.077325,-0.013173,-0.003841
29541,10.177539,-0.466154,0.884714,0.055274,0.016909,-0.006055
29542,10.123258,-0.482210,0.743877,0.021229,0.033650,-0.010972
29543,10.054884,-0.650781,0.636471,0.005278,0.049294,-0.008719
29544,9.951907,-0.778114,0.529787,0.006721,0.057380,0.007375
29545,9.859610,-0.924875,0.545576,0.008499,0.046851,0.014059
29546,9.859111,-0.927200,0.550627,0.014882,0.053404,0.034409
29547,9.744870,-0.981374,0.563421,0.039142,0.057375,0.043526
29548,9.714915,-0.967237,0.569832,0.065816,0.056159,0.051610
29549,9.686920,-0.951248,0.625071,0.083312,0.056007,0.055545
29550,9.761778,-0.965199,0.604490,0.102227,0.060303,0.057182
29551,9.777790,-1.040537,0.638813,0.130197,0.062402,0.061919
29552,9.800528,-1.040301,0.645743,0.158626,0.073081,0.059937
29553,9.784089,-1.004207,0.530711,0.170210,0.072370,0.068363
29554,9.746800,-0.970279,0.489387,0.179615,0.062586,0.070544
29555,9.760951,-0.824760,0.463153,0.177443,0.049542,0.079584
29556,9.870574,-0.755207,0.509017,0.133516,0.033783,0.074411
29557,9.986067,-0.836548,0.513240,0.080350,0.034526,0.073354
29558,9.961060,-0.945190,0.597547,0.068587,0.034557,0.081199
29559,9.937187,-0.956550,0.626164,0.076660,0.013716,0.081593
29560,9.999261,-0.898436,0.671018,0.074811,0.014694,0.084856
29561,9.911428,-0.850165,0.672629,0.081564,0.008897,0.084869
29562,9.845796,-0.799833,0.623815,0.077992,0.005358,0.088296
29563,9.845890,-0.806735,0.649707,0.049976,0.015502,0.090763
29564,9.722165,-0.941083,0.664174,0.043636,0.021474,0.095059
29565,9.778963,-0.987852,0.667017,0.052396,0.021393,0.098126
29566,9.807573,-1.014474,0.694781,0.062108,0.033304,0.099731
