// Start Time: Unknown
// Update Rate: 100.0Hz
// Filter Profile: human (46.1)
// Firmware Version: 4.3.5
PacketCounter,Acc_X,Acc_Y,Acc_Z,Gyr_X,Gyr_Y,Gyr_Z
02855,10.536371,-5.261224,1.109286,-1.524917,0.007724,-1.408884
02856,10.374269,-5.652323,0.870493,-1.394189,0.034424,-1.365832
02857,10.328757,-6.069267,0.636440,-1.184685,0.042272,-1.323619
02858,10.322469,-6.054141,0.676870,-0.909112,0.051335,-1.288158
02859,10.261991,-5.746905,0.704084,-0.663851,0.058193,-1.245251
02860,10.019287,-5.367425,0.719965,-0.500361,0.036278,-1.186830
02861,9.907908,-5.030567,0.898146,-0.429652,0.003507,-1.118865
02862,9.835106,-4.913601,1.017496,-0.406075,-0.034332,-1.051622
02863,9.916421,-4.873687,1.085413,-0.372724,-0.056270,-0.983484
02864,9.943858,-4.788571,1.210141,-0.327559,-0.055432,-0.914752
02865,9.998364,-4.644453,1.329139,-0.275904,-0.031505,-0.853302
02866,9.970890,-4.461143,1.332856,-0.242382,0.012388,-0.785269
02867,9.930083,-4.334029,1.156638,-0.236303,0.051446,-0.725575
02868,9.820905,-4.313384,0.958277,-0.243959,0.074779,-0.666866
02869,9.761061,-4.185722,0.838631,-0.258014,0.087546,-0.618244
02870,9.711892,-4.042697,0.925053,-0.279118,0.090330,-0.568699
02871,9.766329,-3.840097,1.183277,-0.291994,0.086604,-0.525928
02872,9.855567,-3.715472,1.202752,-0.311508,0.084534,-0.468918
02873,9.985796,-3.717222,1.247510,-0.327373,0.075234,-0.412394
02874,10.075779,-3.720172,1.189169,-0.324122,0.069652,-0.354351
02875,10.018297,-3.765882,1.137083,-0.303602,0.065459,-0.292890
02876,9.990590,-3.690990,1.067605,-0.259239,0.070412,-0.234525
02877,9.941207,-3.577021,1.009357,-0.205723,0.065190,-0.183309
02878,9.932827,-3.454938,0.983244,-0.167612,0.049161,-0.134121
02879,9.935716,-3.347651,0.905001,-0.130757,0.028682,-0.085467
02880,9.841801,-3.103014,0.727872,-0.113183,0.004657,-0.036106
02881,9.837129,-2.877511,0.676908,-0.145710,-0.031711,0.021109
02882,9.882625,-2.714615,0.612222,-0.210630,-0.047975,0.086443
02883,9.839956,-2.670860,0.384541,-0.285879,-0.061713,0.148067
02884,9.804706,-2.840107,0.127097,-0.367867,-0.069647,0.208772
02885,9.902892,-3.109850,0.077423,-0.438718,-0.073827,0.254931
02886,9.882911,-3.419841,0.310207,-0.466981,-0.069626,0.302322
02887,10.017273,-3.495626,0.614393,-0.512990,-0.073011,0.355426
02888,10.088748,-3.621345,0.747050,-0.588910,-0.092794,0.404544
02889,10.000985,-4.043318,0.882083,-0.685879,-0.141894,0.471690
02890,9.923580,-4.918349,0.953097,-0.730252,-0.220602,0.566600
02891,10.034211,-5.989329,0.989402,-0.663765,-0.317179,0.695339
02892,10.363737,-6.997054,1.281226,-0.417484,-0.411260,0.845881
02893,10.695120,-7.969217,1.317013,0.061029,-0.488767,1.004069
02894,11.065588,-8.615861,1.216205,0.709364,-0.512090,1.184786
02895,11.268250,-8.571154,0.911437,1.381485,-0.517908,1.370765
02896,11.517428,-8.170488,0.453786,1.883177,-0.525777,1.572517
02897,11.580784,-8.069529,-0.411959,2.260657,-0.519631,1.757615
02898,11.741118,-8.413095,-1.154829,2.616312,-0.508169,1.968757
02899,12.102522,-8.953169,-1.377935,3.119691,-0.383135,2.157251
02900,12.363871,-8.967943,-0.934434,3.637359,-0.181063,2.319396
02901,12.059886,-8.120920,-0.122970,4.102503,0.083474,2.425529
02902,11.209743,-5.673716,1.234767,4.252338,0.282161,2.463655
02903,10.226668,-2.995052,2.196509,3.845978,0.388218,2.467308
02904,9.319156,-2.023484,2.532598,3.006380,0.341930,2.457992
02905,9.290782,-3.042390,2.626201,2.173872,0.200427,2.455856
02906,9.707492,-5.308597,2.035434,1.747277,0.054011,2.487667
02907,10.414341,-7.518460,1.303182,1.787835,-0.049535,2.524589
02908,10.937796,-8.614637,0.480764,2.175365,-0.078063,2.579676
02909,11.156035,-8.145992,-0.129804,2.575205,-0.115745,2.658720
02910,11.193946,-6.449235,0.192958,2.671665,-0.125399,2.716212
02911,10.801200,-4.473912,1.178404,2.366192,-0.095081,2.778931
02912,9.965282,-2.997577,1.534933,1.742112,-0.102809,2.800590
02913,9.343064,-2.761083,1.757632,0.956402,-0.129864,2.811934
02914,8.624166,-3.455877,1.796920,0.312377,-0.104275,2.799959
02915,7.910780,-4.410185,1.795057,-0.105601,-0.070647,2.753414
02916,7.011395,-5.243924,1.485740,-0.288762,-0.008485,2.669186
02917,6.077014,-5.976013,0.937066,-0.210490,0.014781,2.535860
02918,5.460458,-6.776704,0.528044,0.042932,-0.001328,2.374814
02919,5.436158,-7.550342,0.771727,0.460293,-0.043732,2.202343
02920,5.826439,-8.250203,0.836774,0.963001,-0.107965,2.064893
02921,6.568403,-8.446046,0.613602,1.442217,-0.213538,1.991509
02922,7.243296,-7.850935,0.548253,1.729603,-0.330391,1.976477
02923,7.356936,-6.680073,0.658033,1.758539,-0.408615,1.981100
02924,7.188835,-5.694212,0.878979,1.477602,-0.498545,1.978913
02925,6.948390,-5.521679,1.414132,1.071473,-0.575875,1.987234
02926,7.010400,-6.308667,1.786774,0.740475,-0.560826,1.997714
02927,6.684023,-7.635021,1.879180,0.681441,-0.417173,2.005147
02928,6.099245,-8.670504,1.670825,0.823448,-0.200035,2.024611
02929,5.516729,-8.966398,2.083565,1.024718,0.037976,2.066362
02930,4.811563,-8.047504,2.504815,1.195854,0.257053,2.068698
02931,4.237261,-6.271810,3.148599,1.158896,0.340372,2.020533
02932,4.084815,-5.297492,3.886292,0.815963,0.327330,1.956442
02933,4.364911,-6.637464,3.775913,0.397024,0.239792,1.913045
02934,4.769582,-9.188075,2.519925,0.358355,0.076833,1.882782
02935,5.104054,-10.763633,1.697160,0.760758,-0.076365,1.833698
02936,5.055848,-10.650156,1.544650,1.254599,-0.199484,1.851135
02937,4.848421,-9.197748,2.014141,1.539147,-0.255378,1.824263
02938,4.430315,-7.841844,2.112763,1.525507,-0.303923,1.807260
02939,4.130895,-6.834041,2.040766,1.341682,-0.358069,1.760692
02940,4.308028,-6.969664,2.178501,1.070638,-0.367345,1.729511
02941,4.566785,-8.097242,2.552919,0.915094,-0.276294,1.746612
02942,4.542274,-9.046172,3.402330,0.917080,-0.126886,1.774488
02943,4.058396,-9.107336,4.558901,1.015872,0.075901,1.800878
02944,3.158603,-8.333613,4.902572,1.065493,0.194479,1.823018
02945,2.571536,-7.150072,4.914632,0.910328,0.234673,1.825517
02946,2.368712,-6.555101,4.682327,0.526190,0.223447,1.824850
02947,2.280990,-7.058347,4.042806,0.134704,0.168695,1.803413
02948,2.436655,-8.267253,3.716338,-0.102830,0.054297,1.781595
02949,2.851590,-9.585934,3.794465,-0.107368,-0.038599,1.758868
02950,2.786676,-11.074983,2.767456,0.218360,-0.187103,1.734081
02951,2.509135,-11.405616,2.167751,0.680408,-0.335233,1.749427
02952,1.924279,-10.376375,2.131619,0.987853,-0.484935,1.772112
02953,1.490750,-8.709183,2.061544,1.032244,-0.666662,1.773668
02954,1.466630,-7.470290,2.462507,0.874153,-0.860546,1.732982
02955,2.091467,-7.747227,3.338551,0.664484,-0.951491,1.701009
02956,2.298613,-8.763566,3.748685,0.669873,-0.905492,1.687702
02957,2.084836,-9.155036,4.123482,0.853743,-0.840577,1.674898
02958,1.672719,-9.002096,4.740284,1.078939,-0.754011,1.661876
02959,1.193022,-8.567048,5.099796,1.242816,-0.683962,1.629417
02960,0.526164,-8.025585,5.248500,1.363185,-0.649135,1.571644
02961,0.104438,-7.602212,5.158718,1.368882,-0.663662,1.515567
02962,-0.170722,-6.921479,5.000048,1.208273,-0.744379,1.461341
02963,0.049312,-6.775651,5.184971,0.849281,-0.857057,1.399293
02964,0.604658,-7.352499,5.515618,0.467948,-0.969136,1.353743
02965,0.860387,-8.896896,5.003156,0.348703,-1.060415,1.305755
02966,0.798510,-10.471004,3.884997,0.639639,-1.150839,1.265906
02967,0.859898,-10.840127,3.405664,1.095465,-1.250624,1.262451
02968,0.786068,-10.073492,3.524855,1.455409,-1.277224,1.310118
02969,0.803619,-8.971619,3.857369,1.583033,-1.289564,1.367130
02970,0.817006,-8.449306,4.400677,1.619381,-1.218048,1.436565
02971,0.762909,-8.356689,5.360210,1.667406,-1.036430,1.507627
02972,0.411050,-7.777095,6.385856,1.711303,-0.796593,1.562763
02973,0.028473,-6.810572,7.009026,1.616432,-0.584031,1.611106
02974,-0.140338,-5.709547,6.726979,1.334640,-0.410050,1.649180
02975,-0.241412,-4.778937,6.316612,0.970577,-0.308081,1.631983
02976,-0.192234,-5.177940,5.732026,0.566525,-0.285056,1.601936
02977,-0.136992,-6.480356,5.148054,0.366033,-0.328526,1.590737
02978,-0.015522,-7.784673,4.541045,0.455742,-0.421509,1.558206
02979,-0.095299,-8.002115,4.136709,0.710230,-0.554545,1.533858
02980,-0.479154,-7.302218,3.895670,0.863464,-0.695584,1.511927
02981,-0.893322,-6.799043,3.929420,0.780801,-0.872216,1.519638
02982,-1.047196,-6.608869,4.206461,0.578427,-1.028495,1.542315
02983,-0.987649,-6.697280,4.653833,0.369409,-1.153006,1.555614
02984,-0.847648,-7.262007,4.899118,0.283964,-1.242942,1.567795
02985,-0.421203,-8.288962,4.999776,0.408232,-1.269993,1.586605
02986,0.080650,-8.841506,5.571998,0.724583,-1.171187,1.628836
02987,0.323737,-8.388235,6.498310,1.073304,-1.032099,1.683561
02988,0.325427,-7.008032,7.478029,1.237263,-0.844699,1.736791
02989,-0.228883,-5.334163,8.067970,1.154710,-0.680805,1.771920
02990,-0.959913,-4.157001,8.168260,0.855772,-0.568833,1.797134
02991,-1.331322,-3.867539,7.707689,0.412053,-0.520320,1.782758
02992,-1.083831,-4.541731,6.883624,0.035457,-0.528869,1.750432
02993,-0.659835,-5.443368,5.962069,-0.143829,-0.567968,1.710346
02994,-0.628390,-5.815864,5.361672,-0.107035,-0.619351,1.646031
02995,-0.963013,-6.194613,4.845504,0.010207,-0.746092,1.582057
02996,-1.157454,-6.268071,4.505794,0.125935,-0.892494,1.539839
02997,-1.423927,-5.400404,4.721136,0.175398,-1.045648,1.472723
02998,-1.673976,-4.599142,5.422810,0.073522,-1.210060,1.414391
02999,-1.650946,-4.538913,6.310047,-0.128216,-1.323043,1.357548
03000,-1.290916,-5.357687,7.282130,-0.243251,-1.380175,1.289956
03001,-0.827888,-6.343896,7.666764,-0.112474,-1.347121,1.260731
03002,-0.599300,-6.688798,8.014891,0.175049,-1.224008,1.242700
03003,-0.622692,-6.598095,8.531124,0.515447,-1.051353,1.214025
03004,-0.708928,-5.932126,9.078617,0.822599,-0.817690,1.190055
03005,-1.121728,-4.639063,9.555163,0.991135,-0.597225,1.144352
03006,-1.284080,-3.042305,9.960218,0.890459,-0.434112,1.070480
03007,-1.075136,-1.906257,9.914325,0.483701,-0.327870,0.978361
03008,-0.862209,-1.781195,9.303230,-0.102664,-0.255539,0.876373
03009,-1.174326,-2.792411,7.917893,-0.597005,-0.252649,0.773797
03010,-1.704570,-4.169171,5.901817,-0.823380,-0.342435,0.682341
03011,-2.116550,-4.619125,4.579054,-0.882753,-0.479633,0.570278
03012,-2.361822,-4.236452,4.577922,-0.957803,-0.684520,0.454260
03013,-1.998025,-4.699826,6.057544,-1.066744,-0.885052,0.346434
03014,-1.292185,-6.213165,7.438972,-0.965002,-0.988963,0.262786
03015,-0.678178,-7.465242,8.526814,-0.552546,-0.968495,0.184467
03016,-0.275725,-7.349501,9.613739,0.010546,-0.790752,0.113454
03017,-0.344325,-6.326895,10.252436,0.458031,-0.552142,0.049824
03018,0.013325,-5.308241,10.801472,0.646593,-0.267202,-0.010615
03019,0.190526,-4.748971,11.310533,0.656161,0.091307,-0.065599
03020,-0.091429,-4.169472,11.043347,0.546932,0.393835,-0.129635
03021,-0.402177,-3.587654,10.140033,0.244702,0.604728,-0.149380
03022,-1.156206,-3.659036,8.821373,-0.284358,0.738717,-0.126672
03023,-2.503078,-5.185768,5.993817,-0.620709,0.710631,-0.098382
03024,-3.299153,-6.900601,3.476954,-0.608936,0.521624,-0.110864
03025,-3.575488,-7.274053,2.488039,-0.382833,0.222551,-0.120354
03026,-3.295645,-6.537719,3.125294,-0.225705,-0.167052,-0.144721
03027,-2.462200,-5.684926,4.942981,-0.248825,-0.484517,-0.166915
03028,-1.922209,-5.398286,6.658252,-0.405189,-0.693057,-0.202975
03029,-1.463323,-5.505342,7.809443,-0.509266,-0.796686,-0.251021
03030,-0.744962,-6.137597,9.164299,-0.507820,-0.712955,-0.295920
03031,0.117615,-6.730137,10.969598,-0.251951,-0.477392,-0.335182
03032,1.429491,-5.955524,14.086320,0.084227,0.001254,-0.400113
03033,1.465305,-5.382728,15.482881,0.129232,0.637247,-0.449718
03034,1.090844,-7.087340,12.160129,0.335563,1.021180,-0.494835
03035,0.784431,-6.509014,8.360811,0.724093,1.339785,-0.560390
03036,-0.343668,-3.499403,7.166471,0.585208,1.431985,-0.615851
03037,-2.069851,-3.179566,6.206686,-0.097981,1.382907,-0.651614
03038,-3.086174,-5.515133,4.561506,-0.629685,1.139219,-0.691899
03039,-3.373521,-7.860693,2.953639,-0.621390,0.850740,-0.698835
03040,-3.456625,-7.946911,2.584436,-0.378920,0.511768,-0.668300
03041,-3.311702,-6.416428,3.413917,-0.375827,0.195382,-0.641560
03042,-3.399977,-5.378207,4.249678,-0.714593,-0.062358,-0.612559
03043,-4.250779,-5.546003,4.594053,-1.106670,-0.267167,-0.573307
03044,-4.682829,-7.338669,5.647498,-1.316091,-0.416981,-0.509757
03045,-3.197677,-9.440628,7.536259,-1.082291,-0.458861,-0.448014
03046,-0.567791,-10.002536,9.964909,-0.361492,-0.244396,-0.362419
03047,1.538359,-8.498269,11.942896,0.363241,0.136471,-0.337692
03048,2.336046,-6.421116,12.521428,0.807592,0.628174,-0.365407
03049,2.169152,-4.651767,12.325423,1.004940,1.102038,-0.481718
03050,1.428716,-3.615186,11.194323,1.079325,1.508467,-0.659220
03051,0.781535,-2.672844,9.929221,1.060977,1.752349,-0.885690
03052,0.079670,-1.890491,8.869608,0.919208,1.898094,-1.143586
03053,-0.705509,-1.809719,7.810573,0.594367,1.884761,-1.429538
03054,-1.033360,-3.287049,7.346848,0.271998,1.774030,-1.687185
03055,-1.028591,-5.409903,6.761418,0.326485,1.642836,-1.928400
03056,-0.351610,-6.906350,6.495657,0.732492,1.490310,-2.133314
03057,0.514534,-6.583853,6.628000,1.158825,1.404491,-2.281426
03058,0.591267,-5.409804,7.184744,1.284544,1.322085,-2.415194
03059,0.265557,-4.907981,7.420379,1.013740,1.175022,-2.489027
03060,0.156893,-5.034107,7.757996,0.559912,1.090519,-2.544986
03061,-0.736605,-5.789748,8.322187,0.168146,1.079218,-2.574228
03062,-1.838881,-7.163452,8.975314,-0.098033,1.109833,-2.556389
03063,-1.642834,-8.503483,9.694206,-0.182801,1.144032,-2.488760
03064,0.035079,-9.284697,11.261338,-0.102259,1.279980,-2.412632
03065,1.455852,-10.005460,12.609322,0.151774,1.590185,-2.298927
03066,1.587648,-9.616795,12.231875,0.601169,1.939492,-2.228587
03067,0.885651,-7.839030,9.812386,1.190612,2.144718,-2.256904
03068,0.634947,-6.177812,7.123365,1.729935,2.215956,-2.308760
03069,0.591359,-4.912345,5.371203,2.056227,2.249910,-2.396505
03070,0.301622,-3.205537,5.271680,2.103579,2.219902,-2.512652
03071,-0.065529,-1.475363,6.608465,1.753338,2.060986,-2.654849
03072,-0.095652,-0.340330,8.631020,1.122238,1.936851,-2.826256
03073,-0.100957,-0.370816,9.865048,0.380168,1.850155,-3.064606
03074,1.036688,-2.294010,9.905321,-0.345124,1.728317,-3.203592
03075,2.381767,-4.815035,8.938928,-0.727426,1.726835,-3.273170
03076,2.461388,-7.203063,7.647733,-0.607605,1.764892,-3.339085
03077,1.414117,-8.520760,6.480295,0.013180,1.774590,-3.423947
03078,0.198983,-8.448337,5.692972,0.844902,1.731254,-3.503449
03079,-0.456518,-7.478854,5.591057,1.499781,1.614189,-3.559963
03080,-0.511969,-6.327904,6.082721,1.838567,1.460824,-3.591893
03081,-0.007440,-5.145180,7.005079,1.870892,1.321867,-3.620478
03082,0.582894,-3.975232,7.869368,1.681664,1.244803,-3.638865
03083,0.829918,-3.171214,7.967792,1.338403,1.194901,-3.660283
03084,1.014987,-2.622949,7.752571,0.939220,1.139681,-3.693479
03085,1.402954,-2.671955,7.610585,0.532033,1.094623,-3.730317
03086,2.091826,-3.755086,7.251575,0.173915,1.058912,-3.739859
03087,2.982720,-5.145455,7.345291,-0.043648,1.057955,-3.715676
03088,3.156667,-6.321425,8.082440,-0.056143,1.118131,-3.688069
03089,3.007653,-6.914409,9.063072,-0.039927,1.124393,-3.621000
03090,3.092799,-6.559561,9.100287,-0.174189,1.079889,-3.506916
03091,3.353892,-6.035491,7.830108,-0.579688,1.035159,-3.368631
03092,3.374126,-8.153785,5.549752,-0.869649,0.986288,-3.226828
03093,3.570265,-13.087738,4.062213,-0.562996,0.957268,-3.138281
03094,3.473494,-17.269773,4.898504,0.699953,1.025102,-2.957177
03095,2.751397,-16.691014,6.577449,2.412399,1.036135,-2.701671
03096,2.703259,-11.375433,8.766323,3.433872,0.898936,-2.431662
03097,2.502889,-5.803180,10.215261,3.266988,0.777796,-2.137514
03098,1.864729,-3.478964,10.170946,2.231026,0.637680,-1.927321
03099,1.043194,-4.122757,8.861579,1.430131,0.570730,-1.852533
03100,0.436300,-5.152703,7.468786,1.244660,0.542516,-1.795272
03101,0.189202,-5.047741,6.589483,1.493958,0.540645,-1.820881
03102,0.191581,-3.570067,6.949832,1.792964,0.558928,-1.889904
03103,0.188398,-1.258087,8.593158,1.864581,0.607757,-1.995467
03104,0.256087,1.004997,10.321155,1.552839,0.636616,-2.143106
03105,0.713550,2.238242,11.411730,0.841028,0.583925,-2.314566
03106,1.775455,2.123794,11.448478,-0.096802,0.543486,-2.422760
03107,2.571454,1.067973,10.700077,-1.044810,0.532539,-2.456316
03108,2.854117,-0.162694,10.100253,-1.790972,0.525494,-2.471411
03109,3.128940,-1.276296,9.897580,-2.331000,0.518953,-2.480409
03110,3.493390,-2.300784,9.645549,-2.655898,0.527460,-2.483328
03111,3.692876,-3.182021,9.578144,-2.717960,0.576187,-2.511866
03112,3.768400,-4.007285,9.405328,-2.569082,0.655162,-2.544933
03113,3.946577,-4.604394,9.274845,-2.313701,0.736401,-2.561636
03114,4.058895,-4.829754,9.193264,-1.994156,0.830206,-2.575473
03115,3.867489,-4.918683,9.120069,-1.653799,0.905635,-2.609668
03116,3.527875,-4.983860,8.662456,-1.317824,0.931746,-2.633702
03117,3.413263,-5.281871,7.770361,-0.918352,0.935546,-2.664463
03118,3.792236,-5.894802,7.281319,-0.411623,0.976822,-2.698251
03119,4.108465,-6.609774,7.463342,0.134893,1.074502,-2.712735
03120,4.236719,-6.509099,8.024719,0.612632,1.138809,-2.703081
03121,4.285978,-5.803880,8.264650,0.894663,1.191757,-2.709745
03122,4.104557,-5.482218,8.372432,0.963691,1.237173,-2.710718
03123,3.734398,-5.886619,8.076805,1.014269,1.249232,-2.702517
03124,3.481164,-6.134298,7.938040,1.106794,1.212411,-2.663969
03125,3.231359,-5.202568,8.037263,1.063360,1.110460,-2.576787
03126,3.198063,-3.994585,8.191055,0.675918,0.911194,-2.455049
03127,3.570287,-3.556272,8.357816,0.006625,0.713610,-2.311964
03128,3.832824,-4.459044,8.583499,-0.568777,0.601953,-2.180737
03129,3.912078,-5.619761,8.848303,-0.769083,0.553706,-2.068006
03130,3.960291,-5.903171,9.203654,-0.584341,0.594865,-2.010222
03131,3.435545,-5.076129,9.319952,-0.263373,0.663800,-1.993642
03132,2.634225,-3.683077,8.611080,0.043442,0.654634,-2.023363
03133,2.430356,-2.615784,7.862939,0.209200,0.618076,-2.070271
03134,2.696109,-2.395321,7.188084,0.245089,0.562492,-2.115010
03135,3.161785,-2.664104,6.759236,0.212419,0.565280,-2.133703
03136,3.348389,-2.476184,7.199244,0.068418,0.621485,-2.130563
03137,3.482945,-2.020039,8.849486,-0.285511,0.701767,-2.105883
03138,3.668423,-2.017058,9.809857,-0.787176,0.767309,-2.075493
03139,3.498691,-2.390541,9.929112,-1.125603,0.814114,-2.066671
03140,3.092383,-2.967267,9.703385,-1.283004,0.793188,-2.066403
03141,3.066150,-3.215458,9.636430,-1.259665,0.772862,-2.097171
03142,3.309867,-3.663345,9.547564,-1.201235,0.727858,-2.126920
03143,3.511602,-4.706237,9.539701,-1.069209,0.648311,-2.126770
03144,3.962984,-5.731086,9.708060,-0.773537,0.591145,-2.111943
03145,4.259221,-6.326133,9.664096,-0.320275,0.584870,-2.061381
03146,4.126489,-5.934624,9.526397,0.157979,0.583065,-2.003078
03147,3.759225,-5.093697,9.070063,0.476717,0.577891,-1.918755
03148,2.970441,-3.562913,6.955476,0.702895,0.457169,-1.867848
03149,3.249782,-3.162987,5.638345,0.678594,0.353358,-1.788453
03150,3.622059,-3.433174,5.402201,0.631720,0.426062,-1.645226
03151,3.988422,-3.279880,6.544596,0.489571,0.520329,-1.484480
03152,4.274194,-2.912273,9.426088,-0.042841,0.734169,-1.298985
03153,3.221542,-2.350056,10.337965,-0.731947,0.788701,-1.182215
03154,2.925778,-2.354331,9.838806,-1.465188,0.683545,-1.149702
03155,2.874217,-3.603986,9.517463,-1.998657,0.603902,-1.182603
03156,2.749065,-5.009008,9.410863,-2.064200,0.489104,-1.242175
03157,2.701407,-6.116878,8.866908,-1.666634,0.380607,-1.321047
03158,2.672120,-7.323091,8.180678,-0.984324,0.313583,-1.348227
03159,3.327317,-8.347053,8.369170,-0.131517,0.280524,-1.301124
03160,3.419499,-7.235793,8.293678,0.782953,0.337600,-1.228179
03161,3.362500,-5.356862,8.485312,1.215294,0.331797,-1.105012
03162,3.013924,-4.163457,8.320801,1.119846,0.303320,-0.930007
03163,1.869796,-2.788856,6.288805,0.795638,0.153924,-0.819678
03164,2.521998,-2.416695,5.929985,0.382302,-0.017671,-0.748829
03165,3.276740,-3.394672,7.066832,0.020869,0.123593,-0.595455
03166,3.244492,-4.202968,8.736422,-0.225597,0.261550,-0.511237
03167,2.508622,-3.915181,10.067647,-0.329943,0.361640,-0.507899
03168,2.118395,-3.163459,10.043697,-0.537723,0.318104,-0.545734
03169,2.129859,-3.245207,9.204983,-0.794692,0.229239,-0.598862
03170,2.277971,-4.290355,8.592735,-0.894157,0.131888,-0.622325
03171,2.911726,-5.282472,8.904570,-0.838204,0.052975,-0.602283
03172,3.423731,-5.893853,9.611191,-0.640350,0.057927,-0.553106
03173,3.181245,-6.049375,9.574109,-0.291656,0.075979,-0.503376
03174,2.953584,-5.713875,9.038294,0.048639,0.057148,-0.434966
03175,3.126124,-5.827233,8.922754,0.304714,0.050868,-0.326150
03176,3.085625,-5.735876,9.337548,0.446839,0.070228,-0.213321
03177,2.506738,-4.786851,8.945073,0.453095,0.027916,-0.146698
03178,1.404648,-2.676157,6.153669,0.317118,-0.165905,-0.124305
03179,2.235667,-2.148549,5.354182,-0.137254,-0.374640,-0.153433
03180,3.576990,-4.534194,6.397269,-0.340636,-0.242839,-0.088533
03181,4.071662,-6.911555,8.240314,-0.124937,-0.017000,0.005992
03182,3.477253,-6.607691,9.309361,0.247671,0.174288,0.088956
03183,2.709173,-4.385658,9.610959,0.235545,0.191401,0.114427
03184,1.976494,-3.146212,9.426005,-0.216993,0.100050,0.090880
03185,1.840158,-4.447716,8.937698,-0.618605,-0.041052,0.034930
03186,2.635307,-6.915150,8.824955,-0.571110,-0.148162,0.020957
03187,3.635985,-8.946308,9.191305,0.026689,-0.161392,0.058295
03188,3.585947,-8.930040,8.939186,0.977730,-0.146401,0.113758
03189,3.606693,-7.746631,9.237759,1.675127,-0.150429,0.245763
03190,3.379588,-7.066416,9.185595,2.047769,-0.094669,0.445250
03191,2.279283,-5.185365,7.617300,2.084129,-0.204163,0.619825
03192,2.319073,-3.139339,7.059684,1.756748,-0.413286,0.774211
03193,2.923839,-2.065988,6.629251,1.154810,-0.551442,0.959183
03194,3.593197,-2.777099,5.984724,0.474679,-0.660704,1.179688
03195,4.652800,-5.710604,7.526552,0.194345,-0.573454,1.435375
03196,4.747089,-7.067119,8.903286,0.608307,-0.355365,1.603653
03197,4.046411,-5.648480,9.175758,1.084725,-0.209902,1.658460
03198,3.384536,-2.780804,9.413018,1.019745,-0.183360,1.693944
03199,3.046212,-1.260129,9.548012,0.348409,-0.287824,1.722717
03200,3.213951,-1.515737,9.400966,-0.438669,-0.403895,1.790913
03201,3.587691,-2.571284,9.156647,-1.080394,-0.520919,1.944543
03202,4.283674,-3.393264,9.311469,-1.697984,-0.622185,2.190168
03203,5.010513,-3.880127,9.910075,-2.458232,-0.719423,2.526846
03204,5.616702,-4.218854,10.486047,-3.317941,-0.856294,2.889475
03205,6.271151,-4.812067,11.480549,-4.188765,-0.984740,3.242503
03206,6.338382,-6.373643,10.779624,-4.730436,-1.103103,3.521272
03207,5.867359,-8.842433,8.830354,-4.504252,-1.159843,3.643191
03208,5.015419,-10.572347,7.166839,-3.500821,-1.137333,3.628123
03209,3.964430,-10.876393,6.289190,-2.157960,-1.075661,3.527216
03210,2.743506,-8.924166,4.617059,-0.816496,-1.017392,3.299135
03211,1.415401,-6.242530,4.069823,0.030906,-0.979281,3.033899
03212,0.642957,-4.335020,5.684685,0.436364,-0.950666,2.759050
03213,0.407941,-2.693322,7.995921,0.432021,-0.828961,2.513915
03214,0.176313,-1.985086,8.963844,-0.018097,-0.811671,2.291405
03215,0.564492,-2.640201,9.018458,-0.661325,-0.893958,2.140831
03216,1.315018,-4.610067,8.427748,-1.154946,-1.010382,2.065143
03217,2.066676,-7.445023,7.283805,-1.188031,-1.150866,2.038742
03218,2.965692,-9.913904,6.514049,-0.702373,-1.269572,2.066991
03219,3.839962,-10.749466,6.191034,0.082899,-1.344078,2.157659
03220,4.523595,-9.933550,6.378200,0.788316,-1.396417,2.281089
03221,4.781926,-8.172429,6.684904,1.162699,-1.416519,2.402930
03222,4.625490,-6.475803,7.356113,1.162489,-1.399415,2.507379
03223,3.993927,-5.498648,7.761371,0.996529,-1.309083,2.553515
03224,2.859017,-5.252525,7.737868,0.792470,-1.211446,2.578804
03225,1.865270,-5.403207,7.245829,0.614775,-1.159792,2.585994
03226,1.369882,-5.631178,6.745595,0.445783,-1.134621,2.564903
03227,1.141369,-5.742204,6.513606,0.329949,-1.087168,2.508205
03228,1.090827,-5.539472,6.728020,0.257161,-1.020627,2.449055
03229,1.264487,-5.497200,7.304157,0.136802,-0.947494,2.397976
03230,1.590672,-5.606919,8.188047,-0.103815,-0.903475,2.360469
03231,1.760145,-6.110335,8.493913,-0.298866,-0.920612,2.333989
03232,1.596854,-6.868121,7.988789,-0.278262,-1.000184,2.292203
03233,1.391588,-7.527964,7.344435,-0.076001,-1.115396,2.264839
03234,1.608471,-7.936174,6.848745,0.218320,-1.245387,2.264539
03235,2.047931,-7.970456,6.720932,0.518416,-1.335224,2.286569
03236,2.018450,-7.141085,6.711154,0.718401,-1.416333,2.304761
03237,1.880116,-5.871556,6.713602,0.799806,-1.521215,2.304399
03238,1.951256,-5.276004,6.905679,0.746629,-1.570067,2.290160
03239,2.278858,-5.485675,7.155080,0.706052,-1.567047,2.306446
03240,2.377609,-6.295159,7.515667,0.766772,-1.446173,2.310826
03241,2.386450,-7.023244,8.033696,0.933284,-1.314455,2.329730
03242,2.602818,-7.518762,8.844300,1.150030,-1.071556,2.392529
03243,2.395893,-6.724780,10.118361,1.200502,-0.868864,2.449375
03244,1.859289,-5.228122,10.823023,1.011649,-0.765765,2.485852
03245,1.388681,-3.967624,10.226405,0.605301,-0.772843,2.484705
03246,1.283758,-4.316621,8.998361,0.071112,-0.854124,2.505243
03247,1.502449,-6.040923,8.026382,-0.246517,-0.944095,2.539582
03248,1.967122,-8.378109,7.128600,-0.172657,-1.038705,2.584576
03249,2.514704,-10.065290,6.576642,0.286734,-1.060756,2.646948
03250,2.518714,-10.097808,5.665289,0.876583,-1.171418,2.746944
03251,2.573213,-9.067483,5.362267,1.248386,-1.311938,2.873466
03252,2.933280,-8.294427,5.547285,1.351446,-1.419485,3.030889
03253,3.216601,-7.857648,6.630318,1.362956,-1.414291,3.208861
03254,2.989664,-7.876514,7.588214,1.405029,-1.323451,3.360606
03255,2.517267,-7.514210,8.554687,1.572691,-1.186495,3.494798
03256,2.189057,-6.241264,9.227838,1.763625,-0.994681,3.599933
03257,1.674632,-4.008158,9.873619,1.896190,-0.778264,3.647034
03258,1.110567,-2.046510,10.099635,1.786356,-0.608273,3.649147
03259,0.600294,-0.790614,9.663768,1.443610,-0.525393,3.629902
03260,0.290422,-0.102669,9.399129,0.966990,-0.530175,3.558312
03261,0.233361,-0.154413,8.867853,0.384892,-0.605483,3.500421
03262,-0.038187,-0.637742,8.580924,-0.071772,-0.717557,3.428718
03263,-0.511359,-1.347047,8.413689,-0.403658,-0.890735,3.336460
03264,-0.478929,-2.162649,8.187547,-0.640767,-1.086056,3.285267
03265,-0.052096,-2.862067,8.205705,-0.721782,-1.190556,3.251960
03266,-0.116933,-3.539267,8.020703,-0.651459,-1.271540,3.206598
03267,-0.085198,-3.931452,8.081226,-0.425727,-1.333745,3.162932
03268,0.328566,-3.810882,8.367534,-0.174264,-1.337128,3.132586
03269,0.516579,-3.670582,8.774201,0.012486,-1.257006,3.090467
03270,0.577091,-3.418082,9.726146,0.248664,-1.123886,3.024036
03271,0.741783,-2.721436,10.641967,0.417959,-0.948274,2.953435
03272,0.672531,-1.022956,11.395565,0.442834,-0.741508,2.861801
03273,0.124650,0.157925,11.768257,0.156226,-0.564934,2.759075
03274,-0.408265,-0.001462,11.204692,-0.210252,-0.458372,2.633866
03275,-0.580204,-1.135929,10.205415,-0.410226,-0.421214,2.499882
03276,-0.638581,-1.967773,9.442202,-0.395324,-0.421993,2.378314
03277,-0.695560,-2.657874,8.791079,-0.333717,-0.465386,2.285081
03278,-0.890903,-2.865126,8.306922,-0.293111,-0.549408,2.225661
03279,-1.148804,-2.396741,8.341946,-0.424230,-0.637382,2.204016
03280,-1.622612,-1.838437,8.202126,-0.790414,-0.741296,2.204734
03281,-2.292033,-1.560368,7.900465,-1.274538,-0.878500,2.179589
03282,-2.623118,-1.389003,7.796705,-1.673292,-1.089874,2.119578
03283,-2.002486,-2.205561,7.552469,-1.823925,-1.308122,2.053293
03284,-1.338568,-3.527603,7.434205,-1.741940,-1.444062,1.983153
03285,-0.861367,-4.334580,7.706113,-1.504856,-1.524804,1.936571
03286,-0.544774,-4.375640,8.278096,-1.327816,-1.505625,1.924020
03287,-0.696646,-4.080718,9.409252,-1.328955,-1.447855,1.884625
03288,-0.446168,-4.062104,10.639455,-1.306770,-1.292775,1.820196
03289,-0.185081,-3.378655,11.396910,-1.082200,-1.048475,1.730098
03290,-0.188719,-2.072872,11.953637,-0.950658,-0.793279,1.611256
03291,-0.604173,-1.674076,11.303378,-0.964503,-0.570476,1.519455
03292,-1.225122,-2.591628,9.622089,-0.932537,-0.428463,1.387584
03293,-1.865498,-3.170696,8.151886,-0.820661,-0.417884,1.238075
03294,-1.954051,-2.441090,7.484487,-0.903414,-0.500950,1.100992
03295,-1.746521,-1.641282,7.323606,-1.295739,-0.649546,0.971506
03296,-1.376588,-1.905742,7.328328,-1.862671,-0.831854,0.854610
03297,-0.971066,-2.805587,6.617637,-2.286398,-0.988756,0.752903
03298,-0.832321,-3.685765,6.199603,-2.454021,-1.121296,0.638189
03299,-0.640093,-4.829438,7.104902,-2.481560,-1.220299,0.523921
03300,-0.043840,-6.907350,8.048500,-2.289283,-1.219919,0.437771
03301,0.590379,-8.742943,9.622167,-1.699892,-1.072411,0.361900
03302,1.202478,-8.722290,11.554356,-0.714343,-0.726176,0.220640
03303,2.027952,-7.001947,13.550121,0.237995,-0.209455,0.022474
03304,2.543600,-5.290185,14.398034,0.817847,0.425245,-0.173989
03305,2.520444,-3.158259,14.426598,0.949297,1.063883,-0.374622
03306,2.334475,-1.880393,13.135028,0.598965,1.586405,-0.547395
03307,1.743888,-3.471044,10.093193,0.142593,1.920926,-0.653861
03308,0.673318,-3.671744,7.584966,-0.110647,2.051002,-0.721647
03309,-0.929426,-4.357773,4.665407,-0.541887,1.934065,-0.749846
03310,-2.340073,-6.448699,1.703037,-0.780816,1.622350,-0.796847
03311,-3.480845,-7.459055,0.182377,-0.721068,1.143949,-0.793021
03312,-4.386747,-6.789108,0.313055,-0.733963,0.566199,-0.728848
03313,-4.477769,-5.789316,2.120698,-1.038702,-0.011607,-0.719192
03314,-3.762252,-4.898333,3.950604,-1.421232,-0.426572,-0.704627
03315,-3.003145,-4.700714,4.967071,-1.694954,-0.704381,-0.720802
03316,-2.012458,-5.495294,6.162229,-1.761035,-0.828798,-0.757732
03317,-0.986673,-6.277000,8.280733,-1.479205,-0.699442,-0.785644
03318,0.141626,-6.157239,10.446212,-1.048272,-0.365556,-0.839317
03319,0.857883,-5.901646,12.117547,-0.609982,0.118765,-0.905991
03320,1.282479,-5.675499,12.877236,-0.169612,0.705020,-0.988319
03321,1.057217,-4.147415,12.124626,0.170024,1.270114,-1.082793
03322,0.644056,-2.134819,10.858782,0.105252,1.677062,-1.181486
03323,0.165638,-2.017390,8.603272,-0.418387,1.919986,-1.296380
03324,-0.625177,-3.413841,6.134402,-0.902873,1.946834,-1.383588
03325,-1.514183,-6.144697,3.164716,-1.138870,1.827992,-1.440141
03326,-2.394270,-8.032052,1.000367,-1.059186,1.545344,-1.466821
03327,-2.966408,-7.939722,0.171042,-0.896889,1.116323,-1.428725
03328,-3.237081,-6.908510,0.144200,-0.959980,0.643420,-1.417136
03329,-3.291498,-5.951411,1.124986,-1.278812,0.153346,-1.420568
03330,-2.724405,-5.851604,2.810088,-1.642326,-0.233153,-1.434281
03331,-1.820658,-6.218795,4.236749,-1.816181,-0.429894,-1.457555
03332,-0.838456,-6.742989,5.343362,-1.709353,-0.454777,-1.493424
03333,0.037525,-7.029680,6.868060,-1.379013,-0.283432,-1.555334
03334,0.791454,-6.887958,8.709738,-0.950872,0.055131,-1.623902
03335,1.447004,-6.938589,9.747476,-0.573593,0.497661,-1.700344
03336,1.762253,-6.458884,9.691799,-0.293021,0.965337,-1.767221
03337,1.574474,-5.164907,8.978659,-0.284611,1.341280,-1.821987
03338,0.960483,-4.449482,7.379159,-0.716538,1.571344,-1.841157
03339,0.321372,-4.207121,5.726099,-1.400177,1.664467,-1.851101
03340,0.008249,-4.422817,4.148149,-2.122820,1.645801,-1.877136
03341,-0.228882,-5.495783,1.953324,-2.725293,1.591181,-1.880545
03342,-0.198716,-7.892806,-1.184062,-3.066595,1.445569,-1.894170
03343,-0.373692,-9.900877,-3.451637,-2.894092,1.282417,-1.951147
03344,-1.218857,-10.451220,-3.909709,-2.435851,0.966609,-1.978925
03345,-1.703605,-9.572720,-2.221751,-2.161102,0.431331,-1.992176
03346,-0.732371,-8.989694,0.679984,-2.162592,-0.069336,-2.018391
03347,0.571819,-9.980281,2.752530,-2.138204,-0.297115,-2.004334
03348,1.095755,-11.396945,3.979035,-1.745525,-0.366533,-1.980617
03349,1.661919,-12.034368,5.319902,-0.994924,-0.301923,-1.991942
03350,2.075208,-11.316286,6.730060,-0.103834,-0.018633,-2.015489
03351,2.207831,-9.736817,8.197438,0.589662,0.354364,-2.074711
03352,2.344519,-7.619376,9.180226,0.876222,0.736644,-2.114432
03353,2.551116,-5.245036,9.049263,0.540662,1.038536,-2.110212
03354,2.748297,-2.793258,8.452037,-0.412800,1.222549,-2.099935
03355,3.054156,-2.732382,6.694237,-1.916736,1.293971,-2.103345
03356,3.279443,-5.430452,4.122390,-3.236848,1.305974,-2.011466
03357,3.094321,-9.193183,1.954488,-3.816101,1.309404,-1.956075
03358,2.186041,-13.054188,-0.079494,-3.425732,1.335673,-1.929399
03359,1.672425,-15.272340,-1.700501,-2.280469,1.212169,-1.897172
03360,2.383250,-13.932860,-1.160128,-0.959827,1.046466,-1.943267
03361,3.242270,-11.321115,-0.233549,-0.221941,0.827433,-1.999036
03362,3.962113,-9.363374,0.248770,-0.134317,0.508975,-2.009360
03363,4.536020,-7.791110,0.539084,-0.561391,0.191769,-1.980790
03364,5.040828,-6.500243,1.461870,-1.354248,-0.100352,-1.919852
03365,5.478781,-6.222742,2.696718,-2.343821,-0.207943,-1.856930
03366,5.177138,-7.163623,2.386622,-3.125351,-0.212873,-1.795787
03367,5.209429,-10.495047,1.064860,-3.281939,-0.064096,-1.735108
03368,5.642774,-14.134443,1.087757,-2.694273,0.295199,-1.663065
03369,5.603388,-15.325642,2.194802,-1.422112,0.826445,-1.545742
03370,4.849335,-13.576448,3.294920,-0.163613,1.360348,-1.454374
03371,3.658593,-9.974794,3.470439,0.585220,1.772862,-1.389870
03372,2.702691,-6.549034,2.895558,0.543536,2.008476,-1.349985
03373,2.332489,-4.401676,2.266206,-0.171555,1.993645,-1.350123
03374,3.139543,-3.849244,1.717691,-1.253168,1.822426,-1.427753
03375,4.686073,-4.859006,1.714060,-2.282216,1.648857,-1.536748
03376,5.804933,-7.756149,1.916309,-2.765673,1.567176,-1.646844
03377,6.356454,-11.675303,0.642926,-2.261362,1.479792,-1.764903
03378,6.795020,-14.118803,-0.304053,-0.892869,1.414646,-1.857981
03379,6.863178,-13.495712,-0.800004,0.594051,1.364286,-1.895960
03380,6.683586,-9.961075,-0.128486,1.218315,1.208234,-1.853203
03381,6.857528,-5.991810,1.432298,0.639713,0.996267,-1.738486
03382,7.229072,-3.372753,2.003760,-0.707867,0.731473,-1.637612
03383,7.546948,-3.046098,1.312147,-2.051811,0.489930,-1.655982
03384,7.877452,-5.638212,0.200013,-2.860725,0.432350,-1.666393
03385,7.767451,-9.261627,-0.786396,-2.949029,0.531372,-1.650433
03386,7.589284,-11.405669,-0.999702,-2.377120,0.715975,-1.588885
03387,7.135928,-11.334058,0.284790,-1.620553,0.956615,-1.562801
03388,6.214057,-9.389512,1.846955,-0.977143,1.195791,-1.619661
03389,4.951109,-7.433215,1.540227,-0.616163,1.278024,-1.719660
03390,4.394454,-6.156360,0.368448,-0.589066,1.199138,-1.834044
03391,4.763073,-5.607218,0.099553,-0.855515,1.033795,-1.984549
03392,6.087656,-5.936070,0.946991,-1.173824,0.839278,-2.117052
03393,7.668836,-7.231903,1.457155,-1.254658,0.630928,-2.176861
03394,8.687584,-8.996997,1.397682,-0.894661,0.466339,-2.196422
03395,8.857394,-10.223209,0.366515,-0.201140,0.264429,-2.156670
03396,9.005762,-9.642185,-0.370002,0.525675,0.012075,-2.087602
03397,9.398620,-7.375863,0.219684,0.913909,-0.172521,-2.017296
03398,9.261471,-4.704883,1.186022,0.752844,-0.295361,-1.930856
03399,9.042335,-3.004769,1.923648,0.167137,-0.367766,-1.857673
03400,9.189950,-2.594750,1.743733,-0.504259,-0.310627,-1.834470
03401,9.819269,-3.650229,1.590198,-1.158033,-0.134529,-1.764519
03402,9.871323,-4.475695,1.832648,-1.677651,0.100727,-1.679272
03403,9.150275,-4.230449,1.962784,-2.076011,0.274249,-1.597617
03404,8.357254,-3.452232,1.832107,-2.551897,0.341142,-1.502429
03405,7.789945,-3.133109,1.086650,-3.040679,0.335764,-1.443655
03406,7.669838,-4.296559,0.045270,-3.327078,0.316507,-1.463139
03407,8.015341,-6.278990,-0.981414,-3.152627,0.335180,-1.519962
03408,8.664518,-7.817151,-2.095280,-2.483052,0.379133,-1.648605
03409,9.538257,-8.872022,-1.747845,-1.532317,0.396866,-1.811934
03410,10.469802,-9.669382,-1.148116,-0.475366,0.432523,-1.896009
03411,10.898955,-8.979250,-1.271098,0.579023,0.399254,-1.895946
03412,11.108238,-6.958684,-1.227420,1.264532,0.298238,-1.829608
03413,10.897270,-4.942295,-1.164604,1.445391,0.158933,-1.727824
03414,11.049824,-4.114202,-0.493458,1.250515,-0.011508,-1.632052
03415,11.450991,-4.325153,0.232494,1.069750,-0.010797,-1.529046
03416,11.250062,-4.719251,0.470104,0.963577,0.102968,-1.421166
03417,10.758271,-4.436298,-0.041684,0.875464,0.220824,-1.324196
03418,10.271751,-4.167371,-0.517075,0.656389,0.351833,-1.225280
03419,9.820063,-3.929446,-0.937607,0.449625,0.470847,-1.171657
03420,9.033676,-4.199472,-0.570222,0.292729,0.532391,-1.172543
03421,8.382007,-4.307649,0.794615,0.329343,0.527790,-1.210810
03422,8.195466,-3.944718,1.251221,0.598689,0.501117,-1.250224
03423,8.326295,-2.926109,0.730238,0.671616,0.401188,-1.251030
03424,9.090443,-2.432440,1.416007,0.357216,0.202030,-1.230744
03425,10.496813,-2.612654,2.675261,-0.038728,0.060443,-1.148432
03426,11.607851,-4.030885,2.361678,-0.142788,0.024908,-1.031203
03427,11.854990,-5.992402,1.245732,0.139628,0.011570,-0.886517
03428,11.333696,-6.008189,0.674767,0.665903,0.026940,-0.749439
03429,10.594168,-4.088231,0.792893,0.919065,-0.009777,-0.606377
03430,10.343012,-1.994538,1.668589,0.687004,-0.037727,-0.456719
03431,9.881181,-0.830625,1.868716,0.170789,-0.039560,-0.374127
03432,9.374093,-0.564963,1.010212,-0.335272,-0.081138,-0.341544
03433,9.584659,-1.347907,0.548052,-0.721438,-0.079867,-0.336471
03434,9.815188,-2.989691,0.691007,-0.859523,0.007227,-0.311341
03435,9.763599,-4.282668,0.954651,-0.695235,0.110832,-0.296980
03436,9.552599,-4.257138,1.338256,-0.341083,0.239483,-0.290527
03437,9.314468,-2.869107,1.867408,-0.164321,0.286231,-0.338718
03438,9.107532,-1.573694,1.929185,-0.281359,0.259737,-0.369300
03439,9.186459,-1.394615,1.562758,-0.593267,0.159627,-0.383922
03440,9.488712,-2.431467,0.883187,-0.790347,0.047767,-0.377583
03441,9.908098,-3.970631,0.890994,-0.625042,-0.086202,-0.362593
03442,10.493683,-5.119386,0.557790,-0.110236,-0.151134,-0.296976
03443,10.299013,-5.423034,-0.190829,0.538976,-0.192323,-0.226389
03444,10.183048,-4.926573,-1.085115,1.135208,-0.303330,-0.170887
03445,10.204937,-4.399811,-1.726508,1.492369,-0.431657,-0.130016
03446,10.111907,-4.831165,-1.316480,1.718082,-0.569434,-0.089832
03447,10.097983,-4.448209,-0.382680,1.996678,-0.693667,-0.007812
03448,10.532548,-2.450697,0.279943,2.117875,-0.654551,0.104244
03449,10.264689,-1.014200,0.806868,1.881566,-0.497570,0.199831
03450,9.801690,-0.613038,1.785170,1.488592,-0.324506,0.260213
03451,9.303876,-0.251580,2.826944,0.995555,-0.126497,0.278284
03452,8.843469,0.624111,3.375594,0.444675,0.053115,0.263118
03453,8.502593,1.192746,3.215336,-0.174545,0.151372,0.194085
03454,8.449964,0.393456,2.278877,-0.661879,0.166618,0.073940
03455,8.745573,-1.366880,1.246982,-0.758020,0.134265,-0.006852
03456,9.332751,-2.502465,0.633171,-0.446848,0.110631,-0.068163
03457,9.941112,-2.589754,0.801893,-0.025327,0.101896,-0.122828
03458,10.316528,-2.454545,0.861447,0.349118,0.102552,-0.144204
03459,10.442587,-2.198281,0.705525,0.645028,0.114853,-0.139483
03460,10.466633,-1.451381,0.614690,0.779672,0.126930,-0.130204
03461,10.318777,-0.614150,0.593132,0.674343,0.100256,-0.108652
03462,9.978055,-0.179408,0.390158,0.403348,0.045051,-0.080540
03463,9.796861,-0.161949,0.450064,0.089280,-0.024220,-0.071343
03464,9.801914,-0.653501,0.607012,-0.190037,-0.051145,-0.059317
03465,9.578476,-1.257801,0.281023,-0.334956,-0.038163,-0.057175
03466,9.380183,-1.591126,-0.233519,-0.361013,-0.034995,-0.062386
03467,9.434946,-1.680983,-0.029902,-0.338391,0.029965,-0.058194
03468,9.350453,-1.541650,0.196480,-0.342477,0.079868,-0.039782
03469,9.380433,-1.344716,0.277600,-0.428260,0.119151,-0.031317
03470,9.566139,-1.412334,0.817227,-0.532750,0.130850,-0.045497
03471,9.508875,-1.890632,0.840990,-0.560551,0.125668,-0.075597
03472,9.508792,-2.378929,0.530128,-0.465244,0.087750,-0.109332
03473,9.685898,-2.616316,0.274771,-0.308892,0.038645,-0.131288
03474,9.976104,-2.450114,0.497509,-0.180220,-0.003273,-0.122169
03475,10.176763,-2.063501,0.771446,-0.132210,-0.041436,-0.082515
03476,10.319464,-2.014552,0.892797,-0.141345,-0.070111,-0.028665
03477,10.171937,-2.189347,0.688934,-0.124208,-0.094683,0.021205
03478,9.930976,-2.104242,0.471682,-0.052710,-0.117038,0.058038
03479,9.710425,-1.848083,0.407511,-0.005755,-0.133905,0.065450
03480,9.552270,-1.780195,0.449515,-0.001606,-0.141170,0.062613
03481,9.431536,-1.706121,0.675969,0.000564,-0.129832,0.045172
03482,9.402344,-1.634308,0.759379,-0.031398,-0.105256,0.024360
03483,9.496859,-1.626039,0.915723,-0.078464,-0.070619,0.009210
03484,9.456870,-1.742763,1.076090,-0.096957,-0.038841,-0.005056
03485,9.523083,-1.870323,1.041846,-0.068039,-0.025823,-0.012229
03486,9.574479,-1.934270,0.949055,-0.022887,-0.015563,-0.018422
03487,9.707344,-1.812818,0.969375,0.042887,-0.021344,-0.026112
03488,9.783910,-1.747851,0.993469,0.084413,-0.023033,-0.036386
03489,9.892436,-1.802315,0.884947,0.107852,-0.018520,-0.048472
03490,9.950129,-1.790857,0.867416,0.134077,-0.010115,-0.050894
03491,10.028145,-1.558879,0.915477,0.125065,0.009549,-0.051390
03492,10.039709,-1.415423,0.830648,0.047390,0.017797,-0.042071
03493,9.859101,-1.462893,0.647270,-0.033918,0.018428,-0.035117
03494,9.773973,-1.658331,0.583136,-0.086772,0.001772,-0.025818
03495,9.758510,-1.811301,0.485075,-0.100819,-0.008291,-0.017043
03496,9.752678,-1.935225,0.522330,-0.079672,-0.023661,-0.012817
03497,9.731395,-1.944514,0.513271,-0.044855,-0.034616,-0.010285
03498,9.714376,-1.887724,0.472375,-0.012653,-0.036739,-0.014677
03499,9.678440,-1.886285,0.388855,0.012649,-0.032957,-0.019995
03500,9.630329,-1.812244,0.452593,0.031553,-0.033822,-0.029787
03501,9.704577,-1.591715,0.646663,0.029639,-0.024442,-0.033224
03502,9.597518,-1.422168,0.655920,-0.030309,-0.015825,-0.036921
03503,9.536634,-1.493302,0.473647,-0.105523,-0.009999,-0.037716
03504,9.545715,-1.734524,0.453030,-0.128434,-0.005870,-0.043516
03505,9.538089,-1.809493,0.529130,-0.099094,-0.001683,-0.058567
03506,9.629013,-1.699911,0.642739,-0.076771,0.000977,-0.065409
03507,9.727232,-1.622023,0.671093,-0.099122,-0.007114,-0.070510
03508,9.742742,-1.519307,0.646521,-0.149424,-0.016782,-0.057905
03509,9.797459,-1.463624,0.661513,-0.210859,-0.034913,-0.049577
03510,9.886117,-1.524924,0.643623,-0.238043,-0.047431,-0.037793
03511,9.845645,-1.700553,0.578470,-0.212741,-0.054469,-0.025553
03512,9.787216,-1.820275,0.477017,-0.146715,-0.054643,-0.023676
03513,9.776831,-1.797048,0.475029,-0.070051,-0.053942,-0.030903
03514,9.804027,-1.825502,0.538902,-0.001465,-0.050246,-0.043980
03515,9.856094,-1.723101,0.594767,0.063722,-0.033963,-0.065726
03516,9.898504,-1.538319,0.650533,0.099096,-0.018664,-0.076548
03517,9.844507,-1.313041,0.684572,0.075699,-0.012765,-0.082105
03518,9.742412,-1.230513,0.620233,-0.002438,-0.006159,-0.078426
03519,9.705318,-1.282330,0.546060,-0.095831,-0.021249,-0.072153
03520,9.760118,-1.499451,0.530574,-0.163802,-0.030866,-0.077734
03521,9.811329,-1.726082,0.432854,-0.187120,-0.033741,-0.086748
03522,9.811814,-1.888526,0.425876,-0.159451,-0.027629,-0.100604
03523,9.758462,-2.049046,0.415465,-0.096259,-0.015207,-0.114132
03524,9.779452,-2.093891,0.448757,-0.020860,-0.008359,-0.122968
03525,9.720393,-2.050923,0.529150,0.034857,-0.007339,-0.120697
03526,9.726512,-1.918182,0.617665,0.047220,-0.016385,-0.107526
03527,9.735900,-1.943425,0.657352,0.043722,-0.030664,-0.090710
03528,9.786670,-2.068080,0.720989,0.051740,-0.036711,-0.074087
03529,9.772263,-2.113532,0.778584,0.090790,-0.030156,-0.062282
03530,9.741390,-2.037362,0.771336,0.125420,-0.019004,-0.051327
03531,9.753751,-1.881785,0.767718,0.131518,-0.009851,-0.042875
03532,9.755083,-1.817690,0.762351,0.113899,0.009560,-0.035969
03533,9.736046,-1.817390,0.737054,0.080323,0.015281,-0.026552
03534,9.724322,-1.853081,0.753056,0.044418,0.022078,-0.019407
03535,9.757901,-1.802353,0.748111,0.019430,0.030540,-0.013441
03536,9.756442,-1.748816,0.766889,-0.003881,0.033047,-0.010406
03537,9.832977,-1.845920,0.644866,-0.023396,0.031394,0.000216
03538,9.800664,-1.947731,0.639946,-0.023750,0.030054,0.008991
03539,9.850562,-1.959635,0.567300,-0.008878,0.034388,0.020844
03540,9.865952,-1.909925,0.510113,-0.012858,0.019498,0.031985
03541,9.932084,-1.816560,0.495362,-0.040699,0.016041,0.054052
03542,9.958424,-1.791814,0.430217,-0.079067,0.000491,0.075882
03543,9.995112,-1.850019,0.365173,-0.115748,-0.015718,0.106715
03544,9.979628,-1.848200,0.389035,-0.130806,-0.033900,0.125466
03545,10.019164,-1.788868,0.408833,-0.123492,-0.040635,0.138546
03546,9.935711,-1.770988,0.328561,-0.098341,-0.042399,0.137990
03547,9.804194,-1.841487,0.166322,-0.034865,-0.038656,0.118763
03548,9.683337,-1.770580,0.151453,0.038796,-0.036461,0.088902
03549,9.627678,-1.777214,0.144981,0.101861,-0.027589,0.059133
03550,9.547146,-1.693477,0.189969,0.146228,-0.023658,0.024956
03551,9.504395,-1.496224,0.323515,0.170531,-0.022714,0.012355
03552,9.530731,-1.252433,0.424824,0.147779,-0.021649,-0.001634
03553,9.541244,-1.220234,0.433983,0.084378,-0.031744,-0.006794
03554,9.536929,-1.341406,0.342959,0.022915,-0.046872,-0.006847
03555,9.601483,-1.533111,0.337434,-0.004127,-0.056170,-0.005696
03556,9.654029,-1.651298,0.351334,-0.015215,-0.068947,-0.011647
03557,9.738639,-1.727675,0.379244,-0.006873,-0.076317,-0.009778
03558,9.711466,-1.869407,0.429621,0.008967,-0.066846,-0.011785
03559,9.688441,-1.885508,0.441907,0.041009,-0.070133,-0.009829
03560,9.699239,-1.853318,0.446393,0.052900,-0.065450,-0.003824
03561,9.739988,-1.786952,0.489908,0.045522,-0.055006,0.001525
03562,9.752266,-1.860280,0.464811,0.034929,-0.048258,0.001650
03563,9.724348,-1.839233,0.541727,0.037668,-0.042620,0.007098
03564,9.742563,-1.731508,0.597412,0.025225,-0.036741,0.004732
03565,9.718358,-1.697028,0.628362,-0.003802,-0.029594,0.010297
03566,9.662891,-1.756839,0.629310,-0.020825,-0.023232,0.007668
03567,9.720811,-1.855695,0.576546,-0.024525,-0.025002,0.002670
03568,9.668297,-1.848717,0.546637,-0.005882,-0.018516,0.002667
03569,9.719729,-1.852910,0.445711,0.009340,-0.015593,-0.000312
03570,9.761990,-1.891380,0.462157,0.020429,-0.009812,-0.002085
03571,9.793080,-1.908524,0.484643,0.040229,-0.007365,-0.004800
03572,9.796050,-1.841724,0.453946,0.057270,0.000760,-0.003586
