// Start Time: Unknown
// Update Rate: 100.0Hz
// Filter Profile: human (46.1)
// Firmware Version: 4.3.5
PacketCounter,Acc_X,Acc_Y,Acc_Z,Gyr_X,Gyr_Y,Gyr_Z
06866,9.465481,-1.870792,1.764446,0.001186,0.011201,-0.013173
06867,9.509694,-1.902679,1.742790,0.003011,0.015472,-0.010983
06868,9.476265,-1.893408,1.744820,0.006776,-0.001215,-0.004223
06869,9.488510,-1.846283,1.752670,0.011112,-0.007650,-0.003395
06870,9.534175,-1.813018,1.792820,0.036471,-0.016396,-0.008232
06871,9.585987,-1.756223,1.836680,0.032877,-0.017931,-0.003366
06872,9.608501,-1.756407,1.958233,0.031545,-0.013599,-0.008129
06873,9.563102,-1.798764,1.985377,0.041606,-0.002292,-0.010831
06874,9.590479,-1.834296,2.015275,0.062323,0.006385,-0.010115
06875,9.607496,-1.827075,1.966059,0.082962,0.017339,-0.017350
06876,9.645699,-1.873884,1.909827,0.115174,0.041220,-0.022974
06877,9.647933,-1.715172,1.908480,0.123081,0.075130,-0.025244
06878,9.661085,-1.520340,1.986159,0.094818,0.115651,-0.043332
06879,9.639429,-1.326487,2.136118,0.056495,0.155344,-0.075078
06880,9.612410,-1.125387,2.114658,0.038097,0.188092,-0.104336
06881,9.506638,-1.062769,1.826014,-0.040880,0.205516,-0.111408
06882,9.470085,-1.127793,1.271836,-0.183176,0.207944,-0.097589
06883,9.605105,-1.190619,1.053051,-0.282814,0.237856,-0.115720
06884,9.474332,-1.475425,0.897566,-0.295111,0.249271,-0.142062
06885,9.152464,-1.967558,0.730948,-0.355641,0.168301,-0.093722
06886,9.217230,-2.471052,1.171601,-0.510117,0.099742,-0.020211
06887,9.573165,-2.803354,2.399121,-0.688242,0.168642,0.050544
06888,9.664000,-3.187671,3.582397,-0.665018,0.269837,0.081838
06889,9.623200,-3.391926,4.368116,-0.323888,0.301427,0.108917
06890,9.674704,-2.999667,4.581165,0.193286,0.257849,0.121243
06891,9.819393,-2.042564,4.277890,0.533391,0.218265,0.120131
06892,9.717968,-1.496975,3.563727,0.697673,0.203144,0.077040
06893,9.553658,-1.215338,2.581721,0.950832,0.181470,0.012674
06894,9.677229,-0.806361,1.733696,1.153436,0.157591,-0.041470
06895,10.094158,-0.745531,0.925220,0.996243,0.197355,-0.078176
06896,9.972938,-0.876137,0.003213,0.641114,0.305004,-0.124883
06897,9.527772,-0.584123,-0.063652,0.215233,0.335842,-0.166996
06898,9.524616,-0.756006,0.833737,-0.484665,0.396056,-0.147954
06899,9.278887,-1.696059,1.691270,-1.087860,0.512432,-0.085808
06900,8.782438,-2.673700,2.056430,-1.183991,0.526367,-0.029196
06901,8.542755,-3.318983,2.402777,-0.925672,0.456764,0.058872
06902,8.817400,-3.785871,2.967158,-0.753719,0.429755,0.157210
06903,8.894869,-4.023268,3.460813,-0.568356,0.461123,0.211029
06904,8.905690,-3.855854,3.952390,-0.122024,0.441405,0.231143
06905,9.075020,-3.022071,4.017093,0.519813,0.348369,0.232118
06906,9.392734,-1.687441,3.585681,0.952511,0.262908,0.219352
06907,9.710969,-0.773707,3.338826,0.963864,0.250915,0.169433
06908,9.816746,-0.442215,3.031432,0.709763,0.293953,0.121712
06909,9.717824,-0.584104,2.345819,0.587754,0.308425,0.077324
06910,9.735558,-0.606657,1.515322,0.596356,0.275129,0.053601
06911,9.676876,-0.509547,0.798764,0.463945,0.263790,0.020792
06912,9.564621,-0.588740,0.559029,-0.048338,0.314275,0.009319
06913,9.364882,-1.356437,0.857399,-0.631768,0.381433,0.022877
06914,9.114347,-2.276165,1.292188,-0.819358,0.389496,0.059761
06915,8.848767,-2.913110,1.668010,-0.700229,0.338408,0.085525
06916,8.864259,-3.099851,2.215319,-0.602628,0.288791,0.133049
06917,8.955825,-3.174913,3.303485,-0.661912,0.298874,0.180306
06918,9.119482,-3.207646,4.715381,-0.729214,0.356515,0.229323
06919,9.345790,-3.333952,6.043295,-0.472862,0.411498,0.253607
06920,9.522930,-2.938601,6.683992,0.212052,0.386979,0.261068
06921,9.665416,-2.009121,6.204826,0.694328,0.364811,0.275431
06922,9.392795,-1.381665,4.715219,0.890700,0.327155,0.248125
06923,9.275834,-1.135360,3.310023,0.984028,0.252196,0.216917
06924,9.406445,-1.240454,2.196420,0.891348,0.226279,0.203874
06925,9.514672,-1.599839,1.396015,0.656646,0.231024,0.179848
06926,9.560920,-2.218715,1.189237,0.381900,0.294554,0.157232
06927,9.241411,-2.692053,1.533414,0.197195,0.326716,0.152441
06928,9.076168,-2.744704,2.013509,0.086693,0.334485,0.147957
06929,8.880455,-2.346586,2.587617,-0.013511,0.398346,0.147307
06930,8.531250,-2.128771,3.076372,-0.203886,0.444129,0.176230
06931,8.438580,-2.291268,3.642491,-0.452593,0.472416,0.248106
06932,8.564238,-2.797241,4.357472,-0.688633,0.550687,0.326972
06933,8.843434,-3.298253,5.339526,-0.711230,0.660051,0.395117
06934,9.011981,-3.323438,6.215438,-0.456412,0.732058,0.439542
06935,9.367094,-2.911407,6.900823,-0.117753,0.779136,0.446815
06936,9.581762,-2.501046,6.912943,0.097756,0.807521,0.453238
06937,9.506016,-2.403878,6.099677,0.300537,0.793848,0.447873
06938,9.244660,-2.484029,4.637044,0.513647,0.736423,0.433739
06939,9.148572,-2.600291,3.250906,0.675540,0.621840,0.422773
06940,9.199610,-2.813749,2.200607,0.678279,0.542385,0.384580
06941,9.003170,-2.965995,1.540477,0.587588,0.508052,0.329921
06942,8.928912,-2.986302,1.693649,0.538027,0.463434,0.276613
06943,8.893301,-3.002615,2.177148,0.527522,0.469995,0.248960
06944,8.688710,-2.863196,2.545437,0.474196,0.512832,0.250769
06945,8.448315,-2.712916,2.902592,0.298988,0.536042,0.279955
06946,8.393769,-2.619391,3.480341,0.053421,0.556912,0.325175
06947,8.445289,-2.482484,4.128599,-0.180638,0.601910,0.359599
06948,8.520439,-2.226010,4.838025,-0.398945,0.665870,0.373695
06949,8.614383,-1.907034,5.624630,-0.631428,0.746037,0.363939
06950,8.748929,-2.157586,6.443735,-0.864455,0.860431,0.373759
06951,8.530417,-2.657449,6.765999,-0.950283,0.954397,0.400643
06952,8.196002,-3.080540,6.672288,-0.821430,0.945339,0.434899
06953,8.088517,-3.353684,6.170033,-0.585458,0.886129,0.452041
06954,7.995898,-3.662675,5.180000,-0.314417,0.834211,0.461330
06955,7.765658,-4.043894,3.936526,-0.052169,0.766925,0.481215
06956,7.561160,-4.418457,2.600160,0.168898,0.620334,0.518652
06957,7.568214,-4.601459,1.883879,0.380391,0.456118,0.511932
06958,7.746371,-4.445980,1.780501,0.602852,0.327488,0.476706
06959,7.887383,-3.986080,1.904931,0.800434,0.252201,0.442103
06960,7.967753,-3.393811,2.441427,0.801502,0.225194,0.441524
06961,8.187968,-3.170725,3.409082,0.606406,0.262277,0.477174
06962,8.357662,-2.910760,4.827582,0.401828,0.363033,0.516255
06963,8.628590,-2.394096,6.752552,0.155263,0.528414,0.538690
06964,8.788763,-2.158175,8.366947,-0.127408,0.736711,0.554452
06965,8.666657,-1.970499,8.857100,-0.304957,0.933931,0.590156
06966,8.301535,-1.747826,8.433752,-0.514261,1.050013,0.634086
06967,8.030042,-2.365502,7.641367,-0.829329,1.096102,0.674813
06968,7.921488,-3.724971,6.746569,-0.902676,1.071466,0.688847
06969,7.825586,-5.062470,5.910005,-0.627056,0.999815,0.694305
06970,7.466968,-6.052418,5.011885,-0.191877,0.880014,0.698924
06971,7.122922,-6.560176,3.904151,0.319308,0.720975,0.698093
06972,6.926618,-6.478155,3.271654,0.798024,0.544033,0.693021
06973,6.959531,-5.950303,3.269076,1.199529,0.383205,0.653704
06974,7.012859,-5.114723,3.464470,1.461542,0.267371,0.606223
06975,7.134987,-4.108698,3.578658,1.611684,0.173784,0.589263
06976,7.274455,-3.071133,3.857608,1.557856,0.149768,0.589845
06977,7.586771,-2.430052,4.746830,1.232265,0.228336,0.599412
06978,7.781638,-2.118414,6.067366,0.818660,0.378147,0.601530
06979,8.028938,-1.872790,7.642816,0.484654,0.574989,0.595106
06980,8.153901,-1.736756,8.769954,0.184199,0.822845,0.592770
06981,7.874677,-1.723873,8.959820,-0.086867,1.054065,0.623270
06982,7.487180,-1.994195,8.689941,-0.374545,1.177517,0.672508
06983,7.260785,-2.994626,8.501293,-0.620926,1.237388,0.725377
06984,7.002241,-4.434143,8.067833,-0.645495,1.233765,0.765160
06985,6.695443,-5.487204,7.179008,-0.321235,1.119778,0.789193
06986,6.590578,-6.128097,6.321033,0.113772,0.955602,0.793988
06987,6.513176,-6.525028,5.582838,0.522043,0.817058,0.778592
06988,6.159106,-6.405818,4.922519,0.959938,0.672158,0.717972
06989,5.870492,-5.885964,4.528366,1.325106,0.516567,0.651292
06990,5.682051,-5.111973,4.224537,1.617183,0.343041,0.599714
06991,5.815747,-4.099096,4.247976,1.842037,0.194023,0.559593
06992,6.184739,-3.134477,4.683429,1.793329,0.152979,0.545574
06993,6.479102,-2.568278,5.313284,1.501353,0.218025,0.544756
06994,6.572192,-2.275915,6.255026,1.166525,0.353949,0.543097
06995,6.564358,-1.823541,7.189909,0.830378,0.523646,0.523648
06996,6.605717,-1.535623,8.005075,0.410073,0.706519,0.497886
06997,6.475457,-1.836296,8.375125,0.014750,0.917459,0.485997
06998,6.028891,-2.318839,8.653057,-0.190424,1.057341,0.465855
06999,5.682768,-3.065646,8.755900,-0.253049,1.093652,0.487446
07000,5.358953,-3.816215,8.545352,-0.153957,1.046821,0.529431
07001,5.234891,-4.333084,8.126260,0.007833,0.936123,0.577173
07002,5.350040,-5.036574,7.504512,0.152447,0.793652,0.642525
07003,5.292363,-5.637477,6.813143,0.416995,0.638431,0.682574
07004,5.291701,-5.752532,6.221713,0.781063,0.482460,0.681673
07005,5.116080,-5.363901,6.003370,1.118513,0.353424,0.643150
07006,5.093526,-4.704033,5.965436,1.367587,0.233894,0.588884
07007,5.023933,-4.014716,5.742828,1.561720,0.132115,0.539803
07008,5.040944,-3.249021,5.489853,1.629484,0.030934,0.508201
07009,5.304072,-2.541511,5.651480,1.437315,0.019599,0.485418
07010,5.598869,-2.112342,6.417477,1.026984,0.134590,0.450225
07011,5.668236,-1.760187,7.555828,0.689094,0.308897,0.382485
07012,5.742366,-1.489456,8.907323,0.372003,0.518563,0.310684
07013,5.679924,-1.383326,9.970559,0.062901,0.733777,0.277262
07014,5.379814,-1.757140,10.156762,-0.136750,0.903542,0.306242
07015,4.932732,-2.333874,10.038561,-0.190481,0.993928,0.373813
07016,4.597895,-3.255695,9.428378,-0.202692,0.991234,0.470958
07017,4.312819,-4.320376,8.346632,-0.110553,0.897064,0.539853
07018,4.513353,-5.097976,7.608760,0.030255,0.775948,0.606494
07019,4.155312,-5.662211,6.858083,0.395330,0.626766,0.623404
07020,4.009115,-5.319269,6.727690,0.849238,0.467710,0.530752
07021,4.210222,-4.457821,6.623467,1.161380,0.366086,0.436430
07022,4.175866,-3.382538,6.675704,1.323043,0.279083,0.368459
07023,4.226998,-2.634934,6.628231,1.259958,0.243318,0.333736
07024,4.348748,-1.991318,6.880938,1.058226,0.306193,0.305409
07025,4.303532,-1.726162,7.125498,0.733112,0.439432,0.266898
07026,4.130266,-1.457784,7.945822,0.327180,0.625218,0.203571
07027,4.074084,-1.413714,8.669318,-0.096615,0.754780,0.181089
07028,4.031616,-1.680648,9.155460,-0.311994,0.824972,0.190886
07029,3.911620,-2.064411,9.574737,-0.470894,0.908941,0.211391
07030,3.574468,-2.786983,9.711977,-0.567813,0.998138,0.260125
07031,3.165489,-3.992884,9.442392,-0.438181,0.981582,0.349434
07032,2.956890,-4.773049,8.884536,-0.071816,0.868779,0.423421
07033,3.130453,-4.667217,8.646174,0.254025,0.720760,0.488481
07034,3.144903,-4.611773,8.182691,0.522770,0.613006,0.538368
07035,3.101612,-4.291282,7.806400,0.826584,0.501287,0.537915
07036,3.278003,-3.651091,7.591705,0.995838,0.440825,0.538797
07037,3.388340,-2.916542,7.333056,1.029977,0.435622,0.545297
07038,3.283759,-2.445947,6.879553,1.032305,0.416102,0.482959
07039,3.262434,-1.625561,6.663944,0.912508,0.413327,0.412286
07040,2.889972,-1.202222,6.445553,0.580215,0.415784,0.351584
07041,2.533731,-0.845744,6.742503,0.064527,0.419881,0.305942
07042,2.241616,-1.482480,7.460003,-0.504943,0.428463,0.328933
07043,2.441086,-2.649619,8.421381,-0.842607,0.406816,0.415406
07044,2.892883,-3.784291,9.100809,-0.875710,0.365592,0.512541
07045,2.815987,-4.379987,9.786828,-0.674046,0.324547,0.519874
07046,2.818311,-4.427881,10.338950,-0.379227,0.262676,0.488747
07047,2.827576,-4.072786,10.518758,0.030703,0.279236,0.437251
07048,2.642454,-3.724162,10.259418,0.458477,0.206377,0.427891
07049,3.052389,-2.887307,10.269788,0.695175,0.194941,0.464452
07050,3.087061,-2.526438,9.842760,0.798763,0.246244,0.521896
07051,2.308784,-2.952804,9.169932,0.813596,0.246409,0.538265
07052,2.158367,-3.115176,8.890771,0.790159,0.185770,0.521363
07053,2.234660,-2.877354,8.468086,1.035602,0.104033,0.480904
07054,2.525464,-2.236254,7.964554,1.254354,0.034001,0.412487
07055,2.451111,-1.643763,7.804647,1.169083,0.006405,0.340394
07056,2.359561,-1.573139,7.670978,0.796205,-0.020198,0.335825
07057,2.618906,-2.105184,7.678440,0.491769,-0.079336,0.333904
07058,3.015519,-2.577398,7.690696,0.363393,-0.151315,0.303513
07059,3.220077,-2.355454,8.186893,0.269365,-0.191218,0.227301
07060,3.077830,-1.916186,9.153245,0.040211,-0.153769,0.162512
07061,2.688069,-2.209146,9.470845,0.007724,-0.107663,0.157641
07062,2.266741,-2.415459,9.678326,0.226096,-0.129651,0.147991
07063,2.136450,-2.773473,9.571153,0.312445,-0.192871,0.170909
07064,2.316252,-3.054759,9.440055,0.504068,-0.272748,0.194499
07065,2.371390,-2.762050,9.390526,0.725924,-0.291449,0.167501
07066,2.721931,-2.218831,9.090334,0.925347,-0.293397,0.127646
07067,3.161308,-1.184727,8.706049,1.026066,-0.240344,0.068872
07068,3.736616,-0.066073,8.427792,0.925476,-0.147024,0.015494
07069,4.462119,0.772227,7.976509,0.528742,0.034650,-0.065159
07070,4.476232,0.833039,7.704402,-0.026032,0.231586,-0.205939
07071,3.818723,0.238386,7.734260,-0.508977,0.339197,-0.350724
07072,3.292792,-0.479361,8.205494,-0.765476,0.339622,-0.481179
07073,2.661526,-1.183362,8.883220,-0.865563,0.312336,-0.560715
07074,2.247735,-2.453363,9.392666,-0.934612,0.272707,-0.611176
07075,1.976317,-3.500433,9.815469,-0.703072,0.112611,-0.624816
07076,2.438822,-3.641575,9.996714,-0.286153,-0.054701,-0.627987
07077,2.806220,-3.124587,10.216567,-0.031078,-0.108812,-0.625771
07078,2.937140,-2.948209,10.306557,0.077958,-0.060019,-0.611669
07079,2.818908,-2.873015,10.346679,0.223871,-0.024739,-0.541899
07080,2.417611,-3.118507,10.091146,0.411941,-0.012951,-0.487360
07081,2.349164,-2.852686,9.766883,0.646817,-0.024834,-0.441236
07082,2.706057,-2.197082,9.248388,0.850448,-0.002878,-0.422816
07083,3.019002,-1.309558,8.593216,0.903655,0.042875,-0.449233
07084,3.311292,-0.403927,8.020959,0.776815,0.095833,-0.518754
07085,3.249313,0.143195,7.584039,0.472572,0.128374,-0.613376
07086,3.362191,0.186261,7.875926,0.021317,0.198148,-0.726952
07087,3.224312,-0.320255,8.563843,-0.283362,0.274361,-0.827205
07088,2.893456,-0.818162,9.142992,-0.384154,0.281116,-0.931046
07089,3.080218,-1.339374,9.577115,-0.430134,0.239459,-1.020600
07090,3.185464,-1.480840,10.154982,-0.305919,0.202557,-1.079057
07091,3.238158,-1.521164,10.532959,-0.189952,0.184810,-1.095277
07092,3.440911,-1.613611,10.604159,-0.111643,0.225792,-1.099595
07093,3.433962,-1.991056,10.613305,-0.034897,0.275309,-1.075548
07094,3.584239,-2.154962,10.377187,0.232196,0.236736,-1.065639
07095,3.926348,-1.776436,9.939992,0.486523,0.240082,-1.088481
07096,3.983193,-1.132334,9.534525,0.582909,0.296250,-1.129825
07097,4.192912,-0.752856,9.118753,0.509985,0.383588,-1.185643
07098,3.950153,-0.982153,8.276269,0.490899,0.426025,-1.306643
07099,3.156227,-0.582099,7.904593,0.387348,0.407222,-1.483949
07100,2.669393,-0.292686,8.344031,0.025506,0.321977,-1.626763
07101,3.057953,-0.587048,8.581448,-0.190752,0.283946,-1.691668
07102,2.921335,-0.681152,9.071286,-0.254166,0.326667,-1.756447
07103,2.764146,-0.706008,9.808445,-0.483844,0.397145,-1.778656
07104,2.704744,-1.246397,10.002203,-0.527204,0.388293,-1.781063
07105,2.924429,-1.893849,9.791843,-0.349974,0.370028,-1.825019
07106,3.174041,-2.272734,9.298136,-0.189079,0.449048,-1.813506
07107,2.677970,-2.366225,8.825293,-0.289329,0.554589,-1.850933
07108,1.864512,-1.851278,9.321270,-0.447008,0.507191,-1.882814
07109,1.605966,-2.145501,9.353395,-0.483710,0.349690,-1.839308
07110,1.825982,-2.213177,9.164561,-0.256592,0.231777,-1.783648
07111,2.041974,-1.648528,9.570408,-0.175016,0.243269,-1.683312
07112,2.240350,-1.747313,10.135423,-0.350401,0.295934,-1.527071
07113,2.379024,-2.370700,9.972849,-0.343332,0.283764,-1.368780
07114,2.379623,-2.674358,9.509469,-0.150453,0.278558,-1.249527
07115,2.442886,-2.919045,9.151606,-0.098773,0.310093,-1.167990
07116,2.254506,-2.747742,8.911086,-0.098462,0.336193,-1.118127
07117,1.852747,-2.493544,9.014751,-0.130223,0.309644,-1.130137
07118,1.491303,-2.503242,9.424139,-0.079271,0.177076,-1.125770
07119,0.974409,-2.615234,9.730485,0.113644,-0.072162,-1.121596
07120,0.383864,-2.614010,9.301044,0.344522,-0.438353,-1.117859
07121,0.646294,-2.702669,8.290716,0.385242,-0.737677,-1.123314
07122,1.453790,-2.862527,6.893987,0.378361,-0.828620,-1.146607
07123,2.610421,-2.656736,6.508573,0.343831,-0.668461,-1.102977
07124,3.067400,-2.245047,7.138599,0.232435,-0.439211,-0.973044
07125,2.834441,-1.176386,8.218502,0.097147,-0.292455,-0.889070
07126,2.429916,0.122602,9.065668,0.015854,-0.190650,-0.880975
07127,2.294875,0.788289,9.698341,-0.107284,-0.068969,-0.917841
07128,2.762921,1.284287,10.484829,-0.408024,0.177760,-0.914375
07129,2.431004,1.404842,10.910491,-0.852072,0.303737,-0.862834
07130,2.172901,0.453456,10.512378,-1.109292,0.208947,-0.756832
07131,2.729750,-0.927883,9.990361,-1.001090,0.087813,-0.642269
07132,3.255421,-1.915378,9.659686,-0.796531,0.015326,-0.563880
07133,3.550433,-2.655778,9.267489,-0.609503,-0.006153,-0.553758
07134,3.637001,-2.961985,9.416941,-0.389726,0.082347,-0.596105
07135,3.307126,-2.904049,9.831764,-0.122099,0.173209,-0.688454
07136,2.962734,-2.515839,10.201937,0.125158,0.221912,-0.756879
07137,2.612400,-1.911994,10.298054,0.266904,0.243130,-0.758077
07138,2.535490,-1.342885,10.300774,0.250168,0.277026,-0.733615
07139,2.456867,-1.002445,10.002862,0.137752,0.293934,-0.697990
07140,2.585205,-0.682801,9.460670,0.003804,0.296149,-0.659701
07141,2.813689,-0.427445,9.365437,-0.128785,0.328102,-0.640692
07142,3.071568,-0.532575,9.720839,-0.242312,0.401434,-0.635776
07143,3.218684,-0.718025,10.213581,-0.243153,0.487029,-0.628112
07144,3.183886,-1.038356,10.595064,-0.237938,0.567340,-0.574661
07145,2.694655,-1.307762,10.715296,-0.247602,0.561249,-0.504326
07146,2.429983,-1.328735,10.458844,-0.216731,0.512351,-0.492525
07147,2.186820,-1.100885,9.963833,-0.149831,0.493385,-0.547280
07148,1.769092,-0.673176,9.063936,-0.039348,0.386536,-0.664397
07149,1.476504,-0.417323,8.349656,0.047346,0.173907,-0.758978
07150,1.585440,-0.487286,7.520304,-0.001650,-0.079453,-0.786980
07151,2.372197,-0.923196,7.152033,-0.210800,-0.241816,-0.747310
07152,3.360220,-1.870401,7.185225,-0.314551,-0.206991,-0.676794
07153,3.656144,-2.527127,8.005421,-0.142143,-0.051150,-0.598201
07154,3.327267,-2.370999,9.032180,0.069304,0.129960,-0.546109
07155,2.732119,-1.654596,10.185459,0.161466,0.285750,-0.516101
07156,2.225230,-0.616555,11.004434,0.028510,0.395294,-0.499061
07157,2.027229,0.236970,11.645010,-0.345443,0.498886,-0.496498
07158,2.140802,0.413261,12.106920,-0.798121,0.605562,-0.505763
07159,2.286501,-0.051360,12.064014,-1.104675,0.682506,-0.519258
07160,2.330967,-0.658826,11.697479,-1.226429,0.697053,-0.503964
07161,1.994480,-1.263555,10.746600,-1.224777,0.615035,-0.495627
07162,1.973192,-1.857227,9.728084,-1.025894,0.528779,-0.527528
07163,1.741997,-2.156176,8.487752,-0.648921,0.372270,-0.589444
07164,1.705743,-1.999768,7.368488,-0.185432,0.150008,-0.661744
07165,1.862634,-1.534559,6.306848,0.196967,-0.095980,-0.693080
07166,2.431535,-1.583864,6.287659,0.224355,-0.257430,-0.655095
07167,2.861186,-2.160561,6.442728,0.198088,-0.248181,-0.580176
07168,3.058843,-2.083486,7.822787,0.359736,-0.120949,-0.534031
07169,2.870093,-1.680716,9.517664,0.342533,0.090851,-0.517658
07170,2.350635,-0.549593,10.833886,0.270028,0.275863,-0.521956
07171,2.054237,0.768483,11.933453,-0.056379,0.415552,-0.524907
07172,1.982635,1.106882,12.007843,-0.602696,0.499598,-0.521841
07173,1.995711,0.776160,11.423347,-1.084075,0.576052,-0.533460
07174,2.067459,-0.201888,10.860301,-1.398646,0.618623,-0.515530
07175,1.933838,-1.723371,10.057084,-1.476134,0.595602,-0.457267
07176,1.844890,-3.054984,9.028963,-1.278662,0.483976,-0.409318
07177,2.011797,-3.596626,8.586565,-0.851578,0.423755,-0.418826
07178,1.846300,-3.715298,8.274628,-0.339782,0.395287,-0.438978
07179,1.460464,-3.148370,7.749401,0.131557,0.263681,-0.478914
07180,1.552790,-2.535354,7.219857,0.326195,0.096898,-0.512515
07181,1.980615,-1.942771,6.910710,0.423572,0.061264,-0.541151
07182,2.141176,-1.209560,7.142230,0.490623,0.130187,-0.570597
07183,2.348532,-0.198617,9.147210,0.246845,0.195974,-0.554280
07184,2.507800,-0.152856,12.210524,-0.442516,0.407422,-0.488836
07185,1.554048,-1.207291,13.001655,-0.878031,0.592462,-0.447068
07186,0.604008,-1.817569,11.640383,-0.696446,0.558263,-0.450579
07187,0.939303,-1.516357,10.583994,-0.627676,0.496738,-0.473654
07188,1.992976,-1.806920,10.105196,-0.860578,0.462023,-0.505162
07189,2.429068,-2.417705,9.436394,-0.737280,0.409614,-0.521761
07190,2.307278,-2.499959,8.915921,-0.230953,0.293621,-0.518697
07191,2.310928,-1.835919,9.167067,0.187011,0.217932,-0.534131
07192,2.373296,-1.027574,9.477850,0.438807,0.214710,-0.588981
07193,2.107961,-0.290816,9.470038,0.530539,0.225339,-0.647053
07194,1.870131,-0.160005,9.234186,0.274217,0.200142,-0.638440
07195,1.799827,-0.675035,8.559898,-0.067371,0.186163,-0.642642
07196,1.905769,-1.049383,7.835472,-0.215339,0.197960,-0.713339
07197,2.179510,-0.947981,7.756055,-0.351637,0.180392,-0.783823
07198,2.370140,-0.951964,8.842852,-0.705945,0.217463,-0.804614
07199,1.610661,-1.871340,10.037346,-1.039146,0.277297,-0.733566
07200,0.644659,-3.171280,10.320402,-0.973549,0.234110,-0.624351
07201,0.445337,-3.746690,9.888823,-0.585827,0.150597,-0.523331
07202,0.812125,-3.850790,9.245015,-0.348829,0.082083,-0.465570
07203,1.499947,-3.943942,8.960959,-0.118565,0.029669,-0.448415
07204,1.940987,-3.449128,9.474717,0.241383,-0.012614,-0.445994
07205,1.879110,-2.556207,10.157244,0.505626,-0.036319,-0.444148
07206,1.567826,-1.616642,10.704338,0.662252,-0.083111,-0.432088
07207,1.407917,-1.380870,10.751677,0.675204,-0.152964,-0.394126
07208,1.468189,-1.933357,10.332346,0.587006,-0.205037,-0.328638
07209,1.894945,-1.967846,9.803776,0.671681,-0.124290,-0.347472
07210,1.703873,-1.153777,8.785632,0.849641,-0.035950,-0.424284
07211,1.534868,-0.525639,7.049484,0.875668,-0.208997,-0.448033
07212,1.939638,-0.800098,5.854309,0.597233,-0.425257,-0.380221
07213,2.526587,-2.044297,6.238963,0.009030,-0.419451,-0.266422
07214,2.224795,-3.315326,7.979532,-0.259718,-0.258555,-0.188666
07215,1.504673,-3.565152,9.917498,-0.086401,-0.156684,-0.155360
07216,1.089287,-2.492563,10.833791,0.077582,-0.122618,-0.135841
07217,1.165226,-1.354740,10.728528,-0.183583,-0.074709,-0.113766
07218,1.417143,-1.456362,10.170168,-0.553766,-0.044492,-0.100842
07219,1.693850,-2.397988,9.640816,-0.575579,-0.109069,-0.073757
07220,1.947310,-3.155262,9.478456,-0.314427,-0.200590,-0.024216
07221,2.131189,-3.315489,9.720097,0.089843,-0.213904,0.016076
07222,1.939930,-2.682040,10.296516,0.434581,-0.201647,0.039713
07223,1.790495,-1.905241,10.688927,0.594363,-0.181985,0.059100
07224,1.892633,-1.150088,10.951137,0.593090,-0.166427,0.078900
07225,1.902576,-0.991846,10.802135,0.421285,-0.143904,0.107917
07226,1.994211,-1.303137,10.161059,0.214601,-0.116668,0.131543
07227,2.229063,-1.381931,9.738055,0.061414,-0.055561,0.128259
07228,2.304827,-1.105157,9.182688,0.021097,0.007598,0.089736
07229,1.851245,-0.994775,8.104845,0.027122,-0.037294,0.073999
07230,1.822850,-1.387303,7.425343,-0.137603,-0.180513,0.143707
07231,2.033614,-2.855723,7.883468,-0.457402,-0.170484,0.253533
07232,1.714261,-4.531758,8.754847,-0.405370,-0.111715,0.372804
07233,1.368521,-4.961632,9.479358,0.029590,-0.101809,0.448736
07234,1.423629,-3.782783,10.030930,0.329111,-0.073284,0.483714
07235,1.662203,-2.297546,10.365443,0.274409,-0.003506,0.499265
07236,1.885237,-1.524594,10.388336,-0.039609,0.056161,0.521832
07237,1.911311,-1.665735,9.938840,-0.326036,0.052524,0.563706
07238,2.085460,-2.042744,9.578405,-0.424122,0.008433,0.589718
07239,2.280868,-2.469608,9.460848,-0.388545,-0.035521,0.607688
07240,2.288889,-2.763970,9.476293,-0.245135,-0.067854,0.597394
07241,2.150726,-2.679715,9.561590,-0.002697,-0.094711,0.578591
07242,2.080052,-2.166410,9.680786,0.253628,-0.107694,0.565797
07243,2.095903,-1.276288,9.984108,0.406026,-0.116701,0.541911
07244,2.267463,-0.390338,10.333805,0.429881,-0.119008,0.494090
07245,2.433436,0.273771,10.417242,0.353177,-0.100532,0.442866
07246,2.581518,0.604167,10.128774,0.249302,-0.068308,0.375904
07247,2.559683,0.845882,9.385078,0.187602,-0.036206,0.287696
07248,2.446657,1.024127,8.460637,0.122674,-0.065069,0.176969
07249,2.582378,0.798914,8.029296,-0.082853,-0.126163,0.100584
07250,2.741644,-0.097345,8.305715,-0.302543,-0.134482,0.089041
07251,2.621865,-1.495904,9.094950,-0.347991,-0.112817,0.138678
07252,2.251075,-2.652803,9.776415,-0.195291,-0.104905,0.196424
07253,1.892485,-3.118379,10.329820,0.021989,-0.080644,0.231857
07254,1.706983,-3.159794,10.607472,0.215144,-0.069256,0.262823
07255,1.656832,-2.861824,10.551819,0.313498,-0.058148,0.275099
07256,1.755685,-2.339229,10.228594,0.304443,-0.055782,0.263257
07257,2.014772,-1.971970,9.867317,0.264639,-0.084539,0.244489
07258,2.329696,-1.896933,9.620357,0.311619,-0.130102,0.243827
07259,2.539429,-1.908255,9.458606,0.427076,-0.161922,0.248166
07260,2.551950,-1.735669,9.466488,0.523266,-0.173484,0.227097
07261,2.433906,-1.466685,9.656919,0.602896,-0.199844,0.188403
07262,2.293751,-1.241223,9.640120,0.693108,-0.242029,0.163787
07263,1.987059,-0.813422,9.212071,0.723671,-0.252978,0.155593
07264,1.397836,-0.534113,8.103283,0.608433,-0.250167,0.155150
07265,1.055103,-0.792637,7.023632,0.369022,-0.353384,0.202565
07266,1.377351,-1.697028,6.766294,0.220349,-0.524010,0.294217
07267,2.101551,-2.490916,7.602377,0.325770,-0.588986,0.376671
07268,2.625601,-2.535162,9.180455,0.482671,-0.439217,0.426371
07269,2.571836,-1.971929,10.771181,0.519381,-0.185361,0.418690
07270,2.252482,-1.222311,11.697784,0.337609,0.026420,0.404358
07271,1.956981,-0.648224,11.747700,0.034228,0.131647,0.394038
07272,1.970957,-0.397597,11.448390,-0.257602,0.161276,0.399857
07273,2.175633,-0.491869,10.965757,-0.481501,0.153457,0.376148
07274,2.356882,-0.887510,10.166647,-0.526923,0.092068,0.323654
07275,2.590285,-1.467976,9.750601,-0.368182,0.003473,0.293425
07276,2.723135,-2.149063,9.662403,-0.165943,-0.049299,0.318052
07277,2.511771,-2.613820,9.375635,0.053776,-0.101595,0.348553
07278,2.312020,-2.650224,9.058674,0.322295,-0.140789,0.389825
07279,2.018254,-2.231973,8.705195,0.617666,-0.169560,0.395424
07280,1.852452,-1.552415,8.239699,0.781872,-0.203944,0.388086
07281,1.783637,-1.176751,7.720588,0.750455,-0.298345,0.436560
07282,1.803374,-1.474575,7.219014,0.615481,-0.459422,0.532241
07283,2.292763,-2.118976,7.167962,0.600734,-0.591638,0.604900
07284,2.687290,-2.517972,7.384012,0.667085,-0.581872,0.634068
07285,2.842007,-2.192561,8.014060,0.634138,-0.486323,0.612402
07286,2.998180,-1.581871,8.944106,0.395787,-0.333893,0.554199
07287,2.930294,-0.943043,10.151525,0.120411,-0.174753,0.497973
07288,2.839170,-0.429263,11.240072,-0.103229,-0.048434,0.473830
07289,2.737743,0.180880,11.908246,-0.294409,0.072760,0.461667
07290,2.533623,0.323054,12.201123,-0.525324,0.195170,0.447775
07291,2.487824,-0.297996,12.176669,-0.766026,0.311532,0.456601
07292,2.340942,-0.970150,11.584875,-0.824747,0.357820,0.476901
07293,2.424835,-1.725318,10.823239,-0.701249,0.301915,0.489215
07294,2.623744,-2.452335,10.234690,-0.452309,0.228910,0.509163
07295,2.650701,-2.718460,9.744233,-0.153411,0.156463,0.508197
07296,2.574910,-2.546344,9.402026,0.210280,0.063824,0.481883
07297,2.484925,-2.255499,9.111206,0.538493,0.006269,0.479434
07298,2.204297,-1.629813,8.563839,0.776682,-0.098926,0.502853
07299,2.148030,-1.008154,7.760876,0.845054,-0.244012,0.525592
07300,2.559835,-0.600423,7.340754,0.788231,-0.366744,0.533958
07301,3.026474,-0.378334,7.587196,0.663610,-0.363201,0.508938
07302,3.158746,-0.155121,8.267831,0.508955,-0.294420,0.454165
07303,3.174035,0.003923,8.914973,0.337385,-0.192255,0.409040
07304,3.046998,0.184923,9.440175,0.118670,-0.067467,0.409566
07305,2.629764,0.086874,9.845979,-0.121466,-0.006642,0.442897
07306,2.638814,-0.530004,9.997624,-0.305956,0.032790,0.522969
07307,2.562018,-1.161789,9.873924,-0.361827,0.062962,0.593172
07308,2.232495,-1.673105,9.761721,-0.346791,0.038653,0.629630
07309,2.235442,-2.303629,9.799203,-0.273956,-0.042400,0.672680
07310,2.331632,-2.903380,9.796417,-0.037562,-0.129633,0.734140
07311,2.407238,-2.976854,9.785001,0.246911,-0.175536,0.775372
07312,2.607622,-2.821341,9.666411,0.421207,-0.153287,0.854274
07313,2.251844,-2.561956,9.299030,0.579182,-0.137126,0.885020
07314,2.079318,-2.184959,9.082262,0.678777,-0.143542,0.861229
07315,2.206832,-2.071323,8.893708,0.663108,-0.156122,0.875672
07316,2.069451,-1.851422,8.459299,0.669748,-0.199750,0.893493
07317,2.262560,-1.633913,8.202460,0.693462,-0.290108,0.870519
07318,2.809080,-1.314795,7.937279,0.700849,-0.282850,0.780019
07319,3.209222,-0.542006,8.116537,0.584633,-0.148037,0.622611
07320,3.420314,0.378455,8.937475,0.254258,0.104455,0.450340
07321,3.019342,1.429885,10.115802,-0.286736,0.356951,0.329490
07322,2.255340,1.705424,11.451618,-0.865627,0.530572,0.282273
07323,2.073781,0.687348,12.151369,-1.201949,0.608106,0.363780
07324,2.420104,-0.661774,11.658603,-1.165075,0.649129,0.539534
07325,2.126219,-1.344792,10.897471,-1.110795,0.625323,0.664272
07326,2.376428,-2.806500,10.536218,-1.087500,0.521289,0.762464
07327,2.507173,-3.973789,10.626320,-0.672557,0.401610,0.824799
07328,2.145223,-4.027527,10.434046,-0.001965,0.236254,0.847006
07329,1.920276,-3.425883,9.976695,0.535995,0.108796,0.861332
07330,1.690857,-2.800643,9.265152,0.819057,0.041447,0.895100
07331,1.711751,-2.327910,9.006838,0.915729,-0.003986,0.962314
07332,2.002589,-1.933751,8.793528,0.967464,-0.009282,1.055367
07333,2.435855,-1.580427,8.552224,0.983536,0.058103,1.122094
07334,2.237325,-0.986130,8.432292,0.941779,0.163713,1.138341
07335,1.905920,-0.639401,8.340398,0.804830,0.168874,1.132129
07336,1.685184,-0.672849,7.918490,0.806464,0.090877,1.102996
07337,1.496780,-0.340585,7.655121,0.744554,0.041845,1.056829
07338,1.524771,-0.283789,7.595141,0.361672,0.033588,1.030721
07339,1.503023,-0.467647,7.789581,-0.127081,0.035095,1.014924
07340,1.419234,-1.089376,8.216055,-0.540796,-0.026617,1.020573
07341,1.537247,-1.719513,9.218364,-0.763739,-0.156093,0.987453
07342,1.536059,-2.353968,9.693691,-0.508734,-0.285417,0.993569
07343,1.564248,-2.385522,10.015972,-0.108023,-0.387138,1.009378
07344,1.747864,-2.207808,10.128768,0.014485,-0.452853,1.057946
07345,1.798677,-2.373878,10.093343,0.081281,-0.550414,1.091394
07346,2.137275,-2.666879,10.203942,0.257159,-0.640388,1.087444
07347,2.070349,-2.657466,9.670402,0.670172,-0.752643,1.101932
07348,1.854592,-2.062710,9.586225,0.996185,-0.818939,1.031649
07349,2.062560,-1.186958,9.308732,1.172317,-0.855015,0.988814
07350,2.568648,-0.488509,8.837515,1.324721,-0.770618,0.973820
07351,2.711231,0.373967,8.700318,1.082378,-0.627425,0.922620
07352,3.123045,0.565671,8.586473,0.767350,-0.506387,0.844534
07353,3.777768,0.679234,8.491907,0.589049,-0.436328,0.772482
07354,3.471573,0.782191,8.099957,0.412882,-0.350297,0.647431
07355,3.666179,0.864682,7.751869,0.141051,-0.362539,0.515931
07356,3.877886,1.086563,7.352074,0.005778,-0.390553,0.340259
07357,3.712173,1.464333,7.353147,-0.254187,-0.382431,0.150813
07358,3.075934,0.943118,7.689020,-0.659463,-0.322596,0.005884
07359,2.654840,-0.433693,8.415544,-0.955248,-0.310243,-0.033906
07360,2.448475,-1.934099,9.430579,-0.972632,-0.384516,-0.074254
07361,2.513874,-2.948247,10.144791,-0.676307,-0.517712,-0.107458
07362,2.922468,-2.868006,10.576128,-0.185563,-0.650737,-0.117305
07363,3.000473,-2.352729,10.762527,0.086331,-0.671331,-0.106642
07364,2.774207,-2.005921,11.005247,0.243337,-0.626730,-0.076639
07365,2.336289,-1.815887,10.877619,0.486368,-0.584770,-0.014271
07366,2.327967,-1.772770,10.492175,0.671509,-0.558685,0.061023
07367,2.356770,-1.755970,10.099829,0.852977,-0.556405,0.105060
07368,2.639926,-1.661383,9.405481,1.040661,-0.597733,0.143843
07369,3.070962,-0.991234,8.603183,1.214473,-0.664623,0.136239
07370,3.570457,-0.035878,8.041409,1.166971,-0.695196,0.097365
07371,4.028334,0.802456,7.550527,0.939796,-0.667279,0.041278
07372,4.275499,1.493179,7.300846,0.594120,-0.589180,-0.033914
07373,4.292887,1.677837,7.509763,0.079208,-0.470424,-0.117427
07374,3.937967,1.148014,8.011259,-0.375523,-0.356437,-0.201275
07375,3.514465,0.094797,8.559315,-0.659735,-0.321779,-0.290830
07376,3.585039,-0.826038,9.167372,-0.666981,-0.402361,-0.350011
07377,3.821083,-1.351170,9.602234,-0.501033,-0.485557,-0.381542
07378,3.936042,-1.384190,10.022267,-0.332095,-0.532509,-0.403647
07379,4.053766,-1.319486,10.261331,-0.196703,-0.526612,-0.409955
07380,3.880108,-1.265604,10.178638,0.001305,-0.531061,-0.396635
07381,3.476482,-1.197841,9.968673,0.180100,-0.563024,-0.388357
07382,3.372331,-1.251950,9.563839,0.335142,-0.622825,-0.362371
07383,3.673216,-0.974593,8.963683,0.555052,-0.674003,-0.337765
07384,4.099868,-0.320018,8.468470,0.674455,-0.679609,-0.338649
07385,4.727156,0.298064,8.009065,0.591703,-0.640441,-0.377323
07386,5.100646,0.724049,7.449040,0.486671,-0.587098,-0.452589
07387,5.259899,1.096844,6.796304,0.346207,-0.558712,-0.570500
07388,5.040648,1.281887,6.180849,0.125388,-0.581852,-0.701947
07389,4.793559,1.283956,5.950297,-0.258188,-0.642357,-0.816571
07390,4.492716,0.752102,5.868691,-0.651288,-0.721613,-0.944405
07391,4.104710,0.077412,6.292445,-0.937173,-0.830144,-1.081692
07392,4.054063,-0.417448,7.245172,-1.103096,-1.008866,-1.259471
07393,4.285213,-0.850210,7.921046,-0.955990,-1.182131,-1.432436
07394,4.684573,-0.590225,8.466691,-0.576366,-1.315137,-1.500985
07395,4.736272,-0.282227,8.757752,-0.447400,-1.394273,-1.519373
07396,4.951640,-0.415997,8.771802,-0.497271,-1.463483,-1.491502
07397,5.198643,-1.113456,8.455067,-0.487500,-1.540357,-1.429976
07398,5.085635,-2.162827,7.889017,-0.367704,-1.631285,-1.321628
07399,4.809310,-3.035199,7.361045,-0.188913,-1.649902,-1.320966
07400,4.359868,-2.661685,7.446220,0.126517,-1.725480,-1.320573
07401,4.631805,-1.799873,8.025493,0.360016,-1.810467,-1.259939
07402,5.162762,-0.976409,7.644294,0.510623,-1.838541,-1.163092
07403,5.445003,-0.077042,7.242498,0.584527,-1.765344,-1.058896
07404,5.599331,0.549561,6.855499,0.391727,-1.659315,-0.944672
07405,5.638866,0.545777,6.398250,0.135813,-1.584438,-0.789584
07406,5.709501,0.195906,5.723780,-0.066986,-1.570272,-0.635869
07407,5.726698,-0.171368,5.197669,-0.306197,-1.594875,-0.498914
07408,6.051705,-0.666662,4.714840,-0.539131,-1.630267,-0.376500
07409,6.303544,-1.045078,4.271512,-0.680158,-1.643433,-0.322267
07410,6.343761,-0.834964,4.240937,-0.767486,-1.637322,-0.326965
07411,6.154242,-0.651035,4.340092,-0.954836,-1.674457,-0.311047
07412,5.978682,-0.619776,4.192943,-1.111774,-1.745488,-0.276824
07413,5.916319,-0.646270,4.004125,-1.221532,-1.765389,-0.217302
07414,5.857921,-0.898324,3.753297,-1.386566,-1.751823,-0.074232
07415,6.101239,-1.363133,3.444592,-1.606905,-1.745128,0.119100
07416,6.828622,-1.655880,3.646863,-1.821773,-1.699713,0.322155
07417,8.093770,-2.013359,4.797029,-2.316027,-1.518013,0.489394
07418,8.924119,-2.600697,6.102784,-2.787900,-1.241228,0.573399
07419,8.943625,-2.772154,7.017604,-2.846859,-1.055001,0.608780
07420,8.447154,-2.837718,7.139345,-2.605442,-1.003257,0.603494
07421,8.346911,-2.995088,7.068512,-2.365424,-0.963294,0.558285
07422,8.512502,-3.402557,6.883564,-2.221005,-0.933432,0.519492
07423,8.762941,-3.801529,6.390614,-2.076014,-1.026124,0.497601
07424,9.154878,-3.960287,6.082686,-1.837040,-1.168129,0.442604
07425,9.305996,-3.651038,6.097437,-1.554014,-1.285270,0.288486
07426,9.341716,-3.152587,6.550581,-1.365537,-1.382319,0.112614
07427,9.425791,-3.033611,6.783143,-1.171391,-1.476965,-0.025204
07428,9.540764,-2.686426,6.926303,-0.918284,-1.506977,-0.102971
07429,9.693742,-2.073861,7.165541,-0.811363,-1.472842,-0.120472
07430,9.987334,-1.844135,7.405696,-0.901070,-1.425232,-0.089245
07431,10.230215,-2.153783,7.369669,-1.037318,-1.365590,-0.026198
07432,10.484723,-2.595373,7.355807,-1.095265,-1.296157,0.037862
07433,10.865835,-3.048918,7.504197,-1.130035,-1.187514,0.046762
07434,11.182004,-3.480654,7.871104,-1.177573,-0.976872,0.012088
07435,10.471828,-3.850765,7.668084,-1.099314,-0.802921,-0.031158
07436,9.601630,-3.989053,7.371271,-0.694499,-0.774713,-0.094496
07437,9.216897,-3.551174,6.989863,-0.086154,-0.807797,-0.119039
07438,9.190249,-2.812327,6.565986,0.380924,-0.805207,-0.086427
07439,9.049023,-2.182147,5.780372,0.645218,-0.794700,-0.057443
07440,8.831864,-1.906700,4.429939,0.732180,-0.865392,-0.015967
07441,8.831602,-2.072438,3.162119,0.646163,-0.983855,0.054926
07442,9.143178,-2.660172,2.296088,0.498146,-1.075966,0.130295
07443,9.770970,-3.291164,2.194447,0.408284,-1.029523,0.160787
07444,10.068118,-3.610798,2.905918,0.368490,-0.854876,0.171464
07445,9.939849,-3.545578,3.738363,0.322258,-0.695436,0.194444
07446,9.853552,-3.475801,4.407625,0.245596,-0.584702,0.212939
07447,9.674986,-3.356082,4.703802,0.199361,-0.453999,0.171830
07448,9.565499,-2.979639,5.085950,0.234102,-0.349876,0.108966
07449,9.597597,-2.221316,5.625118,0.348918,-0.218961,0.024420
07450,9.319385,-1.292745,5.600125,0.477548,-0.094515,-0.090894
07451,9.011396,-0.581074,4.800766,0.681630,-0.074019,-0.180745
07452,8.816653,-0.149909,3.758799,0.943821,-0.138926,-0.242861
07453,9.267576,0.158743,2.761294,1.112465,-0.261203,-0.296820
07454,9.986742,0.329681,2.443336,1.068610,-0.282091,-0.399103
07455,10.086661,0.429364,2.520322,0.789612,-0.184750,-0.542015
07456,10.026882,0.300297,2.088272,0.616868,-0.182038,-0.692043
07457,9.895758,0.071248,1.145111,0.533258,-0.183959,-0.808616
07458,9.825742,-0.420622,0.562180,0.186298,-0.122102,-0.859365
07459,9.844115,-1.540217,1.114376,-0.678821,0.037250,-0.813737
07460,9.396096,-3.021937,2.370648,-1.527115,0.203201,-0.691396
07461,8.820826,-4.532411,3.683297,-1.836557,0.280079,-0.547993
07462,8.351193,-5.568511,4.942133,-1.316425,0.261439,-0.432824
07463,8.327900,-5.379016,6.198989,-0.522992,0.184350,-0.325019
07464,8.709190,-4.356518,6.335059,-0.124460,0.176799,-0.206579
07465,8.975899,-3.665304,5.453590,0.099493,0.168938,-0.114770
07466,9.374743,-3.012352,4.594787,0.474168,0.080322,-0.085412
07467,9.725551,-2.178730,4.178218,0.814720,0.007598,-0.081592
07468,9.765354,-1.445291,3.792729,0.995358,-0.029653,-0.084422
07469,9.693482,-0.847255,3.199287,1.101953,-0.086545,-0.110560
07470,9.663230,-0.477961,2.450262,1.121475,-0.130832,-0.146128
07471,9.615060,-0.388066,1.823095,0.890639,-0.119003,-0.172403
07472,9.323369,-0.528918,1.343530,0.450898,-0.068292,-0.179566
07473,8.886282,-0.896852,1.163603,-0.021979,-0.048900,-0.167790
07474,8.615929,-1.465202,1.445155,-0.293205,-0.063268,-0.158389
07475,8.429889,-1.971773,1.719461,-0.403791,-0.067896,-0.148781
07476,8.182403,-2.550302,1.792685,-0.412760,-0.091885,-0.118959
07477,8.033616,-3.358141,1.713303,-0.346821,-0.172212,-0.054174
07478,8.110274,-3.743892,1.931679,-0.174413,-0.279454,0.007285
07479,8.455720,-3.380140,2.913140,0.062124,-0.328224,0.031866
07480,8.800760,-2.661272,3.749180,0.270257,-0.318715,0.026993
07481,8.956574,-1.998646,3.800062,0.411737,-0.293762,0.036569
07482,9.051746,-1.593753,3.335889,0.456009,-0.270569,0.042448
07483,9.144242,-1.339627,2.941862,0.417307,-0.271450,0.041740
07484,9.539608,-1.142442,2.900532,0.333790,-0.294212,0.032372
07485,10.060162,-0.834997,2.957174,0.334300,-0.334409,0.016120
07486,10.264202,-0.264617,3.036327,0.497290,-0.396959,-0.032499
07487,10.334259,0.340810,2.866766,0.680873,-0.435270,-0.082060
07488,10.140629,0.816629,2.644796,0.662814,-0.426550,-0.150431
07489,9.854921,1.008710,2.490101,0.374980,-0.385467,-0.207002
07490,9.667295,0.758309,2.539450,-0.105400,-0.339225,-0.229006
07491,9.596143,0.000852,2.511033,-0.461642,-0.289853,-0.244210
07492,9.297047,-0.709615,2.166025,-0.470563,-0.260074,-0.264741
07493,8.839725,-0.936735,1.682198,-0.347827,-0.294368,-0.274110
07494,8.663204,-1.043195,1.717950,-0.416474,-0.336203,-0.250333
07495,8.851100,-1.309489,2.313065,-0.564554,-0.300136,-0.205334
07496,8.850998,-1.557289,3.064371,-0.603796,-0.232857,-0.164316
07497,8.945030,-1.699961,3.626474,-0.491083,-0.212763,-0.115339
07498,9.207987,-1.714522,3.817446,-0.350575,-0.201855,-0.073681
07499,9.396666,-1.479007,3.577872,-0.330994,-0.163520,-0.040091
07500,9.471184,-1.401347,3.213412,-0.346062,-0.133703,-0.009783
07501,9.494874,-1.454365,2.972142,-0.329751,-0.123509,0.019616
07502,9.396072,-1.491469,2.897818,-0.324443,-0.130566,0.048978
07503,9.311657,-1.608028,2.912116,-0.313953,-0.146329,0.067147
07504,9.406779,-1.911567,2.972926,-0.271890,-0.156194,0.083482
07505,9.526685,-1.838001,2.958648,-0.156428,-0.160438,0.091632
07506,9.702207,-1.504456,3.096646,-0.061942,-0.160422,0.081052
07507,9.935241,-1.346765,3.122977,-0.049064,-0.145257,0.072118
07508,10.202933,-1.463547,3.115530,-0.058043,-0.131005,0.062503
07509,10.612824,-1.603840,3.049338,-0.029767,-0.121600,0.053071
07510,10.755964,-1.637096,2.814265,-0.011477,-0.096396,0.039243
07511,10.607779,-1.683708,2.483439,-0.016900,-0.077052,0.026923
07512,10.494441,-1.748856,2.118500,-0.004837,-0.056354,0.034166
07513,10.287202,-1.764520,1.884777,-0.012291,-0.012978,0.044944
07514,9.835837,-1.686965,1.955485,-0.067101,0.039251,0.045917
07515,9.492689,-1.846054,2.178478,-0.161567,0.096605,0.045354
07516,9.214889,-2.054446,2.364190,-0.195262,0.146256,0.053622
07517,9.089523,-2.158605,2.566632,-0.171262,0.165931,0.065874
07518,9.193730,-2.420329,2.685780,-0.161276,0.164103,0.089854
07519,9.220011,-2.672023,2.543029,-0.052729,0.137171,0.108019
07520,9.185567,-2.487033,2.261644,0.156438,0.091903,0.120921
07521,9.228385,-2.152276,2.141403,0.241406,0.064799,0.126509
07522,9.145030,-1.992200,2.312886,0.217292,0.045378,0.125799
07523,9.041268,-1.976960,2.637203,0.187910,0.032480,0.114123
07524,8.863193,-2.033287,2.893500,0.169624,0.045570,0.098287
07525,8.608298,-2.112999,3.006354,0.162460,0.068927,0.089540
07526,8.451450,-2.106961,3.140458,0.157075,0.088439,0.083007
07527,8.511111,-2.056886,3.120750,0.184525,0.082464,0.088841
07528,8.762183,-2.049497,2.901716,0.274313,0.060543,0.095149
07529,8.925943,-1.951034,2.495914,0.440808,0.053914,0.098664
07530,9.086623,-1.495264,2.002249,0.620255,0.034529,0.091264
07531,9.394347,-0.948687,1.746386,0.677442,0.000483,0.092026
07532,9.615380,-0.436124,1.442339,0.581353,-0.017524,0.096523
07533,9.490862,0.016189,1.315719,0.366046,-0.029081,0.099739
07534,9.417255,0.058617,1.259166,0.054606,-0.030403,0.089800
07535,9.127488,-0.435658,1.116089,-0.205210,-0.021145,0.088128
07536,8.851247,-1.022966,1.022179,-0.263808,-0.052141,0.103381
07537,8.809703,-1.362920,1.215852,-0.237956,-0.085565,0.129932
07538,8.937838,-1.548446,1.686820,-0.260509,-0.073024,0.163644
07539,9.086668,-1.553478,2.403878,-0.278788,-0.063911,0.188515
07540,9.407215,-1.523186,3.068460,-0.230463,-0.051553,0.212024
07541,9.687789,-1.372901,3.490459,-0.118396,-0.031014,0.217460
07542,9.777623,-1.212766,3.421025,0.004553,-0.021238,0.223294
07543,9.836695,-1.081431,3.106413,0.024839,-0.026932,0.218971
07544,9.849878,-1.238117,2.748019,-0.003651,-0.040070,0.211616
07545,9.829564,-1.434909,2.462881,0.005643,-0.054245,0.197012
07546,9.838028,-1.489714,2.305475,0.036647,-0.071096,0.173443
07547,9.831644,-1.466068,2.253433,0.016816,-0.075279,0.144951
07548,9.849992,-1.531818,2.145779,-0.043657,-0.075952,0.117023
07549,9.731988,-1.555733,2.062771,-0.107950,-0.065648,0.086381
07550,9.602321,-1.680368,2.078086,-0.216216,-0.058775,0.064458
07551,9.435052,-2.070050,2.145343,-0.317001,-0.054754,0.044174
07552,9.272668,-2.451712,2.176409,-0.328920,-0.055429,0.042389
07553,9.093303,-2.647653,2.196097,-0.271915,-0.074787,0.035871
07554,9.058392,-2.768338,2.327537,-0.187590,-0.100678,0.029238
07555,9.114711,-2.727005,2.388447,-0.074100,-0.119010,0.027630
07556,9.153143,-2.549896,2.357187,0.058433,-0.129529,0.024158
07557,9.318951,-2.327633,2.375225,0.128033,-0.135499,0.025740
07558,9.364176,-2.053151,2.281114,0.139738,-0.129641,0.029607
07559,9.462588,-1.932371,2.245051,0.126710,-0.117838,0.023357
07560,9.507856,-1.806495,2.220604,0.098527,-0.114815,0.024387
07561,9.602015,-1.710706,2.177564,0.018490,-0.095184,0.026516
07562,9.562718,-1.768681,2.113120,-0.081734,-0.075823,0.027565
07563,9.553609,-1.890984,2.162502,-0.139139,-0.070282,0.026504
07564,9.570640,-1.952025,2.249103,-0.157103,-0.064756,0.024433
07565,9.599008,-2.058703,2.307938,-0.149724,-0.054678,0.024693
07566,9.542013,-2.182104,2.296717,-0.097889,-0.066223,0.027796
07567,9.580108,-2.155078,2.337684,-0.042888,-0.075606,0.024339
07568,9.711248,-2.178627,2.414365,-0.023775,-0.071777,0.025233
07569,9.779221,-2.180053,2.453291,0.012371,-0.060967,0.029426
07570,9.796475,-2.103776,2.434578,0.049459,-0.063839,0.025186
07571,9.862277,-1.911205,2.525412,0.050013,-0.049360,0.014680
07572,9.841286,-1.834977,2.538830,0.033391,-0.037727,0.003941
07573,9.792667,-1.790517,2.595131,0.020099,-0.019053,-0.014900
07574,9.740843,-1.797477,2.567013,0.012257,-0.001953,-0.018546
07575,9.660593,-1.952011,2.533833,-0.007605,0.011483,-0.025526
07576,9.633595,-2.126142,2.449938,0.004359,0.026985,-0.030620
07577,9.602571,-2.193121,2.448947,0.038085,0.037933,-0.033706
07578,9.636099,-2.194735,2.457203,0.070319,0.049593,-0.040779
07579,9.602497,-2.196780,2.421592,0.095513,0.057130,-0.042585
07580,9.496762,-2.193352,2.414732,0.123357,0.068093,-0.051696
07581,9.443888,-2.194337,2.397011,0.130229,0.079288,-0.058042
07582,9.385600,-2.303560,2.405713,0.147515,0.086034,-0.060667
07583,9.329541,-2.456311,2.297271,0.197183,0.092609,-0.061913
07584,9.221383,-2.502718,2.210553,0.262582,0.095046,-0.055423
07585,9.225280,-2.483115,2.193143,0.319670,0.089899,-0.050696
07586,9.241320,-2.408611,2.155657,0.365959,0.083743,-0.037710
07587,9.279766,-2.194861,2.155136,0.402291,0.079953,-0.023172
07588,9.353373,-1.934043,2.241983,0.417161,0.091616,-0.006857
07589,9.448805,-1.750082,2.313511,0.400238,0.105851,0.000054
07590,9.432096,-1.634069,2.317623,0.365436,0.119575,0.007249
07591,9.433274,-1.503150,2.345462,0.324639,0.126517,0.015442
07592,9.438563,-1.466726,2.334640,0.283849,0.133243,0.017791
07593,9.399947,-1.512028,2.263750,0.246067,0.134568,0.025189
07594,9.342139,-1.559123,2.207366,0.235666,0.130132,0.025813
07595,9.297764,-1.597134,2.207694,0.243371,0.115259,0.030273
07596,9.283682,-1.519856,2.128955,0.261957,0.104356,0.028165
07597,9.309419,-1.485892,2.099127,0.254183,0.090292,0.023083
07598,9.296723,-1.452577,2.097503,0.221231,0.083428,0.014903
07599,9.239092,-1.439811,1.994246,0.191035,0.073077,0.006447
07600,9.198798,-1.436918,2.032787,0.154023,0.068154,-0.005857
07601,9.160165,-1.450562,2.031444,0.105304,0.063495,-0.016484
07602,9.127145,-1.501204,2.075748,0.061764,0.055395,-0.020148
07603,9.106403,-1.598973,2.093473,0.047792,0.043671,-0.022782
07604,9.100755,-1.602751,2.131040,0.049028,0.029218,-0.018268
07605,9.148490,-1.613039,2.156615,0.021874,0.019686,-0.016172
07606,9.162696,-1.661726,2.257230,0.002324,0.006779,0.000136
07607,9.221213,-1.704359,2.293562,0.007180,-0.007645,0.003443
07608,9.280501,-1.646831,2.330826,-0.003845,-0.020566,0.008845
07609,9.348391,-1.660509,2.336221,-0.033568,-0.029803,0.009549
07610,9.359471,-1.692445,2.346224,-0.042057,-0.031132,0.013374
07611,9.380084,-1.593966,2.329772,-0.038062,-0.041058,0.017574
07612,9.391874,-1.526177,2.341071,-0.072023,-0.037152,0.015760
07613,9.367153,-1.637851,2.382112,-0.128774,-0.029846,0.020952
07614,9.419248,-1.850584,2.361508,-0.124913,-0.022377,0.032168
07615,9.406206,-1.866920,2.299877,-0.097404,-0.021491,0.042548
07616,9.454840,-1.829657,2.401324,-0.116274,-0.025172,0.049560
07617,9.511648,-1.864194,2.471091,-0.159204,-0.025204,0.053713
07618,9.527449,-1.984822,2.604992,-0.189146,-0.032253,0.054803
07619,9.538253,-2.068909,2.690373,-0.190793,-0.050705,0.047016
07620,9.517304,-2.162105,2.731398,-0.169656,-0.063496,0.033452
07621,9.450664,-2.300474,2.790093,-0.139498,-0.073610,0.006836
07622,9.395002,-2.421489,2.781773,-0.062239,-0.089109,-0.003194
07623,9.283897,-2.527996,2.661021,0.047319,-0.103993,-0.018401
07624,9.185622,-2.459783,2.562437,0.160264,-0.118243,-0.023211
07625,9.184503,-2.314925,2.513337,0.248936,-0.124068,-0.016283
07626,9.271906,-2.097600,2.421597,0.303219,-0.124434,-0.006080
07627,9.286325,-1.875137,2.355948,0.318358,-0.111904,0.005484
07628,9.364699,-1.589737,2.294511,0.290009,-0.098365,0.014792
07629,9.366390,-1.441681,2.212092,0.203181,-0.078033,0.018604
07630,9.398429,-1.369210,2.208734,0.102978,-0.052860,0.017307
07631,9.375079,-1.493489,2.213259,0.013648,-0.031802,0.009419
07632,9.343579,-1.665961,2.208412,-0.029838,-0.012677,0.009693
07633,9.271280,-1.778721,2.192738,-0.035412,-0.002118,0.001529
07634,9.272412,-1.822514,2.272587,-0.035111,0.002347,-0.006027
07635,9.384542,-1.898100,2.415415,-0.033132,0.003328,-0.005422
07636,9.459859,-2.007996,2.510952,-0.035823,0.007838,-0.003882
07637,9.576628,-2.194764,2.579189,-0.029506,-0.000517,-0.003739
