// Start Time: Unknown
// Update Rate: 100.0Hz
// Filter Profile: human (46.1)
// Firmware Version: 4.3.5
PacketCounter,Acc_X,Acc_Y,Acc_Z,Gyr_X,Gyr_Y,Gyr_Z
20053,9.341004,-2.369070,2.469959,-0.014249,0.016910,-0.017229
20054,9.374319,-2.335125,2.456632,-0.007206,0.016057,-0.017744
20055,9.326523,-2.359690,2.454096,-0.011864,0.018288,-0.019263
20056,9.312151,-2.351581,2.436611,-0.015254,0.010949,-0.022001
20057,9.337360,-2.373265,2.441661,-0.013950,0.010292,-0.024274
20058,9.306609,-2.381016,2.430904,-0.011398,0.006485,-0.026029
20059,9.294457,-2.384808,2.471259,-0.007477,0.007175,-0.023513
20060,9.296965,-2.360074,2.445884,-0.008415,0.006369,-0.021741
20061,9.272342,-2.334918,2.441891,-0.009722,0.007022,-0.019470
20062,9.270590,-2.356073,2.467873,-0.008247,0.001181,-0.021467
20063,9.308588,-2.371963,2.432178,-0.012964,0.000911,-0.020198
20064,9.292373,-2.386762,2.439378,-0.009924,0.003294,-0.018697
20065,9.317727,-2.408660,2.443799,-0.005776,0.001297,-0.018694
20066,9.303649,-2.400386,2.425386,0.004167,0.001608,-0.019717
20067,9.322689,-2.394529,2.476590,0.004339,-0.003579,-0.019442
20068,9.298212,-2.369336,2.472018,0.004993,-0.002579,-0.015911
20069,9.325732,-2.368364,2.450446,-0.002566,-0.001509,-0.016918
20070,9.353282,-2.367414,2.428722,0.002465,-0.005194,-0.015897
20071,9.339093,-2.394745,2.494057,0.001159,-0.004541,-0.013625
20072,9.347732,-2.337416,2.474660,0.000223,-0.005347,-0.011852
20073,9.348057,-2.336635,2.474172,-0.005656,-0.003736,-0.006293
20074,9.350407,-2.313419,2.447696,-0.015742,-0.005284,-0.007285
20075,9.419278,-2.320998,2.422647,-0.021055,-0.001408,-0.003000
20076,9.458865,-2.351416,2.444778,-0.023863,-0.003830,0.002319
20077,9.441905,-2.308151,2.504993,-0.028241,0.000852,0.004830
20078,9.497014,-2.105993,2.596943,-0.047001,0.004747,0.004327
20079,9.587209,-1.814389,2.564740,-0.134410,0.025027,0.007100
20080,9.632250,-1.456263,2.754425,-0.264071,0.055250,0.007261
20081,9.649767,-1.319207,2.891102,-0.453450,0.112446,-0.004747
20082,9.678825,-1.109894,2.824229,-0.681875,0.164849,-0.000644
20083,9.476139,-0.719559,2.916512,-0.992302,0.235963,-0.015983
20084,9.414741,-0.713585,2.892746,-1.348327,0.301140,-0.036023
20085,9.322370,-0.979943,2.659018,-1.683018,0.359727,-0.061394
20086,9.185640,-1.579142,2.345031,-1.923884,0.397944,-0.079572
20087,9.047029,-2.512464,2.122089,-2.002109,0.406029,-0.103718
20088,8.970687,-3.620553,1.664872,-1.887955,0.385592,-0.119453
20089,8.797592,-5.341884,0.649932,-1.529515,0.347153,-0.130059
20090,8.445413,-7.528459,-0.617788,-0.693843,0.243082,-0.135089
20091,7.816178,-9.789981,-1.892850,0.604092,0.056355,-0.115192
20092,7.809433,-11.697989,-1.228889,2.745596,-0.284548,-0.101566
20093,9.508509,-10.269087,1.110055,5.091501,-0.694510,-0.067818
20094,10.888233,-6.998833,1.027471,6.418454,-0.776411,0.065320
20095,10.835586,-3.085791,1.022213,7.115962,-0.814422,0.249750
20096,10.654826,0.691663,2.011787,6.942235,-0.800260,0.452965
20097,10.804670,3.801448,4.147512,6.108036,-0.672219,0.582618
20098,11.191256,6.559026,6.890579,4.569813,-0.428633,0.587752
20099,11.074260,7.954112,7.487049,2.088701,-0.049184,0.591494
20100,10.579273,7.950176,6.350881,-0.179705,0.292514,0.497885
20101,9.720710,7.092683,4.997170,-2.292602,0.617751,0.323016
20102,8.785197,4.361768,2.506839,-3.921134,0.786353,0.185313
20103,8.501514,0.814907,1.632469,-4.663453,0.870294,0.088575
20104,8.902215,-2.909218,2.080347,-4.709161,0.958062,0.044808
20105,9.280368,-6.242363,2.360118,-4.163566,1.040921,0.033715
20106,8.783684,-8.389104,1.485185,-3.260852,1.019037,0.087282
20107,7.962444,-10.134900,0.652707,-1.897299,0.861520,0.191695
20108,8.174658,-9.832440,1.933133,-0.205456,0.531430,0.252149
20109,8.695515,-9.320680,2.109743,1.111351,0.321422,0.341612
20110,9.641587,-7.986679,3.567263,2.546758,0.093289,0.470269
20111,10.752571,-5.314113,5.135691,3.430908,-0.013771,0.608606
20112,11.141504,-2.245157,5.690361,3.578911,-0.024482,0.796166
20113,10.874023,-0.018983,5.569558,3.088865,0.062309,0.961993
20114,10.391279,1.071019,5.895655,2.323012,0.223353,1.014008
20115,9.960275,1.491342,6.579297,1.395720,0.415579,0.961803
20116,10.056656,1.627212,6.951576,0.572494,0.640608,0.832748
20117,10.182828,2.426512,6.911030,-0.387701,0.951758,0.669220
20118,9.322177,2.439341,4.868204,-1.568462,1.302726,0.525612
20119,8.352617,1.770770,3.994710,-2.374216,1.536009,0.324576
20120,8.173372,0.286532,4.196109,-3.007865,1.727919,0.131240
20121,8.444762,-1.489907,4.478742,-3.344313,1.864976,0.049620
20122,8.529887,-2.921102,4.842679,-3.537619,1.983393,0.036590
20123,8.528888,-4.358619,4.676373,-3.560068,2.071277,0.051279
20124,8.237037,-5.870216,3.468668,-3.481778,2.081069,0.134138
20125,7.666557,-8.373749,1.638679,-2.926382,1.961996,0.274843
20126,7.569466,-9.070160,2.849362,-1.697621,1.647792,0.351079
20127,7.634370,-9.309519,2.795125,-0.795942,1.402566,0.470562
20128,7.961669,-8.925504,3.468982,0.303552,1.081584,0.612352
20129,8.582358,-8.033025,3.742438,1.150819,0.860118,0.764470
20130,8.876890,-6.909577,3.966971,1.882970,0.706569,0.903519
20131,9.224310,-4.965590,5.152314,2.499837,0.649316,0.959005
20132,9.200987,-2.234213,6.689559,2.517377,0.758882,0.919544
20133,8.934120,-0.581007,6.967000,1.954144,0.991107,0.848536
20134,8.574900,-0.180115,6.318293,1.048068,1.236047,0.747608
20135,7.952355,-0.719989,4.780487,0.217878,1.430219,0.617767
20136,7.561189,-0.487739,4.789265,-0.384522,1.576740,0.411346
20137,7.381198,-0.026776,5.037586,-1.102365,1.712488,0.217999
20138,7.769966,-0.334587,5.528374,-1.889491,1.836879,0.137421
20139,7.879081,-2.113787,5.244615,-2.743601,1.968103,0.184927
20140,7.006434,-5.471925,2.844479,-3.418117,1.982215,0.399324
20141,5.890895,-9.406940,1.502579,-3.017252,1.730507,0.657623
20142,5.419642,-11.762456,2.395832,-1.905403,1.315346,0.849423
20143,5.613351,-13.332162,4.056498,-0.309945,0.852468,1.042670
20144,6.629666,-13.595290,5.461455,1.691436,0.336233,1.232507
20145,7.834056,-11.687010,5.797624,3.545277,-0.031473,1.433769
20146,7.851812,-8.540392,4.903794,4.728575,-0.212217,1.625081
20147,7.196782,-5.525929,4.151399,5.140267,-0.384882,1.830764
20148,7.054613,-2.688932,5.268412,4.980888,-0.513293,1.884247
20149,7.612126,-0.321601,7.489787,4.314709,-0.402893,1.746663
20150,7.988059,1.824190,10.684940,3.486320,-0.008983,1.460980
20151,7.124707,3.531654,11.580789,1.802035,0.537508,1.226526
20152,5.852203,2.783780,8.848226,0.142858,0.962468,0.991572
20153,5.271571,1.792033,7.467792,-1.099817,1.229077,0.672279
20154,4.853417,0.258576,6.217032,-2.248273,1.401645,0.442825
20155,4.020802,-1.872183,4.929584,-3.138827,1.440281,0.417353
20156,2.961366,-4.046360,3.843323,-3.789321,1.259419,0.586110
20157,1.996521,-6.433049,3.250263,-4.229336,0.922836,0.877548
20158,2.455441,-8.816544,4.795751,-3.779138,0.466862,1.058051
20159,3.535938,-10.452526,7.351838,-2.885836,0.106057,1.100388
20160,4.795503,-13.009341,7.090097,-1.574309,-0.317250,1.166404
20161,5.880518,-14.577542,5.227867,0.248470,-0.696895,1.231235
20162,6.056624,-13.424562,3.669209,2.142276,-1.003096,1.279938
20163,6.447089,-10.494995,4.727859,3.584749,-1.189040,1.302509
20164,7.211260,-7.112651,7.049904,4.520846,-1.094087,1.234299
20165,7.721907,-3.221410,10.570523,4.689304,-0.701071,1.080546
20166,7.176458,-0.476751,11.542658,3.577919,0.007462,0.992652
20167,5.628094,-1.035914,8.772318,2.162453,0.601897,0.940360
20168,5.302827,-1.668680,6.962968,1.375660,0.905408,0.748733
20169,5.660825,-1.208059,6.818521,0.634913,1.223698,0.451363
20170,6.077069,-0.599163,7.894152,-0.183867,1.552134,0.250434
20171,5.725224,-1.668003,6.938218,-1.384516,1.823087,0.295533
20172,4.103570,-4.514361,4.965274,-2.491558,1.925364,0.537819
20173,2.433400,-8.892137,3.378353,-2.860295,1.764669,0.778205
20174,1.464868,-13.220494,4.029843,-1.830383,1.337600,0.925982
20175,2.092444,-14.664348,7.606294,0.340895,0.577867,1.024505
20176,3.554241,-14.427203,9.310959,2.164705,0.015440,1.179197
20177,5.287760,-12.000116,8.762505,3.910616,-0.430169,1.402514
20178,5.555689,-8.163655,7.801938,4.800394,-0.574662,1.615377
20179,5.475352,-4.587301,7.757369,4.954310,-0.645055,1.740999
20180,5.657925,-2.163288,8.579642,4.354936,-0.506034,1.702270
20181,5.838919,-1.083784,9.132605,3.398753,-0.268392,1.597507
20182,6.117129,-0.685222,9.600072,2.423472,0.025401,1.440958
20183,5.838869,-1.200435,8.895262,1.462886,0.416295,1.267999
20184,5.458588,-1.889620,8.189677,0.953019,0.732112,1.094919
20185,4.871038,-2.285046,8.062880,0.598258,1.046068,0.954150
20186,4.263849,-2.086113,7.839515,0.294334,1.204166,0.924757
20187,2.938434,-2.811110,6.227080,-0.446118,1.292015,1.044989
20188,1.654958,-4.787978,5.764114,-0.739416,1.130126,1.220276
20189,1.261930,-7.317131,6.707234,-0.645269,0.904845,1.352805
20190,1.764424,-9.870692,7.483189,0.109854,0.558348,1.410156
20191,2.622841,-10.534689,7.629090,1.374322,0.014504,1.477346
20192,3.539559,-9.487419,7.176577,2.461229,-0.363581,1.599905
20193,3.435395,-7.329367,6.805431,3.202196,-0.650598,1.707653
20194,3.417261,-5.023955,6.318056,3.526849,-0.922524,1.760098
20195,4.064062,-3.288548,7.042513,3.477144,-0.992390,1.753063
20196,4.588410,-1.939261,8.115835,3.105603,-0.879769,1.701254
20197,5.241451,-1.265301,10.459259,2.759105,-0.535524,1.631330
20198,5.465644,-0.872981,11.989293,2.186189,0.054246,1.523740
20199,5.432211,-1.235063,11.794670,1.818812,0.740246,1.334501
20200,5.693385,-0.309270,11.941730,1.778188,1.425999,1.038868
20201,5.742195,2.103927,11.423413,1.363747,2.085730,0.746923
20202,5.516941,4.972774,12.145575,0.487660,2.742459,0.474893
20203,5.182299,5.249271,11.331839,-1.327879,3.427392,0.303493
20204,3.867359,3.173780,8.694163,-2.923972,3.834122,0.301578
20205,1.691637,0.123670,5.750602,-4.480347,3.998357,0.472289
20206,-0.484696,-4.567225,2.669170,-5.217798,3.902369,0.768932
20207,-2.943183,-10.431973,1.608411,-4.463325,3.355903,0.942516
20208,-4.272592,-14.029010,2.474930,-2.330526,2.109765,1.186041
20209,-3.153141,-14.524761,2.760126,-0.070488,0.902371,1.372374
20210,-1.663410,-12.015451,2.569830,1.811177,0.033190,1.562507
20211,-0.863291,-8.427366,3.281145,3.113746,-0.659173,1.753513
20212,-0.046442,-5.029943,4.957112,3.755790,-1.123712,1.864365
20213,1.248030,-2.533536,7.763779,3.869202,-1.237648,1.932090
20214,2.270910,-0.579508,11.135551,3.308489,-0.896479,1.946597
20215,2.161835,0.317859,12.613631,2.303143,-0.348147,1.900172
20216,1.641229,0.757785,12.289538,1.682201,0.162825,1.738961
20217,1.375568,1.770050,12.905622,1.392015,0.664018,1.497677
20218,1.544718,2.986226,13.648777,0.849425,1.228204,1.211482
20219,1.678341,3.444696,13.549225,0.108641,1.791851,0.972220
20220,1.551665,3.290858,13.453853,-0.728186,2.314952,0.776892
20221,0.293478,1.834100,11.396988,-1.774631,2.750254,0.675686
20222,-1.910330,-1.037153,8.247629,-2.691802,2.913434,0.747383
20223,-4.096373,-4.693245,5.579855,-2.993966,2.717501,0.944263
20224,-5.520177,-8.381196,4.815331,-2.147652,2.073414,1.157949
20225,-5.629739,-9.797940,6.027275,-0.828431,1.113460,1.366234
20226,-4.413534,-9.909580,5.621363,0.228707,0.271665,1.602097
20227,-3.247205,-8.959046,5.245417,1.281643,-0.393857,1.844111
20228,-2.709700,-7.033620,4.866851,2.001613,-0.970467,2.041743
20229,-2.104152,-5.208923,4.977994,2.322747,-1.415282,2.199621
20230,-1.229760,-3.774658,6.067005,2.395469,-1.679239,2.304739
20231,-0.623437,-2.598743,7.290493,2.206712,-1.754840,2.383441
20232,-0.122337,-1.966460,9.316215,2.098620,-1.663861,2.428848
20233,0.105586,-1.267627,10.563119,1.935368,-1.464175,2.445786
20234,0.146302,-0.777095,10.765910,1.852057,-1.195851,2.403382
20235,0.109458,0.182916,10.665774,1.829664,-0.943344,2.317736
20236,-0.120133,1.556576,10.743827,1.680208,-0.655986,2.181591
20237,-1.059020,2.740473,9.887387,0.993723,-0.393938,2.081161
20238,-2.388547,2.947986,8.694820,0.261925,-0.294527,1.985014
20239,-3.178489,2.440049,7.768830,-0.506212,-0.388526,1.912665
20240,-3.417127,1.192302,6.928150,-1.266693,-0.558042,1.867162
20241,-3.135751,-0.553519,6.398898,-1.850523,-0.783570,1.822540
20242,-2.526057,-2.686719,5.894470,-2.166019,-1.010691,1.811344
20243,-1.822117,-5.348297,6.166258,-1.871289,-1.277303,1.793753
20244,-1.030277,-7.664158,6.380278,-0.859950,-1.655899,1.832331
20245,0.136286,-8.457841,7.454196,0.687362,-2.019117,1.916316
20246,1.380432,-7.145987,8.183099,2.009549,-2.181352,2.016372
20247,2.115358,-4.715430,8.772918,3.170276,-2.195993,2.122305
20248,2.991727,-1.581410,10.476960,4.162984,-2.096506,2.178469
20249,4.384168,1.758641,13.384262,4.061116,-1.601008,2.190170
20250,4.850799,3.069451,13.352301,3.331645,-0.875726,2.173883
20251,4.997983,4.780847,13.891071,3.113059,-0.378380,2.056557
20252,5.531134,8.308023,14.822250,2.474209,0.244237,1.755404
20253,5.672682,11.465696,15.200773,1.407948,0.993071,1.386673
20254,5.283921,12.308156,15.540048,0.114067,1.770572,1.046438
20255,4.658727,10.248250,15.086987,-1.013825,2.448291,0.750437
20256,4.139650,6.974465,14.110090,-1.789967,3.024232,0.498757
20257,3.622680,3.738444,12.113694,-2.107071,3.482978,0.281141
20258,2.621842,1.180183,9.555445,-2.147935,3.791521,0.170095
20259,0.642144,-0.510314,6.500521,-2.230909,3.838466,0.233156
20260,-1.762635,-2.432217,2.702906,-2.490648,3.597109,0.446331
20261,-3.960464,-4.815895,0.381662,-2.129507,2.951509,0.673096
20262,-5.215833,-5.886152,2.106837,-1.322475,1.973372,0.928529
20263,-5.870799,-6.465425,3.707677,-0.824848,1.040638,1.184915
20264,-5.399575,-7.522204,4.309453,0.076444,-0.090862,1.512549
20265,-3.526211,-7.342262,4.292956,1.001619,-1.012176,1.869776
20266,-2.540696,-5.802895,4.717049,1.788304,-1.630705,2.198128
20267,-1.526554,-3.591993,6.142248,2.420277,-2.137975,2.482000
20268,0.027072,-1.275668,8.551408,2.740740,-2.291489,2.662388
20269,1.073961,1.500513,11.698108,2.426030,-2.048910,2.751890
20270,1.530972,3.300825,13.360026,1.805785,-1.555162,2.708758
20271,1.559338,4.962091,13.965647,1.684936,-1.093322,2.511363
20272,1.775501,7.400646,14.664245,1.648270,-0.552037,2.166584
20273,2.259215,10.133966,15.507138,1.413957,0.128664,1.696593
20274,2.562753,11.742268,16.343019,0.824942,0.920457,1.189729
20275,2.056430,11.339321,15.243875,0.064221,1.701265,0.725126
20276,0.635210,9.561251,13.352271,-0.606057,2.344134,0.354888
20277,-0.696271,6.078753,10.895453,-1.182531,2.781777,0.085163
20278,-1.449894,1.884525,7.874615,-1.670553,2.966880,0.048007
20279,-1.956857,-2.865019,5.320772,-1.973304,2.991168,0.249318
20280,-2.741782,-8.137547,2.317721,-1.775785,2.809425,0.559395
20281,-4.513608,-12.012604,1.123385,-0.616286,2.182896,1.057710
20282,-6.536064,-12.447592,2.147462,0.438726,1.203174,1.693416
20283,-6.614535,-9.805184,3.251385,1.221267,0.260867,2.245334
20284,-4.896861,-5.345356,3.866162,1.690617,-0.575795,2.807269
20285,-3.086239,-1.020150,4.794255,1.741458,-1.108399,3.356824
20286,-1.937721,2.139731,6.548785,0.961524,-1.319136,3.810343
20287,-1.601821,3.019979,7.496945,-0.086060,-1.412302,4.114214
20288,-1.007330,3.001527,8.630904,-0.218453,-1.614363,4.188335
20289,0.605314,3.635801,10.688863,0.103556,-1.618584,4.026220
20290,2.471284,5.392525,12.724377,0.989900,-1.335712,3.607222
20291,3.985459,9.458859,14.823755,1.942296,-0.864576,2.992213
20292,4.613969,14.602970,14.875510,2.151856,-0.179640,2.254246
20293,3.129886,18.005458,13.824644,1.645386,0.553922,1.446654
20294,1.116848,16.327392,12.056297,0.669204,1.118302,0.782933
20295,0.303566,10.430155,10.782905,-0.129959,1.460969,0.321465
20296,-0.215560,3.318329,9.655703,-0.773801,1.671835,0.176031
20297,-0.788004,-2.085329,6.684913,-1.038661,1.617122,0.344412
20298,-2.285732,-5.755633,3.955001,-0.601918,1.398713,0.595627
20299,-3.330125,-6.534933,3.210720,0.365312,0.828219,0.940765
20300,-3.570675,-4.282877,3.827532,0.862968,0.252067,1.315712
20301,-2.418437,-0.337307,4.494816,1.180920,-0.328837,1.655864
20302,-0.187584,4.243879,6.156257,1.216079,-0.687686,1.992917
20303,0.883703,7.742562,9.547255,0.412266,-0.700596,2.262962
20304,0.895471,7.589358,10.703024,-0.777414,-0.587061,2.198001
20305,0.805251,5.411963,9.803468,-0.990298,-0.549960,1.961942
20306,1.394851,5.495062,10.090600,-0.335469,-0.566159,1.496314
20307,2.273516,9.593441,11.224958,0.842290,-0.547080,0.867487
20308,2.851863,15.075774,12.918674,1.183446,-0.314847,0.077027
20309,3.109373,15.609639,11.628057,0.450198,0.164001,-0.619705
20310,1.657402,11.442582,10.006422,-0.006250,0.449472,-1.070318
20311,-0.164694,5.802521,10.120941,-0.197357,0.625546,-1.365176
20312,-1.518753,1.441896,9.300829,-0.221209,0.559827,-1.365143
20313,-2.964659,-0.203172,8.405573,0.003895,0.318631,-1.182534
20314,-3.640848,-0.716872,8.353305,-0.101207,0.088989,-0.934125
20315,-3.354015,-0.955113,7.090693,-0.235631,-0.170389,-0.642712
20316,-2.438704,0.193410,7.324571,-0.178857,-0.536057,-0.312620
20317,-1.225843,1.755208,7.539433,-0.338472,-0.739154,0.006114
20318,-0.363692,3.674290,8.611566,-0.337629,-0.866221,0.224472
20319,0.464303,5.702972,10.867314,-0.387427,-0.937159,0.221989
20320,2.163049,6.479044,12.429873,-0.792568,-0.833784,0.010070
20321,3.905604,6.510717,12.716676,-0.676997,-0.569327,-0.438798
20322,5.274267,9.854741,14.824246,0.334830,-0.253631,-1.291139
20323,6.620411,15.243489,16.957377,1.141660,0.322923,-2.449901
20324,7.607701,17.376788,16.366092,1.389119,1.049498,-3.552744
20325,7.071603,15.526011,14.959926,1.676415,1.703373,-4.486601
20326,3.769187,12.306440,12.350994,1.484298,2.251636,-5.244910
20327,-0.060050,8.517627,8.610802,0.933427,2.414258,-5.575277
20328,-2.961050,4.489793,6.215789,-0.109844,2.359441,-5.518026
20329,-5.872962,-0.806571,1.778256,-1.474990,2.309052,-5.154116
20330,-8.946851,-7.618778,-1.702706,-1.305762,1.975124,-4.891356
20331,-10.370717,-12.592951,-0.692518,-0.078514,0.681153,-3.886311
20332,-9.415453,-13.980096,-0.935318,1.268394,-0.724867,-3.030392
20333,-7.392719,-12.248110,-1.550651,2.363847,-1.955083,-1.940275
20334,-6.855867,-7.766173,-0.999473,2.804661,-2.947298,-0.869192
20335,-5.970254,-2.484002,1.187093,2.824634,-3.807985,0.014382
20336,-3.935798,1.919220,4.359213,2.385053,-4.319381,0.512649
20337,-0.665571,4.123989,9.156737,1.550397,-4.325068,0.742797
20338,1.837711,5.209202,12.908211,0.367858,-3.953514,0.737130
20339,3.648325,5.531479,12.785312,0.555485,-3.300942,0.369950
20340,4.608726,8.747383,14.942345,1.514600,-2.603800,-0.162238
20341,5.011071,13.467991,15.585564,2.019014,-1.759385,-0.818483
20342,4.314807,17.582002,16.436331,1.826854,-0.813650,-1.552005
20343,2.550584,18.618305,16.595259,0.906176,0.236335,-2.358165
20344,0.907175,15.932121,15.853321,-0.059598,1.084954,-3.130353
20345,0.634793,12.691902,13.992738,-0.763519,1.728686,-3.771093
20346,0.649398,9.533246,10.641199,-1.545515,2.260676,-4.188223
20347,0.220730,5.100793,7.170045,-2.464069,2.646276,-4.304605
20348,-1.344189,0.504277,2.616643,-3.401620,2.671206,-4.060642
20349,-4.117628,-3.789471,-3.261069,-3.600016,2.211488,-3.663276
20350,-6.749559,-7.308438,-2.718477,-2.218219,1.021997,-2.938420
20351,-7.835812,-7.934255,-0.665794,-1.110523,-0.516323,-2.076710
20352,-6.208514,-6.008103,0.493325,-0.201710,-1.942425,-1.538388
20353,-3.957163,-3.019573,2.087076,0.363565,-3.036694,-1.033450
20354,-2.355550,-0.221510,3.689798,0.485034,-3.759254,-0.676078
20355,-0.639590,1.447869,5.829498,0.153644,-4.066989,-0.505899
20356,0.963004,1.641462,7.954861,-0.203703,-3.940629,-0.481221
20357,2.302534,1.006163,10.421095,0.112722,-3.541655,-0.633550
20358,3.476277,1.255901,13.226229,1.066487,-2.859210,-0.955728
20359,4.004286,3.611292,15.320546,2.300630,-2.007141,-1.417387
20360,3.587314,8.556483,17.325427,3.044476,-1.129057,-1.898121
20361,3.061003,13.750041,18.335948,2.413463,-0.241354,-2.396513
20362,2.542876,16.708616,18.643319,0.609487,0.705422,-2.950760
20363,2.357762,15.548327,17.245251,-1.746297,1.637267,-3.444320
20364,2.667174,10.335165,13.313998,-3.971350,2.496553,-3.756916
20365,1.557572,3.174457,7.769494,-5.631158,3.221770,-3.830799
20366,-0.869071,-3.303776,1.617423,-6.448421,3.474236,-3.605193
20367,-4.204736,-10.743916,-3.019274,-4.992163,2.969397,-3.338737
20368,-7.022117,-13.505333,-0.185419,-2.165056,1.393373,-2.568292
20369,-7.344690,-11.752319,1.425997,-0.350716,0.004700,-2.098125
20370,-6.036415,-7.787472,2.678317,1.132365,-1.319721,-1.618661
20371,-4.509552,-3.731280,4.431058,1.764724,-2.303049,-1.168696
20372,-3.079718,-1.030503,6.562174,1.830387,-2.927353,-0.893423
20373,-1.451397,0.607858,8.583056,1.259576,-3.073913,-0.706798
20374,-0.081906,0.923089,10.745132,0.700843,-2.802941,-0.645186
20375,0.802687,0.787687,12.779806,0.635554,-2.339560,-0.728405
20376,1.461989,1.745619,14.462999,0.935156,-1.762629,-0.910905
20377,1.681169,4.222916,15.921934,1.059957,-1.051629,-1.186931
20378,1.643512,6.597666,16.567482,0.622328,-0.249044,-1.533769
20379,1.392143,7.747787,15.998251,-0.161664,0.563604,-1.912112
20380,1.104205,7.074574,15.262777,-1.059695,1.312444,-2.294914
20381,0.930114,4.882239,12.481314,-2.137218,1.913317,-2.568148
20382,-0.231114,2.001886,8.768690,-2.957091,2.254680,-2.648084
20383,-1.945344,-0.960324,5.907797,-3.645803,2.243734,-2.529767
20384,-3.943724,-4.956315,2.571973,-3.939685,1.953933,-2.289712
20385,-5.786399,-9.270348,2.490643,-2.296158,0.960597,-1.997369
20386,-5.740044,-10.521942,4.854653,-0.287675,-0.323939,-1.608788
20387,-4.110466,-9.448003,5.126864,1.308280,-1.267359,-1.359003
20388,-3.102638,-6.189985,6.033191,2.832066,-2.072468,-1.099855
20389,-2.281158,-2.386536,7.531834,3.755696,-2.643337,-0.906615
20390,-0.920867,1.041643,10.361748,3.824576,-2.771181,-0.803693
20391,0.428462,3.517941,13.073713,2.736136,-2.272974,-0.846498
20392,0.607614,4.298630,12.809233,1.926637,-1.689961,-1.027911
20393,0.915297,5.382754,13.908456,1.594695,-1.139209,-1.301408
20394,1.214057,7.114407,15.352626,1.030557,-0.486122,-1.665302
20395,1.607035,7.942708,15.552057,-0.008095,0.197254,-2.005650
20396,1.665293,7.098414,14.558754,-1.134240,0.863429,-2.301835
20397,1.964467,5.090095,14.007414,-2.099783,1.451526,-2.593954
20398,2.452083,2.119261,11.948719,-2.977606,1.953488,-2.796994
20399,1.813695,-0.834589,8.153496,-3.683317,2.317833,-2.815176
20400,-0.555014,-3.630145,3.773321,-4.211522,2.389805,-2.604033
20401,-3.625184,-7.664647,0.315474,-3.758595,1.966041,-2.287600
20402,-5.647095,-10.491102,2.836105,-1.802386,0.840979,-1.840327
20403,-4.835362,-11.166268,5.844602,-0.242349,-0.241564,-1.528379
20404,-2.849158,-10.499305,6.099997,1.435052,-1.137369,-1.218596
20405,-2.107811,-7.679950,6.952041,3.006813,-1.778848,-0.928740
20406,-2.337086,-4.011373,8.165273,4.036858,-2.277660,-0.694117
20407,-1.692594,-0.243503,10.325777,4.372202,-2.537204,-0.550442
20408,-0.616634,3.036455,12.912309,3.351083,-2.151416,-0.577493
20409,-0.062723,3.867371,12.288954,1.987572,-1.482852,-0.772849
20410,0.481133,4.662163,13.228908,1.465768,-0.910680,-1.093311
20411,0.784228,6.501874,14.674358,0.700989,-0.254059,-1.458858
20412,0.812234,7.465704,14.745612,-0.533392,0.385806,-1.738228
20413,0.634837,6.389089,13.961035,-1.891931,1.006677,-1.978357
20414,0.812536,3.721488,13.445697,-2.994199,1.504436,-2.193851
20415,1.605690,0.510689,11.738576,-3.738245,1.878464,-2.346036
20416,1.290236,-1.970072,8.541930,-4.272654,2.114059,-2.316277
20417,-1.260789,-4.081677,4.314092,-4.625364,2.130739,-2.040309
20418,-4.618012,-6.695229,3.367207,-3.738983,1.573000,-1.715916
20419,-6.135342,-8.143394,5.394844,-2.354380,0.559723,-1.383028
20420,-5.485317,-9.054162,7.627023,-1.071834,-0.294471,-1.137389
20421,-3.518618,-9.588927,8.699671,0.536602,-1.082029,-0.923242
20422,-2.052764,-8.144407,10.304005,2.387839,-1.634607,-0.763893
20423,-1.689943,-4.975634,11.867330,3.861815,-1.975822,-0.694548
20424,-1.184226,-1.495746,13.414828,4.577426,-2.064874,-0.690982
20425,-0.418089,1.653808,14.405079,3.856298,-1.608801,-0.794692
20426,0.082160,2.884996,12.686550,3.032046,-1.005457,-1.056780
20427,0.863914,5.469611,13.509730,2.729668,-0.481088,-1.434969
20428,1.335669,8.707863,14.798559,1.559573,0.158545,-1.784335
20429,1.861564,8.541366,13.678705,-0.179438,0.824997,-2.013617
20430,1.438420,6.175312,13.284174,-1.651460,1.356792,-2.132393
20431,1.118117,2.858347,13.175246,-2.773417,1.736504,-2.221751
20432,1.801583,-1.345857,11.546511,-3.345466,2.030961,-2.337946
20433,1.944307,-4.546779,7.862256,-3.471669,2.170354,-2.340639
20434,-0.209042,-7.492678,2.399760,-2.976023,2.144311,-2.158168
20435,-3.757007,-9.582374,1.577186,-0.790032,1.435034,-1.949769
20436,-5.114375,-8.569069,3.934753,0.981274,0.485292,-1.729164
20437,-4.206983,-6.985984,6.030918,2.291908,-0.248743,-1.617082
20438,-1.714311,-5.507043,8.605897,3.481067,-0.947433,-1.456437
20439,0.180517,-3.789810,9.625381,4.173106,-1.377387,-1.235981
20440,0.256995,-1.938382,9.193920,4.315288,-1.642732,-1.050665
20441,-0.071973,-0.547476,8.750758,4.159165,-1.833830,-0.912474
20442,0.157417,1.190346,9.808380,3.952552,-1.901451,-0.875141
20443,0.513653,3.350462,11.134454,3.152909,-1.582928,-0.999859
20444,1.064484,4.100339,10.593753,2.142166,-1.025654,-1.227665
20445,1.573671,5.409886,11.011028,1.595621,-0.491583,-1.573070
20446,2.117554,8.134054,12.638132,0.591439,-0.012636,-1.903469
20447,2.561456,9.242786,12.755776,-1.307297,0.575522,-2.147115
20448,2.166071,7.108902,12.028572,-3.138926,1.094293,-2.253274
20449,2.326441,3.060490,11.123609,-4.531807,1.480637,-2.333359
20450,3.039041,-1.529329,9.050041,-5.150154,1.766619,-2.398363
20451,1.901397,-4.533707,4.529959,-5.410406,1.848923,-2.234809
20452,-2.609623,-8.132500,-0.119078,-4.570070,1.670244,-1.872892
20453,-7.794561,-10.474161,2.888084,-2.238070,0.643210,-1.518450
20454,-7.246746,-11.722023,6.646184,-0.163158,-0.504301,-1.338617
20455,-2.160254,-9.763320,10.928114,2.445631,-1.498359,-1.217084
20456,1.311142,-5.771676,12.767196,4.074676,-1.781656,-1.031049
20457,0.672928,-2.011139,12.856559,4.466044,-1.753314,-0.823547
20458,0.810402,0.788812,16.343769,4.400722,-1.582738,-0.687249
20459,0.266580,2.659233,17.708369,2.552931,-0.976253,-0.685826
20460,-1.085145,1.839534,10.921940,0.716102,-0.662199,-0.807899
20461,-0.304904,4.027997,7.790787,0.445090,-0.464068,-1.248371
20462,0.965798,6.733017,9.148185,-0.157374,0.106468,-1.738001
20463,2.068028,7.907445,9.848027,-1.457431,0.549371,-1.942970
20464,2.846007,6.264630,10.996950,-3.011743,1.046475,-1.898895
20465,2.741276,2.807707,11.324550,-4.483682,1.541804,-1.817143
20466,2.369746,-0.260670,9.643081,-5.622876,1.820753,-1.754943
20467,1.513607,-2.978080,5.839979,-6.447597,1.999755,-1.633899
20468,-0.493480,-6.852565,1.546228,-6.417005,2.104231,-1.467222
20469,-4.203212,-11.533317,0.594782,-4.399775,1.600721,-1.327621
20470,-5.831249,-14.012723,5.501811,-1.787729,0.746116,-1.191550
20471,-3.963181,-13.510698,8.862168,0.545862,-0.002004,-1.307273
20472,-0.666203,-10.049878,9.551321,2.768370,-0.619683,-1.299721
20473,0.164364,-5.340972,9.839413,4.058191,-0.829294,-1.213137
20474,-0.715977,-1.999872,9.396598,3.874738,-0.881709,-1.129365
20475,-0.641563,-0.836712,9.126837,3.120618,-0.815428,-1.108832
20476,-0.020232,-0.221280,9.181181,2.468199,-0.735793,-1.142113
20477,0.809136,0.436160,9.040204,1.682124,-0.441406,-1.216776
20478,1.288479,2.530372,8.086614,0.850061,-0.115708,-1.353022
20479,2.010619,4.160857,5.776280,-0.697166,0.346840,-1.508793
20480,2.229612,3.821109,6.433601,-2.044636,0.812514,-1.637285
20481,2.598334,2.221071,7.480737,-3.617428,1.135974,-1.634261
20482,3.320428,0.523624,7.371849,-5.036766,1.360643,-1.553031
20483,3.517936,-0.898037,6.514529,-6.291210,1.579479,-1.411940
20484,2.959652,-2.886119,3.818911,-7.559506,1.760013,-1.194053
20485,1.160161,-7.617438,-2.384717,-8.337380,1.986755,-0.963122
20486,-3.559674,-14.365984,-1.015683,-6.000399,1.451518,-0.822854
20487,-6.841794,-18.732249,2.005157,-3.139781,0.381766,-0.708728
20488,-6.644971,-22.293623,3.213574,0.447247,-0.552740,-0.774080
20489,-2.638761,-19.526929,5.569795,4.591065,-1.574195,-0.636453
20490,-0.545346,-12.797739,6.754415,6.849179,-1.890548,-0.391057
20491,-1.145478,-6.370578,9.687681,7.754649,-2.006044,-0.075626
20492,-1.752252,1.246043,11.745631,7.456162,-2.214866,0.047330
20493,-1.063564,7.711269,13.615861,3.651044,-1.238285,-0.136599
20494,0.036651,8.078506,8.239964,0.472552,-0.459651,-0.600360
20495,1.611082,7.364072,10.534339,-1.732056,0.176058,-0.965515
20496,1.691031,3.350400,12.186878,-3.988750,0.863720,-1.026824
20497,1.321665,-0.905232,12.735746,-5.921823,1.282510,-0.898887
20498,1.017997,-4.646012,9.576955,-7.569859,1.431173,-0.719526
20499,1.537128,-8.487346,5.124623,-8.071584,1.407530,-0.477073
20500,1.614962,-11.595905,2.059740,-6.977415,1.108645,-0.155792
20501,-0.528478,-14.016442,2.522330,-5.642701,0.999124,0.159317
20502,-4.474247,-17.427049,3.664764,-3.705178,0.635277,0.152210
20503,-5.715926,-19.647897,3.215216,-0.900046,-0.136728,0.213932
20504,-4.271235,-19.586391,4.800178,2.185618,-0.935979,0.388573
20505,0.111810,-15.502737,7.536563,4.745460,-1.512862,0.598250
20506,1.765244,-10.697839,8.652740,5.899420,-1.477722,0.879278
20507,1.368411,-6.719226,12.113539,6.551133,-1.337710,1.118846
20508,0.538447,-3.129854,13.039143,5.707757,-0.985168,1.278035
20509,-0.894672,-2.201776,10.846211,3.548927,-0.260676,1.276943
20510,-1.707292,-1.663210,6.921969,2.415135,-0.069232,1.097075
20511,-0.493286,0.843849,8.278971,1.779965,-0.007181,0.774919
20512,0.971159,3.653747,12.278051,0.003886,0.399761,0.546284
20513,0.922280,2.785754,12.662821,-2.927681,0.992360,0.546849
20514,-0.489884,-1.115492,10.891613,-5.144569,1.233374,0.716372
20515,-1.444624,-6.253330,8.086882,-6.730574,1.317591,0.881090
20516,-2.854586,-13.410976,3.468234,-6.143503,1.169186,0.907749
20517,-4.012718,-18.263980,4.103510,-2.963015,0.312170,1.078930
20518,-2.791788,-19.497298,5.025869,-0.122191,-0.335421,1.166949
20519,-0.079630,-17.236984,6.419057,2.933037,-0.868842,1.314083
20520,1.105891,-13.337098,6.767079,4.831048,-0.937697,1.545238
20521,-0.030469,-9.833398,5.480413,5.666767,-1.084283,1.909379
20522,0.507503,-7.007977,5.588841,6.022792,-1.373670,2.275420
20523,1.978075,-3.234725,8.066338,6.189104,-1.508071,2.487371
20524,3.030235,1.080023,11.995768,5.110062,-1.129900,2.564802
20525,2.206536,2.966120,13.257196,2.724985,-0.278295,2.497196
20526,0.218994,1.195308,10.071900,0.855041,0.240092,2.455607
20527,-0.717847,-0.753651,7.704828,-0.317834,0.430693,2.295181
20528,-0.720032,-0.434152,6.410040,-0.634400,0.442865,1.972232
20529,-0.283188,0.661241,7.199990,-1.168742,0.521227,1.802714
20530,-0.136651,-0.547058,7.418096,-1.940208,0.681929,1.811200
20531,-0.639991,-3.419125,6.854677,-2.766261,0.810436,1.938385
20532,-2.270935,-7.472968,4.547174,-2.924273,0.756372,2.111070
20533,-3.915691,-10.683281,4.707504,-1.485119,0.118085,2.318576
20534,-3.134425,-10.596534,6.767819,0.041763,-0.619766,2.485049
20535,-1.361343,-9.334062,7.349060,1.117926,-1.089670,2.637849
20536,0.231977,-7.386128,8.010935,2.112091,-1.473054,2.830232
20537,1.307426,-5.216214,9.050741,2.840302,-1.623514,3.029689
20538,1.421420,-2.407873,12.187233,3.714113,-1.535001,3.152957
20539,1.085978,0.873941,15.336309,3.414443,-0.974439,3.112259
20540,-0.108928,1.875473,15.198478,2.276562,-0.185805,2.966096
20541,-0.978053,0.179301,12.087077,1.399982,0.383792,2.754196
20542,0.259060,1.025309,10.014069,1.295755,0.941645,2.158082
20543,0.827221,5.568074,10.331402,1.135794,1.520637,1.498242
20544,0.494283,9.408834,12.329139,0.064661,2.119127,1.047688
20545,-0.103871,9.461785,13.179115,-1.989176,2.676979,0.855166
20546,-1.602004,6.453583,10.290312,-4.233537,2.938904,0.861856
20547,-3.452584,2.262045,6.634025,-5.984491,2.908696,0.985855
20548,-5.254166,-2.072934,2.889981,-7.133506,2.701591,1.132886
20549,-6.696977,-7.570465,1.113731,-6.519856,2.032402,1.300582
20550,-7.150970,-10.934184,4.122227,-4.336187,0.804460,1.572135
20551,-5.447900,-12.439834,4.403118,-2.463016,-0.153580,1.709309
20552,-3.567945,-12.008896,5.092847,-0.009917,-0.896202,1.872590
20553,-2.461854,-9.328876,6.090545,1.879504,-1.449059,2.047402
20554,-2.621226,-6.213844,5.814419,3.051313,-1.817297,2.230698
20555,-2.976919,-2.944712,5.898360,3.645770,-2.165289,2.448911
20556,-2.444861,-0.174329,7.945410,3.809340,-2.387156,2.581473
20557,-0.876461,1.294271,11.612691,3.117846,-2.015298,2.530316
20558,-0.290948,0.984289,12.367765,1.947158,-1.310675,2.400932
20559,-0.859116,-0.070771,10.268568,1.368971,-0.811706,2.250045
20560,-0.763266,0.828334,9.546762,1.341959,-0.345289,1.930087
20561,-0.801219,3.711271,10.743634,1.195988,0.152309,1.559897
20562,-0.369315,6.118728,12.548460,0.265262,0.655800,1.308483
20563,-0.211896,6.041438,13.096115,-1.482203,1.288577,1.179196
20564,-1.653141,3.522403,10.852827,-3.243418,1.745170,1.169195
20565,-3.900486,-0.112245,7.350034,-4.708829,1.933684,1.238105
20566,-6.392109,-4.166550,2.515463,-5.550833,1.780733,1.396113
20567,-8.311811,-8.876464,0.619297,-4.481537,0.938497,1.600278
20568,-7.607569,-10.532889,4.211407,-2.610068,-0.168494,1.853465
20569,-5.202567,-10.643929,6.898320,-1.179709,-0.804390,1.960353
20570,-3.382451,-9.779026,7.161370,0.209250,-1.362912,2.166047
20571,-3.534256,-7.585886,6.352167,1.258585,-1.790776,2.436522
20572,-4.234139,-4.743366,6.335823,2.012648,-2.241227,2.680865
20573,-3.539054,-2.530728,8.534712,2.634355,-2.483117,2.830833
20574,-2.267541,0.011377,12.732409,2.910849,-2.421961,2.839097
20575,-1.577515,2.186047,15.754914,1.824500,-1.749134,2.769982
20576,-2.652187,0.593339,12.922788,0.632925,-1.083696,2.711809
20577,-2.935927,-0.982962,9.896049,0.522080,-0.754164,2.570652
20578,-1.368908,0.269824,9.963226,1.280035,-0.263878,2.092469
20579,-0.017842,3.376832,11.342954,1.686878,0.390198,1.634025
20580,0.569742,7.303250,13.476186,1.505816,1.001503,1.379152
20581,0.034714,9.969707,15.244406,-0.218733,1.863033,1.159352
20582,-2.263558,7.643908,12.111586,-2.269712,2.538190,1.012184
20583,-4.760312,3.505837,7.759104,-3.987757,2.720107,1.008428
20584,-6.438414,-1.649634,3.161467,-4.998567,2.583902,1.145333
20585,-7.457161,-6.613962,1.624390,-4.129637,1.899550,1.202790
20586,-7.282191,-8.387644,3.513030,-2.478744,0.846458,1.477075
20587,-6.101731,-8.546046,5.564220,-1.321406,0.084508,1.612179
20588,-4.556919,-8.284553,5.743359,-0.057075,-0.669674,1.834258
20589,-3.401825,-6.246413,6.207678,1.004018,-1.240842,2.132903
20590,-3.514507,-3.535824,6.660433,1.564493,-1.629844,2.386060
20591,-3.479630,-1.003224,8.067619,1.996431,-1.913431,2.550248
20592,-2.956373,1.799978,10.904756,1.939689,-1.983391,2.581330
20593,-2.121905,3.622764,13.232958,0.830711,-1.536023,2.514805
20594,-2.383713,2.183093,11.867008,-0.068213,-1.127866,2.497675
20595,-2.591799,0.948793,10.109912,-0.282927,-0.805588,2.334231
20596,-1.775538,0.980285,10.099884,0.130865,-0.339675,1.972021
20597,-0.765411,2.041313,11.271395,0.610645,0.227453,1.619995
20598,-0.344552,4.034165,12.880387,0.912132,0.787636,1.387339
20599,-0.467268,6.345389,14.506742,0.312531,1.460543,1.171651
20600,-1.843974,6.435616,12.377104,-1.065608,2.155345,0.962529
20601,-3.848553,4.741899,8.958616,-2.233762,2.481638,0.872270
20602,-5.619934,1.787521,4.494408,-3.543908,2.545543,0.947459
20603,-7.354327,-2.926454,0.019444,-4.213347,2.348183,1.119498
20604,-7.600990,-8.555039,-0.107157,-3.205207,1.625823,1.237493
20605,-6.796717,-10.295761,3.205713,-1.787229,0.732040,1.640271
20606,-6.028606,-9.644988,6.330947,-0.809014,0.045192,1.885513
20607,-4.809866,-8.297964,6.847921,0.015815,-0.789559,2.269820
20608,-3.875640,-5.571312,6.446324,0.482092,-1.344166,2.650851
20609,-4.378298,-2.970383,6.044519,0.407195,-1.719223,2.993838
20610,-4.496657,-0.940306,6.299640,0.406925,-2.134068,3.218869
20611,-3.385559,1.024160,8.442564,0.501767,-2.332541,3.331977
20612,-2.113231,2.315661,12.200709,0.015478,-2.110637,3.388100
20613,-1.817971,0.115136,12.993440,-0.693715,-1.663351,3.464387
20614,-1.753097,-2.933503,12.863615,-0.563164,-1.330349,3.506957
20615,-1.673827,-2.356860,12.497374,0.582336,-1.018504,3.241271
20616,-1.048281,2.455153,12.879889,2.018591,-0.678817,2.821481
20617,-0.093335,8.609819,14.807495,2.538712,-0.093955,2.469797
20618,0.784723,13.054303,16.849330,1.607235,0.860167,2.011513
20619,0.092545,14.100384,16.960978,0.268868,1.795949,1.538758
20620,-1.406439,11.336279,14.961155,-1.086578,2.558675,1.090875
20621,-3.119688,7.760383,10.500605,-2.061186,2.992126,0.777386
20622,-4.922377,4.634361,6.764091,-2.523883,3.109297,0.640950
20623,-6.519759,1.689243,3.697981,-2.879111,2.967366,0.727051
20624,-7.980353,-1.379885,1.435168,-2.705067,2.549334,0.869295
20625,-9.082652,-3.607524,1.716356,-1.868043,1.796336,1.004040
20626,-9.671152,-4.989722,4.070417,-0.998839,0.783376,1.159748
20627,-7.929889,-6.966099,4.105418,-0.434382,-0.343629,1.483225
20628,-5.983832,-7.484030,2.914465,0.219071,-1.199320,1.971137
20629,-6.411711,-4.988735,1.750366,0.713665,-2.015598,2.392937
20630,-6.417438,-0.925820,1.206622,1.135813,-2.876707,2.682141
20631,-4.591992,2.361365,3.610445,1.540932,-3.437487,2.774142
20632,-1.558929,4.095876,8.398129,1.003546,-3.454234,2.835106
20633,0.689132,3.883511,11.702251,0.297405,-3.039703,2.787411
20634,2.015118,4.114440,14.518081,0.581101,-2.545388,2.554857
20635,2.344913,6.346083,17.003166,1.019345,-1.867792,2.180216
20636,2.297695,8.642661,17.920564,1.257294,-1.011439,1.701223
20637,2.310415,10.236323,18.229482,1.331015,-0.086237,1.133612
20638,1.968067,11.185979,17.925742,1.125369,0.846934,0.492188
20639,1.239396,10.647000,16.164275,0.628540,1.738814,-0.116981
20640,0.034351,8.383684,12.750498,-0.037252,2.469113,-0.584239
20641,-1.496231,5.098427,9.137913,-0.623358,2.895038,-0.810771
20642,-2.951941,1.841692,6.047741,-1.156460,2.982711,-0.749292
20643,-4.809621,-1.308901,3.084208,-1.662337,2.828254,-0.512268
20644,-7.109369,-5.068736,-0.465974,-1.689712,2.300728,-0.211309
20645,-8.792598,-7.157441,-0.541260,-0.487800,1.143143,0.300045
20646,-8.517606,-6.246603,0.521544,0.286289,-0.070690,0.839277
20647,-6.618129,-4.159379,1.274696,0.778179,-1.026849,1.307049
20648,-4.840589,-1.386668,2.956423,1.069484,-1.700235,1.700976
20649,-3.764197,1.352263,4.357641,0.762484,-2.081328,1.951078
20650,-3.018604,3.496372,5.420943,0.152668,-2.250425,2.029185
20651,-1.832818,4.526212,7.711617,-0.534538,-2.215801,1.997637
20652,-0.509981,4.383877,9.881340,-1.044767,-2.016859,1.843971
20653,0.699333,4.019621,12.049946,-0.896557,-1.705081,1.595522
20654,1.166242,5.084506,13.438048,-0.398486,-1.293599,1.259171
20655,1.191847,6.893277,13.887138,0.081482,-0.785839,0.835262
20656,1.123024,8.721066,14.158320,0.424569,-0.204134,0.335084
20657,1.151552,9.848027,14.400057,0.369923,0.418911,-0.198038
20658,0.918631,9.794416,12.954857,-0.000994,1.023827,-0.724004
20659,-0.066279,9.198327,10.933547,-0.471413,1.510080,-1.167217
20660,-1.342211,7.452866,8.080335,-1.195309,1.796162,-1.438415
20661,-2.739230,4.960130,5.688646,-1.813827,1.884574,-1.469344
20662,-4.535655,2.129905,4.051315,-2.351048,1.816311,-1.352976
20663,-6.692329,-1.168342,2.152655,-2.602756,1.577924,-1.155655
20664,-8.601273,-4.426795,1.036563,-2.060904,1.024390,-0.968782
20665,-9.129156,-5.406875,1.043427,-0.987130,0.054358,-0.698263
20666,-7.744569,-3.597684,2.181144,-0.195444,-0.874370,-0.411606
20667,-5.920179,-1.228233,3.002817,0.065057,-1.513084,-0.147839
20668,-4.642406,0.986008,4.287978,0.074160,-1.935214,0.079056
20669,-3.797458,3.002365,5.924956,-0.101332,-2.250937,0.185252
20670,-2.637498,3.909723,7.629476,-0.376920,-2.348633,0.183915
20671,-1.408982,4.271200,9.898117,-0.292396,-2.267876,0.039233
20672,-0.534085,5.111673,11.483596,-0.217735,-2.057717,-0.228929
20673,0.388176,6.542041,12.287643,-0.025785,-1.741529,-0.620530
20674,1.643180,8.909816,13.534363,0.138988,-1.254585,-1.234581
20675,2.334226,10.865201,14.249363,-0.067977,-0.578862,-1.953684
20676,2.561312,11.652092,13.951151,-0.414499,0.019247,-2.604342
20677,2.692304,11.575260,13.261734,-0.925924,0.571477,-3.202508
20678,2.605038,10.002966,12.494879,-1.554103,1.103572,-3.713516
20679,2.236368,7.431126,11.151236,-2.189860,1.565893,-4.136296
20680,1.561561,4.667818,8.478962,-2.780831,1.893550,-4.416679
20681,0.433392,2.063235,5.523151,-3.264111,2.031233,-4.512411
20682,-1.014212,-0.751726,2.598731,-3.690590,1.982026,-4.455254
20683,-2.462121,-4.254969,0.111898,-3.815444,1.695621,-4.324743
20684,-3.643452,-6.374031,-0.455640,-3.474711,0.994820,-4.082873
20685,-4.027916,-6.530660,2.609378,-3.056549,0.317484,-3.940458
20686,-3.254504,-7.640947,5.035686,-2.805222,-0.237001,-3.759042
20687,-2.005837,-8.972156,5.961956,-2.031182,-0.948569,-3.445920
20688,-0.989830,-8.589246,6.964437,-1.015684,-1.453560,-3.105167
20689,-1.750954,-6.681236,7.959054,-0.308481,-1.804856,-2.811505
20690,-2.009014,-4.843027,8.509891,0.077483,-2.165323,-2.584777
20691,-1.543515,-2.823457,9.028420,0.130641,-2.390514,-2.491615
20692,-0.215117,-2.089138,10.305093,-0.149736,-2.284779,-2.468713
20693,0.718203,-3.053096,10.598535,-0.654938,-1.971606,-2.455770
20694,1.537990,-4.871817,10.407315,-0.819908,-1.584571,-2.477407
20695,2.081085,-4.908596,10.669054,-0.344934,-1.165063,-2.700489
20696,1.990773,-2.469045,11.107368,0.166715,-0.779221,-2.952682
20697,2.021169,0.482351,12.346083,0.117339,-0.439146,-3.063971
20698,2.679778,2.657315,13.651978,-0.987775,0.125920,-3.176709
20699,2.834347,2.107538,12.677938,-2.654241,0.825836,-3.316743
20700,2.056528,-0.482909,10.405114,-3.983188,1.322694,-3.373902
20701,1.368509,-3.501931,7.279315,-5.156982,1.655956,-3.356173
20702,0.320731,-7.457657,2.125593,-5.791809,1.845471,-3.276085
20703,-1.483078,-12.215984,-1.635738,-4.673238,1.397220,-3.200038
20704,-2.362639,-14.074514,-0.136636,-2.964256,0.432627,-2.907192
20705,-0.993359,-13.725590,4.305466,-1.493300,-0.239902,-2.854437
20706,0.469173,-11.813217,8.455780,-0.246044,-0.772645,-2.816642
20707,2.404316,-10.229099,9.194437,0.467339,-1.267901,-2.650910
20708,2.914340,-8.675637,8.265089,0.823498,-1.501260,-2.383571
20709,1.623646,-6.840997,7.564877,0.907539,-1.754731,-2.134103
20710,1.466983,-5.599608,8.376143,0.763684,-1.965863,-2.024225
20711,2.206997,-3.896303,9.266017,0.442726,-2.061769,-2.018589
20712,3.036889,-1.501350,10.316605,-0.224546,-1.987512,-2.091899
20713,3.917670,-0.822383,9.283096,-1.613525,-1.490985,-2.233107
20714,4.349170,-2.695602,6.588954,-2.408390,-1.020763,-2.341898
20715,5.215082,-5.504716,4.726617,-2.807888,-0.529293,-2.398495
20716,6.069464,-8.051247,4.107859,-2.342770,-0.061026,-2.519254
20717,5.921254,-6.986438,6.399729,-1.368153,0.197238,-2.648955
20718,5.700606,-4.298162,8.664988,-1.267676,0.566712,-2.745279
20719,5.788375,-2.155551,9.610049,-2.246879,0.996034,-2.796017
20720,5.424412,-1.869984,6.559097,-4.020287,1.387848,-2.809598
20721,4.309232,-3.793071,1.509862,-5.669246,1.523173,-2.689670
20722,3.160599,-8.887214,-2.998916,-6.357103,1.501033,-2.626918
20723,2.457152,-15.301485,-3.169103,-4.979465,0.964179,-2.675249
20724,2.257908,-17.022893,1.561510,-2.584464,0.038717,-2.651226
20725,4.120244,-17.257802,5.464759,-0.705490,-0.522293,-2.677054
20726,6.149867,-15.507169,7.344462,1.155048,-0.972124,-2.549155
20727,6.621179,-11.859129,6.576675,2.267963,-1.228742,-2.308589
20728,5.272922,-8.549157,5.610267,2.652248,-1.478610,-2.063093
20729,4.615951,-6.179033,5.830433,2.642053,-1.730369,-1.895671
20730,4.798573,-3.903648,6.932737,2.347338,-1.842927,-1.896088
20731,5.747679,-1.799269,8.167530,1.605591,-1.752147,-1.997646
20732,6.608793,-1.644666,7.460832,0.107048,-1.298979,-2.041068
20733,6.766253,-3.164055,5.042051,-0.823158,-0.926636,-2.106572
20734,7.072478,-4.073508,3.489155,-1.360897,-0.582663,-2.212902
20735,7.338635,-4.337372,3.317854,-1.659412,-0.261142,-2.375584
20736,7.811168,-3.113507,5.217002,-1.989150,0.000939,-2.490248
20737,8.560029,-1.718352,6.650617,-2.890508,0.305217,-2.503760
20738,9.042622,-1.980599,6.116029,-4.404336,0.654710,-2.411343
20739,8.729918,-4.753515,2.230931,-5.912069,0.917821,-2.292617
20740,7.270982,-10.155511,-3.722692,-6.514329,1.072242,-2.126723
20741,5.490526,-16.086217,-3.205906,-4.513182,0.554324,-2.145467
20742,5.793465,-17.036313,2.428580,-1.959199,-0.286191,-2.113549
20743,7.446154,-15.950380,6.160025,0.042278,-0.636226,-2.143785
20744,9.188451,-13.431057,6.485234,1.903594,-1.007552,-1.967250
20745,9.275195,-9.528550,5.580165,3.030875,-1.142247,-1.735306
20746,7.655482,-6.102697,4.245950,3.159858,-1.300602,-1.459194
20747,7.210205,-4.227424,4.333259,2.862466,-1.510020,-1.245305
20748,8.360253,-3.966951,5.926000,2.118548,-1.442010,-1.158637
20749,9.411605,-3.864726,7.467446,1.243157,-1.242695,-1.122638
20750,9.295823,-2.932430,6.533297,0.302888,-0.969842,-1.181117
20751,8.709146,-1.529074,4.005369,-0.475624,-0.701276,-1.278750
20752,7.513679,-0.806090,0.919625,-1.287048,-0.381555,-1.378040
20753,6.838238,-2.234105,-0.418230,-1.746243,-0.176769,-1.468835
20754,7.163601,-3.396812,1.106819,-1.835176,-0.117493,-1.581105
20755,8.166394,-2.964486,2.807240,-2.159515,-0.031787,-1.675613
20756,8.806050,-2.832157,3.522872,-2.790554,0.142964,-1.699875
20757,9.039021,-4.380858,2.706891,-3.458343,0.302474,-1.671122
20758,8.728171,-7.717596,0.362784,-3.756715,0.393147,-1.615905
20759,8.051810,-11.793551,0.062602,-2.661847,0.274668,-1.661034
20760,7.781182,-12.751697,3.442007,-0.491256,-0.258282,-1.757586
20761,8.635234,-11.874148,6.267691,1.151465,-0.599114,-1.768409
20762,9.467315,-9.746630,6.084844,2.627442,-0.895758,-1.655755
20763,9.283569,-6.461060,5.389742,3.550295,-1.066523,-1.458155
20764,8.640935,-3.449486,5.128710,3.657509,-1.189382,-1.238636
20765,9.082689,-0.777137,6.032826,3.251975,-1.207272,-1.069868
20766,9.956172,1.092126,7.172747,1.862753,-0.958829,-0.968710
20767,10.394448,1.463350,4.872183,0.092005,-0.711144,-0.962999
20768,10.469925,1.184078,1.263078,-1.268969,-0.484163,-1.093927
20769,10.300692,-0.330914,-0.806615,-1.970673,-0.214468,-1.165795
20770,10.137064,-1.968208,0.341836,-2.173572,-0.040479,-1.157230
20771,10.337854,-2.985403,1.856155,-2.423271,0.114009,-1.115670
20772,10.040958,-3.391431,2.811298,-2.610791,0.239006,-1.028996
20773,9.288345,-3.622330,2.924636,-2.808520,0.280358,-0.934121
20774,8.614940,-4.468440,2.333543,-2.876684,0.270673,-0.836909
20775,8.378837,-5.892626,2.776515,-2.437563,0.202370,-0.818900
20776,8.485153,-6.391805,3.893951,-1.698030,0.035672,-0.838432
20777,8.764743,-6.251136,4.532980,-1.051552,-0.077165,-0.834646
20778,8.971690,-5.908704,4.177251,-0.441808,-0.179433,-0.799081
20779,8.965440,-5.460729,3.680728,0.062440,-0.245664,-0.750531
20780,8.870148,-4.884415,3.303172,0.445758,-0.320595,-0.704581
20781,9.080650,-4.417730,3.373680,0.665910,-0.364405,-0.683082
20782,9.374147,-4.233842,3.336095,0.757449,-0.354679,-0.662165
20783,9.558805,-3.957980,3.263185,0.807648,-0.332454,-0.625968
20784,9.640816,-3.589289,3.011903,0.746239,-0.302331,-0.593760
20785,9.547658,-3.242933,2.540641,0.635361,-0.266659,-0.565363
20786,9.563088,-3.139206,2.288840,0.526741,-0.241872,-0.533705
20787,9.721635,-3.214307,2.165280,0.426268,-0.215031,-0.488210
20788,9.848599,-3.322735,2.324852,0.354800,-0.186487,-0.432404
20789,9.936603,-3.187282,2.443609,0.253877,-0.145704,-0.366223
20790,9.890207,-3.057944,2.500436,0.113061,-0.102351,-0.290591
20791,9.752729,-3.016167,2.623428,-0.008596,-0.065159,-0.214419
20792,9.604165,-2.913165,2.756301,-0.129519,-0.033902,-0.145816
20793,9.510539,-2.857144,2.958518,-0.241761,-0.009969,-0.076622
20794,9.464397,-2.755791,2.976930,-0.376877,0.022254,-0.004134
20795,9.439020,-2.718570,2.981407,-0.508586,0.044212,0.065244
20796,9.373766,-2.738625,2.887571,-0.657218,0.074620,0.119898
20797,9.316587,-2.835204,2.814917,-0.774228,0.093403,0.174442
20798,9.311968,-2.899136,2.646220,-0.858684,0.103503,0.208141
20799,9.261795,-3.018866,2.517011,-0.910685,0.115864,0.239875
20800,9.224806,-3.232060,2.529115,-0.921139,0.121595,0.275184
20801,9.271851,-3.370436,2.442591,-0.897914,0.125053,0.303497
20802,9.252459,-3.320362,2.420750,-0.844194,0.126314,0.325895
20803,9.286467,-3.229707,2.276791,-0.765233,0.125109,0.341919
20804,9.323126,-3.164736,2.224276,-0.686793,0.124700,0.364332
20805,9.340096,-3.148498,2.160474,-0.611933,0.129313,0.388250
20806,9.279172,-3.165695,2.035167,-0.532189,0.125130,0.407811
20807,9.311118,-3.188707,2.079967,-0.446777,0.118294,0.430841
20808,9.348263,-3.182900,2.178265,-0.378130,0.114644,0.450052
20809,9.379829,-3.238351,2.313590,-0.323129,0.115455,0.474287
20810,9.346731,-3.238453,2.471152,-0.274056,0.117187,0.498490
20811,9.381430,-3.238857,2.574674,-0.240287,0.108244,0.523217
20812,9.420051,-3.181298,2.610165,-0.215850,0.109997,0.534534
20813,9.337478,-3.178519,2.635077,-0.176448,0.112772,0.541486
20814,9.316955,-3.132731,2.641414,-0.140923,0.106112,0.545242
20815,9.257151,-3.150300,2.597891,-0.100605,0.107124,0.544205
20816,9.176536,-3.112043,2.539891,-0.055994,0.103571,0.536837
20817,9.099678,-3.141816,2.464162,-0.009175,0.093236,0.526224
20818,9.040693,-3.150860,2.388580,0.053561,0.081048,0.510049
20819,9.048822,-3.116923,2.363132,0.114818,0.059430,0.484815
20820,9.050433,-3.107491,2.251603,0.188454,0.044787,0.454972
20821,9.086457,-3.090076,2.226295,0.261338,0.034642,0.421933
20822,9.093854,-3.073414,2.185991,0.328308,0.026423,0.390918
20823,9.092599,-3.040843,2.198819,0.382693,0.017208,0.358307
20824,9.043597,-2.954481,2.179166,0.418097,0.007890,0.320315
20825,8.993844,-2.792974,2.106558,0.436381,-0.004173,0.280873
20826,9.016902,-2.731585,2.150696,0.440136,-0.017400,0.247330
20827,8.993305,-2.759922,2.161880,0.434697,-0.019462,0.216711
20828,9.042207,-2.789304,2.187196,0.422974,-0.026873,0.188699
20829,8.987794,-2.747284,2.128119,0.405290,-0.027855,0.161005
20830,8.965084,-2.627684,2.099289,0.376385,-0.033688,0.138856
20831,8.962440,-2.631671,2.105574,0.339361,-0.036054,0.117990
20832,8.977299,-2.689649,2.094668,0.304724,-0.033536,0.100530
20833,9.035203,-2.754283,2.116582,0.273673,-0.030218,0.084559
20834,8.974150,-2.693134,2.103665,0.242713,-0.033867,0.064054
20835,8.963927,-2.725647,2.021907,0.218317,-0.036458,0.042788
20836,8.978135,-2.805415,2.096027,0.202675,-0.041099,0.026146
20837,8.973645,-2.901823,2.136739,0.189704,-0.043176,0.010049
20838,8.987085,-2.909651,2.155582,0.194467,-0.046510,-0.008163
20839,8.951153,-2.868455,2.104619,0.184576,-0.054419,-0.028902
20840,8.925564,-2.840682,2.000884,0.176503,-0.064996,-0.054560
20841,8.896211,-2.909502,1.935586,0.176063,-0.079615,-0.085047
20842,8.934863,-3.007245,1.902266,0.190597,-0.106072,-0.124893
20843,9.024983,-3.077433,1.916478,0.204838,-0.115317,-0.168519
20844,9.097188,-3.184493,2.020631,0.233122,-0.119579,-0.202419
20845,9.152305,-3.234535,2.105790,0.231919,-0.120869,-0.227612
20846,9.108284,-3.210656,2.208960,0.215502,-0.113200,-0.240975
20847,9.059671,-3.120633,2.221472,0.167215,-0.103313,-0.250557
20848,9.015330,-3.003703,2.213284,0.099350,-0.099379,-0.246035
20849,9.045843,-3.103831,2.248072,0.028236,-0.093326,-0.227546
20850,9.099811,-3.160163,2.294393,-0.027140,-0.088489,-0.194977
20851,9.137330,-3.235380,2.375810,-0.080893,-0.082114,-0.160293
