// Start Time: Unknown
// Update Rate: 100.0Hz
// Filter Profile: human (46.1)
// Firmware Version: 4.3.5
PacketCounter,Acc_X,Acc_Y,Acc_Z,Gyr_X,Gyr_Y,Gyr_Z
25889,9.765949,-1.401467,1.545461,-0.042990,-0.015560,0.095562
25890,9.777559,-1.430480,1.506892,-0.038226,-0.022586,0.120828
25891,9.793227,-1.546060,1.493863,-0.040526,-0.033344,0.151450
25892,9.800651,-1.604435,1.447129,-0.032169,-0.046480,0.187441
25893,9.868866,-1.624728,1.499515,-0.018867,-0.053481,0.224980
25894,9.868892,-1.571683,1.489870,-0.007305,-0.056394,0.257296
25895,9.870338,-1.463298,1.550645,-0.015838,-0.060659,0.274809
25896,9.920364,-1.447979,1.540965,-0.048393,-0.059219,0.292212
25897,9.827899,-1.502862,1.581787,-0.082144,-0.051803,0.307056
25898,9.853664,-1.597904,1.599745,-0.135464,-0.048151,0.325249
25899,9.787644,-1.723657,1.583791,-0.179496,-0.038343,0.351125
25900,9.785072,-1.934213,1.546722,-0.224197,-0.051324,0.374468
25901,9.910741,-2.222129,1.603074,-0.240994,-0.060232,0.419137
25902,9.981823,-2.590148,1.675884,-0.239115,-0.068932,0.484106
25903,10.087208,-2.824716,1.673366,-0.212557,-0.086892,0.562330
25904,10.072301,-2.973696,1.682966,-0.194189,-0.105223,0.652422
25905,10.057825,-3.109089,1.696968,-0.182783,-0.127771,0.757117
25906,10.024731,-3.324099,1.689878,-0.176833,-0.134953,0.863243
25907,9.987883,-3.546386,1.762599,-0.162621,-0.145189,0.961174
25908,10.011011,-3.691934,1.844368,-0.146593,-0.158184,1.059201
25909,9.985973,-3.884377,1.816889,-0.156806,-0.162456,1.142375
25910,10.043212,-4.024498,1.864115,-0.177896,-0.171237,1.217038
25911,10.035359,-4.214064,1.831485,-0.206676,-0.171024,1.281130
25912,10.028648,-4.480383,1.850500,-0.215435,-0.163489,1.334401
25913,9.892374,-4.650511,1.917947,-0.198062,-0.143698,1.368714
25914,9.695785,-4.836047,1.917287,-0.168788,-0.124173,1.414532
25915,9.539684,-5.071491,1.859255,-0.144000,-0.107010,1.468941
25916,9.444915,-5.333221,1.719513,-0.110436,-0.102007,1.532898
25917,9.405646,-5.645168,1.572227,-0.059010,-0.095331,1.588885
25918,9.385606,-5.945532,1.426601,-0.001690,-0.092344,1.650884
25919,9.428452,-6.197939,1.369829,0.086188,-0.092496,1.711569
25920,9.471131,-6.516407,1.319717,0.209538,-0.092289,1.762501
25921,9.542840,-6.713857,1.352312,0.385739,-0.059567,1.798010
25922,9.458462,-6.613018,1.455798,0.554131,-0.028121,1.826501
25923,9.298692,-6.459255,1.528702,0.682495,-0.005937,1.847030
25924,9.171278,-6.308555,1.679442,0.747910,0.019209,1.879449
25925,9.033541,-6.230417,1.723362,0.738036,0.045051,1.920993
25926,8.883498,-6.275828,1.718632,0.690749,0.060035,1.971264
25927,8.736414,-6.502542,1.718449,0.628571,0.073217,2.016530
25928,8.584895,-6.824873,1.626209,0.595868,0.083554,2.059353
25929,8.536979,-7.142471,1.678250,0.607065,0.099993,2.087848
25930,8.468518,-7.235015,1.694015,0.633903,0.120524,2.113692
25931,8.421855,-7.049254,1.738471,0.631940,0.151438,2.132030
25932,8.310178,-6.759286,1.805810,0.562742,0.176028,2.157673
25933,8.194402,-6.649832,1.876733,0.424417,0.179392,2.188880
25934,8.185910,-6.839545,1.916534,0.285224,0.186313,2.217063
25935,8.151017,-7.291744,1.881553,0.189391,0.202490,2.237805
25936,8.000920,-7.778001,1.897156,0.170067,0.219963,2.245660
25937,7.774668,-8.209772,1.915629,0.224566,0.234347,2.255661
25938,7.671803,-8.442565,1.897821,0.313395,0.246365,2.242912
25939,7.645662,-8.531913,1.962585,0.396407,0.265681,2.243764
25940,7.561756,-8.397316,2.069662,0.429583,0.275075,2.240758
25941,7.400578,-8.173592,2.188142,0.413983,0.292930,2.234058
25942,7.198066,-8.231103,2.330088,0.363347,0.303231,2.227843
25943,7.019242,-8.520236,2.407563,0.323070,0.317870,2.223206
25944,6.818568,-8.959065,2.403764,0.325160,0.323034,2.216095
25945,6.661769,-9.298661,2.385865,0.384250,0.327862,2.199379
25946,6.593664,-9.373172,2.442815,0.464426,0.339153,2.175738
25947,6.520249,-9.370895,2.559553,0.529585,0.355188,2.155793
25948,6.343675,-9.383145,2.673914,0.586363,0.369582,2.124120
25949,6.122186,-9.484725,2.888498,0.656344,0.381037,2.082081
25950,5.870566,-9.545348,3.041675,0.731468,0.408250,2.036978
25951,5.586067,-9.507181,3.022795,0.820393,0.434385,1.965869
25952,5.351426,-9.362634,3.091445,0.879401,0.441936,1.898654
25953,5.316181,-9.172872,3.133231,0.881942,0.459853,1.843692
25954,5.360788,-8.995799,3.275253,0.838975,0.489351,1.785607
25955,5.337641,-8.971148,3.362637,0.753663,0.525028,1.728478
25956,5.312649,-8.974111,3.410600,0.654227,0.561280,1.678437
25957,5.127580,-8.992774,3.353560,0.564250,0.595778,1.625948
25958,4.951584,-9.056431,3.253065,0.501244,0.613213,1.574080
25959,4.806698,-9.140569,3.196792,0.467288,0.625296,1.518180
25960,4.572377,-9.270726,3.164414,0.469973,0.625379,1.458506
25961,4.526030,-9.378958,3.241444,0.517894,0.622509,1.397076
25962,4.517103,-9.356958,3.307954,0.590524,0.626494,1.328251
25963,4.615393,-9.296839,3.255776,0.686809,0.635529,1.265940
25964,4.610097,-9.181660,3.255378,0.788970,0.651820,1.195867
25965,4.548429,-9.136404,3.211165,0.882103,0.655613,1.132008
25966,4.431265,-9.071320,3.290303,0.956118,0.661226,1.069609
25967,4.379014,-8.854173,3.460072,1.003011,0.670587,1.007735
25968,4.353662,-8.547366,3.645735,1.007230,0.698054,0.951475
25969,4.353740,-8.297421,3.643871,0.975416,0.717164,0.898205
25970,4.235310,-8.045101,3.707230,0.933782,0.732853,0.843533
25971,4.079624,-7.852929,3.616499,0.875830,0.738999,0.797276
25972,3.955569,-7.858992,3.475239,0.817542,0.741945,0.747712
25973,3.815533,-7.873782,3.323140,0.796197,0.733228,0.705792
25974,3.728540,-7.900690,3.383737,0.811268,0.727052,0.658083
25975,3.809590,-7.718933,3.483295,0.864589,0.732856,0.603624
25976,3.750157,-7.580562,3.415000,0.941297,0.752801,0.546606
25977,3.524424,-7.436533,3.477416,1.011402,0.754322,0.480709
25978,3.222683,-7.312159,3.487182,1.073998,0.732461,0.416875
25979,3.072393,-7.313785,3.585314,1.128663,0.705909,0.359924
25980,2.987031,-7.242064,3.680174,1.179350,0.675378,0.313590
25981,2.949405,-7.181839,3.738759,1.239014,0.647592,0.278263
25982,2.980090,-6.980417,3.718271,1.318020,0.624063,0.246166
25983,2.933486,-6.797342,3.722618,1.400935,0.591740,0.218289
25984,2.928391,-6.478934,3.889812,1.464982,0.571082,0.201228
25985,2.807669,-6.344977,4.019124,1.481118,0.568529,0.184991
25986,2.578722,-6.398858,4.092238,1.490348,0.561716,0.167835
25987,2.328648,-6.546417,4.088836,1.557332,0.530073,0.146305
25988,2.164409,-6.637929,4.119204,1.679584,0.498326,0.096772
25989,1.911753,-6.793738,4.186754,1.844622,0.463685,0.050186
25990,1.974591,-6.690454,4.540049,2.046866,0.413777,0.014484
25991,2.199674,-6.425786,4.678955,2.237043,0.382793,-0.007895
25992,2.238914,-6.050695,4.701347,2.369879,0.369702,-0.009396
25993,1.989796,-5.755991,4.697097,2.464816,0.340581,-0.009559
25994,1.775976,-5.713175,4.622005,2.555826,0.303287,-0.010939
25995,1.603608,-6.061068,4.563092,2.737645,0.257854,-0.019125
25996,1.568037,-6.886278,4.468220,3.169731,0.217258,-0.050475
25997,1.637146,-7.993487,4.361569,3.897575,0.158403,-0.094173
25998,1.764871,-8.854614,4.103990,4.992015,0.083472,-0.158737
25999,1.873722,-8.611711,3.886324,6.187621,0.030972,-0.201862
26000,1.908000,-6.954555,4.277108,7.335377,0.046945,-0.262071
26001,1.960406,-5.061940,4.938937,8.068257,0.089798,-0.254664
26002,1.767367,-2.945661,5.519696,8.391031,0.140491,-0.208606
26003,1.308636,-0.848284,6.454068,8.266108,0.150321,-0.185146
26004,1.153974,0.892734,7.132001,7.805057,0.152073,-0.172320
26005,0.926464,1.863279,7.579765,7.143912,0.111368,-0.139445
26006,1.182876,2.451079,7.978562,6.424871,0.059042,-0.099620
26007,1.335183,3.168650,8.056309,5.594716,0.032074,-0.038961
26008,1.316306,3.511053,7.939287,4.742876,0.050636,0.026749
26009,1.133070,3.131372,7.749679,4.010195,0.059964,0.055485
26010,1.319514,2.001211,7.747085,3.596529,0.061545,0.071148
26011,1.554573,0.487315,7.618721,3.549946,0.076612,0.095142
26012,1.844087,-0.329303,7.559345,3.834327,0.084815,0.181147
26013,1.732924,0.138765,7.423878,4.247379,0.077159,0.308002
26014,1.655622,2.232986,7.004755,4.450357,0.042564,0.410267
26015,1.286436,4.916757,6.876181,4.220636,0.000165,0.486862
26016,1.205721,6.224402,6.993045,3.568253,-0.021116,0.496552
26017,1.184479,5.727592,6.967400,2.908091,-0.033192,0.493317
26018,1.421314,4.143892,6.789783,2.582995,-0.071868,0.470795
26019,1.507523,3.172764,6.764499,2.694797,-0.095819,0.447129
26020,1.609387,3.263440,6.930309,2.955488,-0.149786,0.457647
26021,1.771709,4.420134,7.088382,3.129947,-0.173143,0.489239
26022,1.634849,6.305740,7.122005,2.991857,-0.173389,0.520894
26023,1.326636,7.720496,7.326379,2.518120,-0.150854,0.541340
26024,1.333983,7.977808,7.556717,1.917716,-0.120536,0.540758
26025,1.560031,7.288239,7.623146,1.448816,-0.108291,0.517719
26026,1.686071,6.131993,7.756342,1.266716,-0.102622,0.494263
26027,1.832525,5.733772,7.858914,1.351085,-0.103321,0.462738
26028,1.818719,6.688232,7.936452,1.445754,-0.110493,0.435377
26029,1.504102,8.261119,8.183764,1.280876,-0.105461,0.393804
26030,1.327146,9.597113,8.380952,0.795938,-0.077508,0.343071
26031,1.365516,9.456016,8.343802,0.215265,-0.050448,0.303629
26032,1.586394,8.594668,8.421665,-0.178970,-0.031108,0.274583
26033,1.762891,8.165225,8.565830,-0.403770,0.001605,0.231883
26034,1.677880,8.333020,8.719334,-0.567119,0.008853,0.170783
26035,1.686755,9.059883,8.957583,-0.858855,0.009547,0.110691
26036,1.664668,9.832701,9.161238,-1.394107,0.019370,0.049530
26037,1.679733,10.373545,9.109207,-2.160523,0.021192,0.003977
26038,1.711270,10.529557,9.441081,-3.096689,0.017361,-0.022434
26039,1.792934,10.483699,9.456098,-4.164469,0.025175,-0.039543
26040,1.595916,10.428693,9.106667,-5.252599,0.021735,-0.056356
26041,1.739896,9.971323,8.714170,-6.292071,0.028323,-0.098192
26042,2.081081,8.434160,8.926153,-7.173797,0.097761,-0.149065
26043,2.402034,6.627907,8.948584,-7.824291,0.204265,-0.179420
26044,2.247024,5.144178,8.646190,-8.170674,0.310505,-0.198935
26045,1.906388,3.876821,8.411063,-8.422501,0.372028,-0.204244
26046,1.895300,2.834353,8.006761,-8.593473,0.416915,-0.209566
26047,1.841978,1.935177,7.961266,-8.720739,0.487099,-0.246930
26048,1.552326,0.813163,7.889487,-8.776425,0.531784,-0.286496
26049,1.276470,-0.531063,7.581794,-8.682537,0.521850,-0.305224
26050,1.422734,-1.936890,7.075776,-8.452997,0.531099,-0.290652
26051,1.590705,-3.378699,6.388688,-8.056327,0.585762,-0.268499
26052,1.719181,-4.411888,6.335428,-7.536526,0.613591,-0.253466
26053,1.866589,-5.095039,6.339082,-7.071819,0.667100,-0.226604
26054,1.651307,-5.618024,6.047881,-6.617814,0.709923,-0.233813
26055,1.396968,-5.847063,6.240636,-6.204069,0.705166,-0.270992
26056,1.471778,-6.190557,6.172604,-5.867486,0.699872,-0.290073
26057,1.502963,-6.331747,6.086140,-5.645241,0.712231,-0.273652
26058,1.487534,-5.494465,5.728655,-5.545308,0.707572,-0.253907
26059,1.671345,-3.896775,5.262439,-5.790105,0.729722,-0.261463
26060,1.525421,-3.212585,4.374906,-6.298581,0.763525,-0.302628
26061,1.535957,-4.683226,3.360808,-6.738201,0.767315,-0.357774
26062,1.520674,-8.533379,2.311304,-6.674241,0.809107,-0.367848
26063,1.075558,-12.276437,1.573111,-5.768656,0.817118,-0.381265
26064,0.703541,-14.035955,1.123202,-4.344996,0.767015,-0.364671
26065,0.559480,-13.391941,1.155490,-2.943995,0.671684,-0.322606
26066,0.702662,-11.586706,1.411486,-1.933167,0.576814,-0.270269
26067,0.865582,-10.229195,1.773998,-1.373448,0.470335,-0.201990
26068,1.088768,-9.921574,1.959651,-1.092458,0.382348,-0.117762
26069,1.087324,-10.274574,1.886651,-0.881954,0.313117,-0.033111
26070,1.123383,-10.600447,1.745511,-0.653440,0.244034,0.043916
26071,1.122802,-10.411885,1.753377,-0.423594,0.176995,0.109147
26072,1.224568,-10.114268,1.956179,-0.262431,0.111598,0.168113
26073,1.406711,-9.850359,2.037749,-0.170275,0.067464,0.249679
26074,1.556498,-9.620982,2.131049,-0.140646,0.012633,0.348858
26075,1.610604,-9.438599,2.193706,-0.148471,-0.041470,0.462168
26076,1.667744,-9.253342,2.233625,-0.171334,-0.106319,0.587833
26077,1.874053,-8.984729,2.122718,-0.209762,-0.172634,0.729841
26078,1.961736,-8.776746,2.016384,-0.277337,-0.242897,0.855664
26079,1.908017,-8.791918,1.796411,-0.366035,-0.336426,0.978088
26080,1.956677,-8.860620,1.728465,-0.423402,-0.444182,1.105321
26081,2.148166,-8.887856,1.720800,-0.441412,-0.530733,1.236804
26082,2.280540,-8.784360,1.720339,-0.445845,-0.612321,1.367273
26083,2.252365,-8.840180,1.566183,-0.422278,-0.669180,1.453375
26084,2.034528,-8.966387,1.501175,-0.316902,-0.705469,1.528816
26085,1.897753,-9.059660,1.643420,-0.154593,-0.744685,1.565531
26086,1.874453,-9.273657,1.745836,0.045571,-0.771237,1.591966
26087,2.138073,-9.255668,1.873880,0.233819,-0.789362,1.625416
26088,2.696684,-8.747120,2.022684,0.382145,-0.801029,1.665329
26089,3.262503,-8.148159,2.240084,0.394388,-0.791454,1.725488
26090,3.208867,-7.758895,1.898284,0.311089,-0.752297,1.763255
26091,2.241399,-7.567565,1.479155,0.219680,-0.746150,1.722533
26092,0.978104,-7.789890,1.309685,0.176042,-0.788324,1.643180
26093,0.142043,-8.103497,1.201914,0.240230,-0.846346,1.527173
26094,0.132655,-8.226265,1.522736,0.377622,-0.903649,1.388109
26095,0.720271,-7.936301,1.960073,0.478582,-0.949097,1.270263
26096,1.563554,-7.489492,2.511630,0.478873,-0.959438,1.194949
26097,2.032661,-7.104054,2.834664,0.369687,-0.897547,1.125964
26098,1.660573,-6.888595,2.784972,0.236705,-0.809245,1.027734
26099,0.374460,-7.000379,2.474119,0.145222,-0.739795,0.897692
26100,-1.148377,-7.165272,2.153510,0.122370,-0.727949,0.750912
26101,-2.149169,-7.245303,1.908819,0.129529,-0.753699,0.571724
26102,-2.389845,-7.256566,1.742153,0.149680,-0.803176,0.378016
26103,-1.958365,-7.281289,1.856539,0.147426,-0.854038,0.174026
26104,-0.997871,-7.392397,2.327696,0.116167,-0.876368,-0.009902
26105,-0.178516,-7.559992,2.768719,0.075567,-0.840719,-0.166968
26106,0.272738,-7.638021,3.221486,0.021595,-0.788776,-0.325102
26107,0.065081,-7.481173,3.377953,-0.013298,-0.710990,-0.470549
26108,-0.769586,-7.292834,3.198022,-0.020310,-0.652416,-0.637154
26109,-1.414188,-7.182326,2.823375,-0.053813,-0.630998,-0.802095
26110,-1.964482,-7.309685,2.409003,-0.075175,-0.626029,-0.985949
26111,-2.206410,-7.747717,2.010024,-0.081248,-0.655554,-1.195552
26112,-2.106275,-7.900420,2.027188,-0.050546,-0.718434,-1.407724
26113,-1.553992,-7.780599,2.228911,-0.041830,-0.770984,-1.608466
26114,-0.831382,-7.592341,2.702020,-0.107520,-0.793666,-1.794406
26115,-0.169828,-7.540827,3.219955,-0.239228,-0.773767,-1.970689
26116,0.222742,-7.728381,3.228583,-0.377958,-0.758730,-2.126019
26117,0.484632,-8.080314,3.212214,-0.430450,-0.733947,-2.277187
26118,0.417885,-8.442397,3.205339,-0.376630,-0.670395,-2.415884
26119,-0.063127,-9.012836,2.871380,-0.215397,-0.631173,-2.533672
26120,-0.051695,-9.512341,2.726459,0.032424,-0.622415,-2.628328
26121,0.249407,-9.613213,2.652939,0.294830,-0.609838,-2.738147
26122,0.475221,-9.237834,2.763171,0.466735,-0.618569,-2.833090
26123,0.623295,-8.584719,3.014045,0.497648,-0.649589,-2.940695
26124,0.997058,-7.931246,3.271189,0.363421,-0.724577,-3.042175
26125,1.867809,-7.714099,3.782360,0.100607,-0.770711,-3.117715
26126,2.881635,-7.898136,4.199249,-0.226362,-0.753309,-3.148463
26127,3.550267,-8.212582,4.297942,-0.531809,-0.696059,-3.162693
26128,3.862962,-8.532284,4.066170,-0.753845,-0.620128,-3.193351
26129,3.934881,-8.832137,3.639132,-0.903844,-0.530142,-3.229974
26130,3.877085,-9.256524,3.108184,-0.969336,-0.464474,-3.263505
26131,3.962963,-9.774103,2.735482,-0.924560,-0.405661,-3.313168
26132,4.288604,-10.352517,2.610176,-0.843627,-0.378778,-3.349506
26133,4.740555,-10.661092,2.554713,-0.731123,-0.374866,-3.357857
26134,5.202951,-10.803295,2.464122,-0.655902,-0.390574,-3.346555
26135,5.514395,-10.787218,2.356076,-0.624881,-0.425098,-3.299549
26136,5.775355,-10.367240,2.434950,-0.618254,-0.476099,-3.230830
26137,5.806065,-9.905279,2.500081,-0.640380,-0.536142,-3.153656
26138,5.836678,-9.612913,2.519513,-0.644325,-0.611996,-3.092635
26139,6.043093,-9.523142,2.603721,-0.637713,-0.655480,-3.046172
26140,6.187690,-9.707610,2.658483,-0.551308,-0.662083,-3.007675
26141,6.386560,-10.297961,2.616524,-0.411864,-0.653169,-2.980178
26142,6.745569,-10.641947,2.552443,-0.185068,-0.633294,-2.935805
26143,6.979804,-10.345684,2.491212,0.073019,-0.596446,-2.890325
26144,7.147758,-9.614628,2.643814,0.258040,-0.577964,-2.836886
26145,7.347096,-8.886717,2.822209,0.315758,-0.573894,-2.762564
26146,7.557883,-8.429531,2.936003,0.248909,-0.546694,-2.653423
26147,7.594153,-8.104243,3.001610,0.140839,-0.506963,-2.555350
26148,7.439632,-7.994264,3.004626,0.011225,-0.472747,-2.462908
26149,7.437905,-7.924532,2.714203,-0.056054,-0.453947,-2.380650
26150,7.615003,-7.827143,2.682152,-0.092028,-0.436395,-2.332546
26151,7.938447,-7.557569,2.590198,-0.120644,-0.406721,-2.293866
26152,8.219024,-7.217273,2.391957,-0.142347,-0.380160,-2.248255
26153,8.590861,-6.918333,2.234593,-0.160279,-0.379035,-2.189116
26154,9.062540,-6.853466,2.268817,-0.200629,-0.351877,-2.101818
26155,9.254195,-6.869808,2.236207,-0.242583,-0.336248,-1.998965
26156,9.312850,-6.934817,2.221570,-0.280838,-0.308197,-1.895606
26157,9.367510,-6.899174,2.211398,-0.282503,-0.282560,-1.779684
26158,9.405310,-6.538296,2.217643,-0.259935,-0.253069,-1.689605
26159,9.405547,-6.089916,2.208281,-0.256408,-0.220392,-1.618672
26160,9.582922,-5.639165,2.258428,-0.275049,-0.180577,-1.569985
26161,9.570618,-5.105280,2.279290,-0.321057,-0.118180,-1.545988
26162,9.509631,-4.608784,2.255048,-0.393557,-0.046651,-1.542622
26163,9.535542,-4.393949,2.187935,-0.496793,0.016871,-1.530059
26164,9.542510,-4.269837,2.025651,-0.613721,0.080006,-1.509438
26165,9.642915,-4.211242,2.030614,-0.692525,0.138931,-1.480502
26166,9.686802,-4.054933,2.027717,-0.759022,0.176751,-1.447475
26167,9.858777,-3.895813,2.015170,-0.804983,0.194319,-1.397007
26168,10.055345,-3.722185,2.000254,-0.867920,0.216438,-1.338493
26169,10.159022,-3.589843,1.924186,-0.923322,0.233423,-1.269535
26170,10.216017,-3.599754,1.823010,-0.941773,0.239830,-1.196343
26171,10.134711,-3.637242,1.650673,-0.926430,0.242826,-1.124401
26172,10.116770,-3.635504,1.551013,-0.846559,0.228444,-1.065883
26173,10.146744,-3.579433,1.481146,-0.756302,0.209191,-1.009446
26174,10.217583,-3.521060,1.455575,-0.648841,0.206679,-0.955586
26175,10.283687,-3.452338,1.491423,-0.544417,0.188852,-0.904330
26176,10.448225,-3.468253,1.553307,-0.424612,0.185239,-0.850363
26177,10.435517,-3.274457,1.555121,-0.297009,0.192614,-0.796440
26178,10.283386,-2.999754,1.444164,-0.201739,0.190681,-0.745371
26179,10.171671,-2.671595,1.366792,-0.154490,0.185792,-0.695328
26180,10.106328,-2.480826,1.259206,-0.145094,0.182407,-0.647560
26181,10.006044,-2.339203,1.147259,-0.151521,0.166362,-0.602558
26182,10.083870,-2.260106,1.118881,-0.159964,0.148023,-0.555734
26183,10.217700,-2.173585,1.101222,-0.177190,0.135289,-0.504742
26184,10.316597,-2.154689,1.153570,-0.197354,0.128505,-0.447561
26185,10.206225,-2.073749,1.185027,-0.235094,0.113624,-0.379595
26186,10.025722,-2.030036,1.172581,-0.296843,0.088315,-0.305612
26187,9.909484,-2.059640,1.060610,-0.361701,0.047889,-0.210866
26188,9.959479,-2.084570,0.974833,-0.406873,0.010698,-0.125923
26189,10.067342,-1.909077,0.933836,-0.418000,-0.027864,-0.062759
26190,10.066946,-1.754579,1.108103,-0.431836,-0.052118,-0.028795
26191,10.055211,-1.707048,1.196609,-0.447275,-0.063051,-0.009768
26192,9.853080,-1.759592,1.204475,-0.433255,-0.067503,-0.016284
26193,9.785054,-1.930359,1.100821,-0.380351,-0.061570,-0.026140
26194,9.717305,-2.097586,0.998502,-0.283884,-0.045844,-0.058106
26195,9.628559,-2.151256,0.890537,-0.175747,-0.031213,-0.079674
26196,9.641742,-2.042699,0.972332,-0.057264,-0.016247,-0.092604
26197,9.554524,-1.811174,0.970468,0.033354,-0.009934,-0.110070
26198,9.626454,-1.524342,1.044825,0.064382,-0.016602,-0.114457
26199,9.591712,-1.301791,1.048923,0.049638,-0.025956,-0.113110
26200,9.559493,-1.164403,1.075202,0.015905,-0.030494,-0.114335
26201,9.600889,-1.223098,1.197219,-0.025192,-0.031488,-0.114404
26202,9.643411,-1.313633,1.253117,-0.052618,-0.026778,-0.127525
26203,9.675399,-1.364930,1.272404,-0.068200,-0.014134,-0.132015
26204,9.706939,-1.275738,1.342059,-0.075747,-0.005820,-0.140014
26205,9.765776,-1.250009,1.353737,-0.103324,0.008364,-0.150286
26206,9.752819,-1.221011,1.309992,-0.121265,0.023527,-0.156155
26207,9.755557,-1.238496,1.244963,-0.135875,0.027856,-0.171770
26208,9.776909,-1.301323,1.239107,-0.133371,0.034300,-0.178444
26209,9.802568,-1.448690,1.256115,-0.111970,0.031586,-0.175407
26210,9.817491,-1.557348,1.236453,-0.074156,0.034145,-0.168653
26211,9.826964,-1.549566,1.261119,-0.024089,0.037235,-0.161745
26212,9.938629,-1.476492,1.275699,0.013179,0.038173,-0.151179
26213,9.928378,-1.368894,1.235181,0.032387,0.035706,-0.141567
26214,9.915212,-1.253074,1.334644,0.035045,0.037458,-0.132652
26215,9.871212,-1.215840,1.280595,0.017354,0.031306,-0.123956
26216,9.862393,-1.273706,1.262139,-0.000250,0.022789,-0.107486
26217,9.885734,-1.373802,1.190712,-0.013385,0.018708,-0.085378
26218,9.870326,-1.482377,1.156535,-0.006418,0.008932,-0.060894
26219,9.891759,-1.554896,1.150037,0.020091,0.005590,-0.047238
26220,9.909377,-1.488972,1.194117,0.053861,0.001316,-0.029669
26221,9.885782,-1.430965,1.195061,0.079645,-0.005880,-0.019355
26222,9.846384,-1.381014,1.225571,0.083208,-0.009660,-0.003591
26223,9.814236,-1.339996,1.277642,0.074781,-0.011989,0.006337
26224,9.792151,-1.393381,1.293325,0.060624,-0.012707,0.014695
26225,9.764820,-1.363104,1.285877,0.050521,-0.013169,0.027357
26226,9.757263,-1.357326,1.263169,0.050996,-0.016037,0.024322
26227,9.784874,-1.281329,1.334568,0.043573,-0.005691,0.016971
26228,9.720685,-1.288388,1.299525,0.035592,-0.008636,0.009747
26229,9.752841,-1.329006,1.247591,0.029497,0.000280,0.004072
26230,9.719983,-1.397564,1.235556,0.039273,0.005802,0.001447
26231,9.712510,-1.389369,1.214866,0.049847,0.008121,-0.002184
26232,9.672783,-1.340863,1.246408,0.051209,0.011340,0.005155
26233,9.735827,-1.280296,1.274661,0.033735,0.009513,0.000501
26234,9.722350,-1.210240,1.304396,0.007816,0.005496,0.012234
26235,9.792096,-1.267965,1.289349,-0.025276,0.013815,0.010873
26236,9.759009,-1.337985,1.277548,-0.030206,0.012220,0.008299
26237,9.804874,-1.340332,1.262540,-0.032932,0.017403,-0.002811
26238,9.766905,-1.324103,1.228146,-0.032612,0.023942,-0.009286
26239,9.756153,-1.338994,1.201068,-0.038866,0.023775,-0.013537
26240,9.767504,-1.376707,1.239986,-0.040553,0.025638,-0.010835
26241,9.732315,-1.446016,1.148136,-0.033624,0.025039,-0.008963
26242,9.709938,-1.498808,1.166435,-0.022888,0.029566,-0.005529
26243,9.678198,-1.512750,1.228654,0.010249,0.019015,0.010057
26244,9.736040,-1.368249,1.234323,0.038305,0.011541,0.007529
26245,9.762500,-1.237005,1.299956,0.030448,0.017778,0.005265
26246,9.731792,-1.229215,1.287652,0.002671,0.013407,0.012612
26247,9.754085,-1.340466,1.216135,-0.018369,0.013206,0.012706
26248,9.781015,-1.372658,1.224394,-0.004486,0.014133,-0.004091
26249,9.794668,-1.333488,1.261902,0.004410,0.018314,-0.004987
26250,9.754481,-1.393678,1.228798,-0.004678,0.018902,-0.013232
26251,9.691227,-1.453188,1.203653,0.001519,0.019170,-0.002583
26252,9.682223,-1.576708,1.192397,0.016741,0.009565,0.004956
26253,9.699013,-1.514754,1.236905,0.056492,0.012493,0.003449
26254,9.756149,-1.315048,1.234780,0.078088,0.014364,-0.000398
26255,9.762744,-1.158625,1.315688,0.061850,0.018193,0.000879
26256,9.772632,-1.252345,1.282152,0.021486,0.013709,0.012531
26257,9.762286,-1.432187,1.198310,0.004662,0.011225,0.011896
26258,9.835301,-1.466011,1.191287,0.031115,0.017010,0.002858
26259,9.822820,-1.340133,1.294919,0.053660,0.017887,0.005064
26260,9.745495,-1.166660,1.355235,0.029303,0.021311,0.004173
26261,9.708347,-1.205040,1.329420,-0.013639,0.019581,0.006099
26262,9.670888,-1.353234,1.238629,-0.038073,0.018467,0.005941
26263,9.647202,-1.462355,1.183556,-0.027808,0.021107,0.000303
26264,9.624668,-1.515626,1.201664,0.006639,0.022867,0.000589
26265,9.617179,-1.507756,1.181828,0.035888,0.016386,-0.001607
26266,9.691375,-1.485295,1.248115,0.057661,0.013491,0.003701
26267,9.713422,-1.431869,1.234125,0.068985,0.012712,0.005481
