// Start Time: Unknown
// Update Rate: 100.0Hz
// Filter Profile: human (46.1)
// Firmware Version: 4.3.5
PacketCounter,SampleTimeFine,Acc_X,Acc_Y,Acc_Z,Gyr_X,Gyr_Y,Gyr_Z,Roll,Pitch,Yaw
30464,,9.424300,-1.137111,3.036560,-0.019759,-0.007611,0.009491,-19.565599,-70.901460,-21.233549
30465,,9.436343,-1.106319,3.078454,-0.005883,-0.008111,0.002911,-19.578006,-70.905280,-21.223986
30466,,9.445020,-1.063861,3.098884,0.003320,-0.012482,0.009089,-19.603696,-70.910487,-21.189903
30467,,9.481047,-1.035085,3.135347,0.002037,-0.015943,0.009915,-19.626857,-70.917184,-21.164160
30468,,9.461837,-1.012168,3.149689,0.004337,-0.013618,0.008872,-19.646031,-70.922813,-21.140556
30469,,9.473340,-1.014001,3.201804,0.005501,-0.015238,0.010614,-19.667935,-70.928990,-21.114045
30470,,9.454123,-0.991007,3.216252,0.010043,-0.013130,0.009814,-19.678590,-70.933676,-21.098978
30471,,9.478154,-0.993830,3.210344,0.013923,-0.008311,0.011856,-19.693761,-70.935871,-21.074487
30472,,9.434159,-1.001173,3.241237,0.022799,-0.006154,0.009583,-19.695310,-70.936326,-21.055852
30473,,9.478256,-0.994586,3.209808,0.027035,0.000241,0.014250,-19.701928,-70.933445,-21.032461
30474,,9.463401,-0.916614,3.226394,0.031814,0.012507,0.008302,-19.676309,-70.922940,-21.040603
30475,,9.458622,-0.938020,3.217339,0.026521,0.016136,0.008697,-19.665681,-70.912557,-21.035770
30476,,9.459460,-0.872453,3.198066,0.019255,0.024579,0.008233,-19.636945,-70.894916,-21.050808
30477,,9.454227,-0.894460,3.190212,0.010043,0.032277,0.011438,-19.631072,-70.875296,-21.050934
30478,,9.452987,-0.895150,3.193692,0.008128,0.039631,0.009283,-19.592241,-70.849007,-21.082738
30479,,9.467749,-0.908358,3.160525,0.000386,0.041421,0.008759,-19.582731,-70.824966,-21.092572
30480,,9.533472,-0.937529,3.138999,-0.002521,0.044354,0.011345,-19.541750,-70.795713,-21.132339
30481,,9.548058,-0.950833,3.106540,-0.006098,0.052233,0.002854,-19.520962,-70.766961,-21.158053
30482,,9.495403,-0.935596,3.099967,-0.006102,0.052235,0.002842,-19.458190,-70.735823,-21.222936
30483,,9.487004,-0.913624,3.062015,-0.009425,0.051052,0.004086,-19.442053,-70.707462,-21.245754
30484,,9.449796,-0.943804,3.028946,-0.009574,0.051536,0.002117,-19.381245,-70.679396,-21.304143
30485,,9.440630,-0.954495,3.001712,-0.010740,0.053158,0.000357,-19.359160,-70.650594,-21.334067
30486,,9.436566,-0.910908,2.974396,-0.010663,0.050137,0.003593,-19.293835,-70.626644,-21.401483
30487,,9.434225,-0.944531,2.989531,-0.011809,0.046196,0.006374,-19.285545,-70.600457,-21.417443
30488,,9.401446,-0.953274,2.966617,-0.014480,0.047862,0.000242,-19.216771,-70.578793,-21.490028
30489,,9.416490,-0.966053,2.933571,-0.014283,0.038492,-0.002638,-19.200332,-70.558471,-21.516139
30490,,9.395778,-0.942469,2.952530,-0.016731,0.036652,-0.003561,-19.133399,-70.547270,-21.587434
30491,,9.383226,-0.974390,2.912470,-0.022092,0.026314,-0.005438,-19.123728,-70.534067,-21.611117
30492,,9.334994,-0.969902,2.924041,-0.023050,0.018563,-0.010063,-19.064355,-70.539797,-21.674355
30493,,9.356767,-1.037326,2.941635,-0.017143,0.009677,-0.011974,-19.050702,-70.536819,-21.699243
30494,,9.356762,-1.036202,2.942048,-0.004936,0.001588,-0.019001,-18.967483,-70.554421,-21.784926
30495,,9.363683,-1.056820,2.984512,0.008574,-0.008604,-0.022319,-18.932814,-70.563263,-21.816488
30496,,9.396455,-1.012804,3.000285,0.015937,-0.012264,-0.037024,-18.832410,-70.593849,-21.902469
30497,,9.433497,-0.946512,3.026560,0.014854,-0.013667,-0.035531,-18.776327,-70.607851,-21.952901
30498,,9.415406,-0.886094,3.030287,-0.008186,-0.012112,-0.044598,-18.680950,-70.634600,-22.048008
30499,,9.392426,-0.879894,3.033678,-0.027009,-0.015593,-0.052540,-18.623366,-70.652723,-22.125428
30500,,9.396656,-0.887438,3.053388,-0.052547,-0.012568,-0.053160,-18.547739,-70.683413,-22.219946
30501,,9.404971,-0.874184,3.083775,-0.071424,-0.012734,-0.051745,-18.515104,-70.699790,-22.297824
30502,,9.427249,-0.972725,3.109162,-0.087117,-0.005370,-0.045455,-18.450341,-70.724280,-22.407716
30503,,9.420292,-0.981425,3.075962,-0.088772,0.001024,-0.043741,-18.432760,-70.731658,-22.480147
30504,,9.379100,-1.031625,3.137895,-0.084270,-0.004972,-0.038732,-18.365650,-70.764367,-22.592149
30505,,9.379547,-1.030536,3.136914,-0.064516,0.000416,-0.034245,-18.349077,-70.770341,-22.648791
30506,,9.411139,-1.021394,3.163641,-0.052818,0.000432,-0.028393,-18.283321,-70.790775,-22.742475
30507,,9.399057,-0.986617,3.211182,-0.035698,0.001918,-0.025476,-18.263055,-70.794289,-22.785546
30508,,9.431162,-0.944238,3.228031,-0.030083,0.005449,-0.027755,-18.192365,-70.816202,-22.864391
30509,,9.448255,-0.921665,3.180995,-0.027734,0.010328,-0.030080,-18.155950,-70.815981,-22.919700
30510,,9.403783,-0.927015,3.213154,-0.030698,0.018826,-0.032037,-18.067321,-70.816778,-23.022426
30511,,9.427275,-0.926995,3.209896,-0.035137,0.021799,-0.033850,-18.023410,-70.810916,-23.090163
30512,,9.434862,-0.882056,3.233603,-0.046113,0.027466,-0.035768,-17.919366,-70.826464,-23.216386
30513,,9.474544,-0.894426,3.193936,-0.065099,0.030300,-0.037654,-17.882322,-70.816627,-23.295045
30514,,9.437971,-0.955649,3.168494,-0.068916,0.033858,-0.032924,-17.807064,-70.811401,-23.403316
30515,,9.413271,-0.952723,3.176158,-0.076584,0.040729,-0.036106,-17.773952,-70.795540,-23.484760
30516,,9.388440,-0.950226,3.184051,-0.081534,0.040320,-0.028608,-17.698625,-70.796135,-23.600700
30517,,9.395900,-1.004979,3.128367,-0.076472,0.046070,-0.026085,-17.678601,-70.775616,-23.668231
30518,,9.386755,-1.047589,3.110161,-0.068622,0.049408,-0.028105,-17.614431,-70.755080,-23.762156
30519,,9.377627,-1.089779,3.092103,-0.050666,0.047723,-0.026008,-17.579207,-70.733655,-23.830091
30520,,9.384285,-1.045981,3.118148,-0.041496,0.048938,-0.024283,-17.485120,-70.716897,-23.951545
30521,,9.383591,-1.012121,3.112097,-0.040140,0.049367,-0.021865,-17.449716,-70.693788,-24.013373
30522,,9.379011,-0.999982,3.094825,-0.049232,0.045111,-0.020390,-17.392792,-70.674985,-24.094516
30523,,9.405752,-0.980069,3.104383,-0.053330,0.035686,-0.021911,-17.371779,-70.659337,-24.149108
30524,,9.389843,-1.032693,3.052685,-0.063116,0.034118,-0.017595,-17.340814,-70.642001,-24.210887
30525,,9.401791,-1.066171,3.006990,-0.065420,0.031780,-0.016607,-17.337031,-70.627579,-24.254544
30526,,9.396657,-1.120981,3.007958,-0.057946,0.022857,-0.014127,-17.319665,-70.620326,-24.297250
30527,,9.396232,-1.121454,3.009112,-0.044613,0.013933,-0.008647,-17.325034,-70.614394,-24.318542
30528,,9.371503,-1.152762,3.024737,-0.029357,0.011405,-0.011349,-17.318087,-70.616183,-24.332096
30529,,9.331308,-1.106161,3.057064,-0.012170,0.007295,-0.003736,-17.315847,-70.613018,-24.341662
30530,,9.331125,-1.106346,3.057555,-0.000506,0.004740,0.003535,-17.306607,-70.622756,-24.346662
30531,,9.308273,-1.038619,3.042445,0.005904,0.002554,0.001711,-17.304715,-70.621338,-24.344899
30532,,9.355919,-1.042255,3.033354,0.006981,0.003976,0.000224,-17.294958,-70.624279,-24.349649
30533,,9.332518,-1.007317,3.028327,0.010541,0.001632,0.004226,-17.294731,-70.622963,-24.343323
30534,,9.415109,-0.981772,3.057851,0.008152,0.002343,0.001985,-17.293855,-70.631817,-24.334597
30535,,9.418335,-0.993539,3.079227,0.001502,-0.000079,0.004410,-17.299931,-70.631440,-24.327065
30536,,9.442083,-0.995729,3.074793,-0.003924,0.006584,0.001497,-17.304896,-70.639450,-24.316910
30537,,9.490300,-0.966650,3.055562,-0.003276,0.001343,-0.000071,-17.306032,-70.639183,-24.317478
30538,,9.469049,-1.009360,3.091861,-0.005617,0.004609,-0.003596,-17.304993,-70.645863,-24.318111
30539,,9.493996,-0.945141,3.067271,-0.005475,0.004109,-0.001630,-17.303607,-70.644424,-24.322669
30540,,9.466169,-0.964462,3.061171,-0.005949,0.003056,-0.006245,-17.296916,-70.653580,-24.332135
30541,,9.477219,-0.933130,3.104630,-0.006933,-0.001421,-0.001508,-17.299224,-70.655141,-24.333673
30542,,9.430157,-0.896170,3.103699,-0.011014,-0.002684,-0.008843,-17.305213,-70.662451,-24.328628
30543,,9.416889,-0.895644,3.161646,-0.017900,-0.001551,-0.011636,-17.298165,-70.665789,-24.346681
30544,,9.420995,-0.873711,3.172217,-0.023994,-0.006158,-0.014035,-17.291511,-70.682459,-24.364789
30545,,9.413488,-0.915935,3.149441,-0.027035,-0.000206,-0.014710,-17.284209,-70.685634,-24.388650
30546,,9.362686,-0.899411,3.137272,-0.026211,-0.003568,-0.028288,-17.249196,-70.697054,-24.444713
30547,,9.377845,-0.845325,3.191493,-0.034685,0.000880,-0.026065,-17.227927,-70.701524,-24.488068
30548,,9.349721,-0.896361,3.195086,-0.039423,0.004862,-0.031843,-17.188865,-70.710638,-24.554011
30549,,9.366566,-0.906098,3.158178,-0.038351,0.006288,-0.033341,-17.155619,-70.713333,-24.612319
30550,,9.393345,-0.950473,3.184956,-0.034143,0.006877,-0.036732,-17.125059,-70.719600,-24.651402
30551,,9.397263,-0.926703,3.196568,-0.036351,0.009644,-0.038303,-17.081452,-70.721185,-24.719345
30552,,9.421155,-0.926043,3.192531,-0.040809,0.012622,-0.040155,-17.028245,-70.737348,-24.788436
30553,,9.416772,-0.977982,3.192310,-0.046301,0.016730,-0.041807,-16.981389,-70.735742,-24.865788
30554,,9.402454,-0.994916,3.128566,-0.046351,0.014176,-0.040544,-16.924689,-70.748730,-24.946709
30555,,9.375734,-0.945955,3.102855,-0.053623,0.011203,-0.044748,-16.879950,-70.750732,-25.026241
30556,,9.375337,-0.976555,3.113384,-0.059163,0.012753,-0.045129,-16.824368,-70.761058,-25.117735
30557,,9.380847,-1.049565,3.043334,-0.055519,0.015525,-0.043698,-16.780191,-70.760562,-25.197829
30558,,9.380002,-1.112974,3.064075,-0.040061,0.015092,-0.045681,-16.723372,-70.766612,-25.275247
30559,,9.404430,-1.078447,3.050244,-0.026788,0.009242,-0.043409,-16.666156,-70.769520,-25.351667
30560,,9.432200,-1.055326,3.057579,-0.018927,0.012615,-0.045334,-16.584431,-70.788154,-25.448130
30561,,9.428591,-1.072941,3.047257,-0.017897,0.011488,-0.045549,-16.517422,-70.790337,-25.529547
30562,,9.404875,-1.067318,3.052786,-0.009225,0.009124,-0.047086,-16.439983,-70.804687,-25.615600
30563,,9.408802,-1.042120,3.064694,-0.012262,0.006882,-0.041953,-16.377399,-70.808841,-25.688925
30564,,9.378404,-1.013766,3.027607,-0.019619,0.007101,-0.036696,-16.336127,-70.821204,-25.736951
30565,,9.375180,-0.999546,3.006909,-0.029227,0.007521,-0.031724,-16.299106,-70.823347,-25.793449
30566,,9.351039,-1.029134,3.021815,-0.033443,0.006913,-0.028358,-16.275138,-70.833597,-25.837642
30567,,9.323493,-1.047457,3.015615,-0.036262,0.009279,-0.023811,-16.253780,-70.833577,-25.881811
30568,,9.354017,-1.071657,3.053763,-0.030074,0.010830,-0.018119,-16.251934,-70.840442,-25.894976
30569,,9.428703,-1.120468,3.071181,-0.022465,0.007041,-0.018161,-16.232686,-70.840799,-25.928476
30570,,9.540897,-1.184939,3.158909,-0.005510,0.014854,-0.008743,-16.224689,-70.850061,-25.935366
30571,,9.817012,-1.230468,3.317311,0.013836,0.032712,-0.004157,-16.194960,-70.834226,-25.957895
30572,,10.060418,-1.350651,3.470821,0.033480,0.071304,0.015641,-16.171816,-70.795710,-25.973514
30573,,10.290193,-1.570605,3.605746,0.052011,0.127788,0.062145,-16.181242,-70.716969,-25.931524
30574,,10.674122,-1.978828,3.989753,0.083006,0.211348,0.144526,-16.294109,-70.577257,-25.760341
30575,,11.290763,-2.490901,4.383369,0.140535,0.328913,0.254181,-16.457472,-70.356846,-25.501078
30576,,11.624992,-2.520478,4.635565,0.201729,0.507528,0.395346,-16.763940,-70.021468,-25.039594
30577,,11.550679,-2.260653,4.938466,0.190971,0.693345,0.533496,-17.134127,-69.553900,-24.527866
30578,,11.468078,-2.055620,5.013489,0.127897,0.864689,0.666266,-17.685607,-68.964337,-23.859190
30579,,11.417304,-1.830701,5.176224,0.025785,1.014979,0.799470,-18.324458,-68.271306,-23.156501
30580,,11.391192,-1.670112,5.268985,-0.085466,1.150879,0.908323,-19.121509,-67.483208,-22.335428
30581,,11.344805,-1.698475,5.226637,-0.216875,1.274507,1.010063,-19.957044,-66.603240,-21.562031
30582,,11.112101,-1.904760,5.089321,-0.325557,1.394638,1.102348,-20.895516,-65.634856,-20.728126
30583,,10.941789,-2.428960,5.032503,-0.386543,1.487716,1.182007,-21.808133,-64.596335,-19.965120
30584,,10.760059,-3.029824,5.106504,-0.356679,1.588690,1.246412,-22.713232,-63.486842,-19.161907
30585,,10.484871,-3.418388,5.388020,-0.262122,1.657251,1.306195,-23.481406,-62.321982,-18.466272
30586,,10.321417,-3.524189,5.834798,-0.158226,1.724983,1.369042,-24.224217,-61.111110,-17.692088
30587,,10.249984,-3.323250,6.413920,-0.087497,1.807056,1.414123,-24.817793,-59.835296,-17.065603
30588,,9.974587,-3.028610,6.761278,-0.092594,1.900453,1.453426,-25.425453,-58.502734,-16.381763
30589,,9.720788,-2.955263,7.128766,-0.160119,1.994798,1.494116,-25.956097,-57.104394,-15.860612
30590,,9.542080,-3.162162,7.294325,-0.252108,2.088235,1.530277,-26.543552,-55.652118,-15.284048
30591,,9.400841,-3.571445,7.472475,-0.338993,2.180744,1.579656,-27.085551,-54.131797,-14.855821
30592,,9.258648,-3.929786,7.548470,-0.405487,2.266717,1.631507,-27.662058,-52.526319,-14.395632
30593,,9.041901,-4.093056,7.471205,-0.433640,2.340585,1.693138,-28.200772,-50.890209,-14.022397
30594,,8.657790,-4.299574,7.382712,-0.430844,2.418855,1.740468,-28.724404,-49.162038,-13.635334
30595,,8.219781,-4.537689,7.187822,-0.368340,2.461393,1.791916,-29.177593,-47.434109,-13.307405
30596,,7.615807,-4.595922,7.111244,-0.265803,2.482063,1.837854,-29.580119,-45.641606,-12.928493
30597,,7.067602,-4.716013,7.165808,-0.142292,2.483919,1.863935,-29.881137,-43.879191,-12.612940
30598,,6.780872,-4.875952,7.372930,-0.024594,2.475117,1.894197,-30.128155,-42.070220,-12.233440
30599,,6.357657,-4.520285,7.388818,0.052224,2.467318,1.920183,-30.307002,-40.297957,-11.912264
30600,,5.635163,-3.910686,7.339913,0.045916,2.457980,1.929322,-30.495431,-38.484259,-11.529741
30601,,4.775767,-3.648992,7.355453,-0.006342,2.431995,1.926181,-30.683873,-36.726132,-11.222425
30602,,4.152472,-3.535274,7.360993,-0.079127,2.365416,1.913734,-30.920118,-34.959417,-10.843843
30603,,3.695014,-3.769401,7.351997,-0.124351,2.294809,1.895122,-31.161342,-33.275943,-10.535941
30604,,3.322531,-3.949269,7.240831,-0.118709,2.213562,1.867756,-31.399127,-31.592368,-10.151442
30605,,2.979724,-4.236969,7.262977,-0.075787,2.138947,1.831592,-31.593086,-30.002076,-9.852082
30606,,2.845920,-4.845320,7.586560,0.023634,2.070627,1.792487,-31.724345,-28.405986,-9.480485
30607,,2.912710,-5.323739,7.649886,0.187103,2.016299,1.757025,-31.745968,-26.896866,-9.196960
30608,,2.719078,-5.370997,7.649391,0.387873,1.981902,1.716243,-31.644672,-25.363993,-8.927079
30609,,2.230057,-5.068579,7.744663,0.567658,1.936166,1.685377,-31.429217,-23.916347,-8.657105
30610,,1.988385,-4.811285,7.794970,0.673382,1.867964,1.650870,-31.155165,-22.457645,-8.380443
30611,,1.940752,-4.660683,7.844998,0.733385,1.787648,1.617156,-30.839821,-21.105437,-8.090406
30612,,2.068914,-4.788069,8.109596,0.772505,1.726673,1.585971,-30.502887,-19.735864,-7.793483
30613,,2.268205,-4.912037,8.432467,0.797009,1.675678,1.560171,-30.143677,-18.458770,-7.487194
30614,,2.238241,-4.828862,8.661339,0.806043,1.644277,1.538052,-29.777387,-17.146837,-7.178549
30615,,1.964646,-4.760801,8.798236,0.803867,1.620865,1.510302,-29.402019,-15.914961,-6.869345
30616,,1.668864,-4.799706,9.165356,0.805788,1.597817,1.468097,-29.018778,-14.650182,-6.570875
30617,,1.494501,-4.858694,9.151175,0.799159,1.555469,1.430142,-28.630948,-13.477331,-6.271222
30618,,1.239543,-4.904285,9.153599,0.812407,1.522629,1.368211,-28.226526,-12.281674,-5.989843
30619,,1.042490,-4.827184,9.266946,0.810377,1.483301,1.319403,-27.815626,-11.179315,-5.713559
30620,,0.981849,-4.858711,9.513844,0.786463,1.445034,1.263211,-27.410804,-10.054924,-5.451436
30621,,0.980371,-5.104293,9.774688,0.788901,1.420846,1.223025,-26.998610,-9.013589,-5.194442
30622,,1.030970,-5.332913,9.917737,0.825129,1.388277,1.190722,-26.560084,-7.941320,-4.941023
30623,,0.971941,-5.230317,9.881714,0.885547,1.361323,1.152594,-26.082422,-6.952466,-4.690485
30624,,0.673604,-4.736689,9.758419,0.923052,1.329012,1.094900,-25.577087,-5.940521,-4.456248
30625,,0.326411,-4.267331,9.689493,0.926836,1.290053,1.023515,-25.064058,-5.024687,-4.238980
30626,,0.148329,-4.126344,9.487323,0.888271,1.226864,0.945138,-24.567182,-4.107473,-4.041948
30627,,0.063024,-4.082568,9.290379,0.854438,1.160576,0.867771,-24.086622,-3.299872,-3.860192
30628,,-0.106292,-4.092270,9.155700,0.812294,1.078561,0.784536,-23.624952,-2.502214,-3.698804
30629,,-0.318097,-4.156607,9.157470,0.771385,1.000183,0.688721,-23.185405,-1.822709,-3.562000
30630,,-0.605371,-4.213272,9.004229,0.760630,0.895952,0.585180,-22.748102,-1.169635,-3.453570
30631,,-0.565142,-4.197909,8.966928,0.772843,0.770470,0.468655,-22.303858,-0.662175,-3.372483
30632,,-0.342285,-4.158890,8.781483,0.814942,0.655285,0.353076,-21.833934,-0.189304,-3.326281
30633,,-0.298541,-3.821592,8.688095,0.861285,0.555987,0.226633,-21.337727,0.151484,-3.320617
30634,,-0.048406,-3.585433,8.572276,0.867439,0.435905,0.108133,-20.838719,0.453984,-3.353082
30635,,0.424831,-3.382245,8.689615,0.844206,0.328715,0.002866,-20.352890,0.627642,-3.415736
30636,,1.165295,-3.383693,9.011790,0.738380,0.243431,-0.064070,-19.929185,0.789980,-3.498617
30637,,1.730019,-3.712590,9.219457,0.597425,0.215269,-0.095974,-19.585500,0.884232,-3.590049
30638,,1.966253,-4.081727,9.051244,0.473880,0.195577,-0.114978,-19.314526,1.005893,-3.689717
30639,,1.969360,-4.363054,9.020590,0.410447,0.195394,-0.136856,-19.078623,1.082591,-3.798602
30640,,1.731981,-4.614727,8.948622,0.431501,0.185908,-0.174573,-18.835202,1.181782,-3.928252
30641,,1.597360,-4.556672,9.152038,0.483158,0.157109,-0.224107,-18.558774,1.222632,-4.076795
30642,,1.756187,-4.709627,9.205825,0.520100,0.139823,-0.276455,-18.269084,1.273628,-4.253312
30643,,1.957128,-4.840706,9.123228,0.584570,0.132188,-0.341632,-17.936069,1.281529,-4.461002
30644,,2.084499,-4.610977,8.815154,0.660609,0.116080,-0.397317,-17.570953,1.294426,-4.699573
30645,,1.890583,-4.094700,8.650731,0.721365,0.098090,-0.446025,-17.160722,1.268503,-4.958405
30646,,1.692359,-3.599718,8.468437,0.733003,0.055788,-0.489169,-16.757837,1.230313,-5.237725
30647,,1.707907,-3.307512,8.192303,0.736322,0.007421,-0.529521,-16.339267,1.144665,-5.527950
30648,,1.580030,-3.034077,8.108260,0.759051,-0.045081,-0.573113,-15.922706,1.036642,-5.838209
30649,,1.611939,-2.730998,7.954548,0.799303,-0.104759,-0.620320,-15.467460,0.879376,-6.162349
30650,,1.748464,-2.386081,7.893110,0.816787,-0.169150,-0.672458,-15.017271,0.688212,-6.510478
30651,,1.954550,-2.008623,8.122650,0.784319,-0.212827,-0.721592,-14.568876,0.461387,-6.877309
30652,,2.008838,-1.899478,8.392842,0.700974,-0.217523,-0.772064,-14.182101,0.229919,-7.276350
30653,,2.128885,-2.051641,8.378553,0.640582,-0.232612,-0.825551,-13.813175,-0.017201,-7.701323
30654,,2.120686,-1.806893,8.323158,0.603713,-0.247302,-0.889985,-13.477511,-0.280688,-8.164456
30655,,1.914018,-1.419546,8.489732,0.555069,-0.261212,-0.966852,-13.153118,-0.557324,-8.667357
30656,,2.090214,-1.141796,8.684460,0.453329,-0.272824,-1.046617,-12.896523,-0.854325,-9.216945
30657,,2.365336,-0.920970,8.537139,0.295670,-0.270633,-1.100557,-12.714319,-1.148722,-9.795862
30658,,2.573222,-0.605211,8.290967,0.083239,-0.266107,-1.149488,-12.660105,-1.455706,-10.404965
30659,,2.651056,-0.503653,7.980575,-0.171303,-0.258942,-1.153244,-12.738509,-1.749137,-11.015495
30660,,2.621794,-0.617485,7.535885,-0.421168,-0.257531,-1.128815,-12.964127,-2.054738,-11.612803
30661,,2.450045,-0.859144,7.309471,-0.633835,-0.264988,-1.082659,-13.302796,-2.346974,-12.181098
30662,,2.293195,-1.253381,6.905813,-0.779107,-0.289398,-1.012080,-13.727906,-2.665301,-12.705429
30663,,2.070612,-1.735356,6.339805,-0.806896,-0.334970,-0.939141,-14.164158,-2.984665,-13.180210
30664,,1.749513,-2.061016,5.982872,-0.667821,-0.402916,-0.897720,-14.523298,-3.360023,-13.620617
30665,,1.632590,-2.483477,5.985286,-0.397569,-0.502978,-0.875179,-14.722842,-3.768869,-14.032048
30666,,1.886083,-2.879220,6.366655,-0.040794,-0.596084,-0.871872,-14.720241,-4.251961,-14.428068
30667,,2.340589,-2.671035,6.994070,0.293140,-0.635436,-0.865413,-14.519282,-4.732816,-14.815345
30668,,2.624398,-2.128340,7.058911,0.450391,-0.614175,-0.842897,-14.231241,-5.221378,-15.196083
30669,,2.619346,-1.864195,7.076063,0.499784,-0.582196,-0.804653,-13.907518,-5.660460,-15.562066
30670,,2.614934,-1.904450,7.458282,0.534100,-0.553379,-0.753228,-13.569040,-6.101207,-15.906645
30671,,2.652947,-1.863376,8.079748,0.548082,-0.507961,-0.673089,-13.218624,-6.477136,-16.214505
30672,,2.638827,-1.800046,8.488200,0.519002,-0.449043,-0.566495,-12.893629,-6.833379,-16.473154
30673,,2.578531,-1.557131,8.490647,0.442779,-0.376788,-0.444259,-12.612965,-7.103631,-16.673540
30674,,2.371383,-1.276234,8.391306,0.346814,-0.325547,-0.338592,-12.396988,-7.361556,-16.822556
30675,,2.342342,-1.111855,8.395536,0.265824,-0.296167,-0.247227,-12.228860,-7.561082,-16.923947
30676,,2.283038,-0.996466,8.433832,0.205513,-0.268660,-0.179121,-12.102269,-7.767911,-16.991202
30677,,2.085507,-0.770357,8.764053,0.154908,-0.258004,-0.126332,-12.005586,-7.931147,-17.029824
30678,,2.254854,-0.669345,9.279987,0.039463,-0.264753,-0.102996,-11.977855,-8.126948,-17.054976
30679,,2.495288,-0.580616,9.540753,-0.138854,-0.238490,-0.084150,-12.052303,-8.274205,-17.072214
30680,,2.309130,-0.827946,9.762157,-0.334598,-0.204808,-0.060690,-12.238953,-8.431830,-17.080211
30681,,2.400808,-1.552986,9.676838,-0.443067,-0.179321,-0.053004,-12.489267,-8.542268,-17.086272
30682,,2.501351,-2.094781,9.764715,-0.423761,-0.165129,-0.034442,-12.727175,-8.674682,-17.083398
30683,,2.398501,-2.045267,9.924174,-0.358223,-0.156743,-0.015760,-12.931740,-8.767830,-17.070415
30684,,2.346464,-1.717552,10.007222,-0.334668,-0.146415,-0.006331,-13.120668,-8.886343,-17.053390
30685,,2.096833,-1.240508,9.956118,-0.348669,-0.138382,-0.011201,-13.319926,-8.968579,-17.039621
30686,,1.981161,-1.264068,10.163390,-0.385884,-0.141057,-0.039043,-13.534164,-9.088118,-17.041152
30687,,2.214406,-1.773429,10.454377,-0.404891,-0.124942,-0.049254,-13.762085,-9.167929,-17.050057
30688,,2.368805,-2.180598,10.585194,-0.371454,-0.079741,-0.053209,-13.964199,-9.254783,-17.067427
30689,,2.568146,-2.243235,10.845273,-0.339157,-0.026358,-0.037730,-14.153333,-9.278275,-17.083174
30690,,2.675932,-1.848630,10.829453,-0.389923,0.056593,0.020826,-14.369158,-9.278948,-17.078020
30691,,2.428763,-1.521613,10.734759,-0.505291,0.154248,0.073799,-14.659357,-9.186388,-17.057182
30692,,2.367751,-1.500477,10.396228,-0.626739,0.217493,0.137066,-15.016022,-9.080833,-17.011026
30693,,2.329569,-1.547929,10.070826,-0.692522,0.261466,0.167616,-15.418887,-8.914659,-16.955171
30694,,2.407906,-1.871805,10.116158,-0.718955,0.301309,0.199953,-15.829804,-8.752432,-16.888879
30695,,2.668496,-2.103726,10.123250,-0.709703,0.350025,0.237797,-16.245534,-8.525628,-16.810586
30696,,2.966289,-2.123289,10.350684,-0.700729,0.439092,0.289872,-16.648245,-8.272434,-16.719759
30697,,3.157872,-2.025069,10.455723,-0.761477,0.565270,0.376420,-17.098118,-7.903474,-16.604319
30698,,3.592966,-2.129334,10.180703,-0.869652,0.730853,0.514479,-17.604744,-7.451995,-16.444423
30699,,4.055122,-2.554388,9.356072,-0.970213,0.928928,0.727636,-18.187413,-6.820958,-16.207441
30700,,3.935165,-2.980379,8.573133,-0.966570,1.111377,0.962978,-18.764449,-6.080609,-15.881579
30701,,3.180261,-2.913542,8.562034,-0.862283,1.216489,1.171413,-19.296278,-5.206395,-15.470344
30702,,2.970397,-2.598146,8.827105,-0.749488,1.262893,1.313928,-19.752443,-4.313651,-14.998388
30703,,2.537813,-2.200476,9.369807,-0.629978,1.334934,1.423965,-20.144619,-3.319851,-14.489221
30704,,2.315657,-2.045648,9.831626,-0.585880,1.388130,1.480978,-20.493538,-2.321774,-13.965952
30705,,2.914651,-2.234944,9.784744,-0.583724,1.449572,1.507606,-20.841410,-1.243332,-13.448526
30706,,3.645822,-2.687608,9.302522,-0.590422,1.538497,1.556165,-21.172646,-0.144975,-12.928432
30707,,4.240134,-3.232267,8.341500,-0.562906,1.647577,1.628411,-21.488227,1.070209,-12.400554
30708,,4.434846,-3.847982,6.929326,-0.456421,1.735135,1.699620,-21.721024,2.305038,-11.856820
30709,,3.533194,-4.087248,6.286411,-0.271073,1.795905,1.723588,-21.845820,3.623483,-11.318773
30710,,1.376181,-3.960451,6.644985,-0.083566,1.778183,1.676519,-21.845512,4.874406,-10.800812
30711,,0.322567,-4.016080,7.205057,0.123275,1.643100,1.599271,-21.723854,6.085096,-10.294857
30712,,0.800649,-4.094705,7.731837,0.357631,1.501259,1.515067,-21.454346,7.151674,-9.797126
30713,,1.624082,-3.800080,8.376694,0.536066,1.423284,1.459753,-21.078963,8.211361,-9.306976
30714,,2.386566,-2.970687,8.768573,0.548351,1.383196,1.427039,-20.685296,9.189225,-8.816518
30715,,3.045113,-2.106640,8.699870,0.346703,1.399576,1.419362,-20.401457,10.221820,-8.327336
30716,,2.902232,-1.400163,8.302499,-0.019661,1.466076,1.426168,-20.317120,11.236088,-7.841449
30717,,1.307018,-0.978965,7.999441,-0.444099,1.551506,1.399236,-20.476245,12.344978,-7.388217
30718,,-0.360688,-1.190445,7.702555,-0.795377,1.539353,1.315320,-20.834861,13.375817,-6.979688
30719,,-1.559641,-2.178291,7.206672,-0.973379,1.463640,1.217112,-21.302967,14.405299,-6.617758
30720,,-1.907372,-3.275698,6.770135,-0.949572,1.302309,1.105519,-21.755700,15.272291,-6.286675
30721,,-1.536224,-3.952702,6.535697,-0.800549,1.123383,1.004780,-22.128693,16.080677,-5.979641
30722,,-0.981690,-4.203824,6.571964,-0.623867,0.961945,0.909930,-22.399560,16.729998,-5.690130
30723,,-0.764473,-4.045282,6.474748,-0.494893,0.858569,0.825115,-22.603521,17.361620,-5.427947
30724,,-1.115644,-3.465470,6.404218,-0.416331,0.729748,0.739641,-22.765326,17.852615,-5.183528
30725,,-1.600183,-2.935102,6.158459,-0.442034,0.571253,0.654008,-22.943934,18.295954,-4.951729
30726,,-2.109010,-2.672167,5.828482,-0.550864,0.386730,0.559241,-23.187484,18.567776,-4.729550
30727,,-2.724854,-2.866093,5.585584,-0.665621,0.185057,0.455984,-23.498518,18.764816,-4.518367
30728,,-2.976328,-3.470045,5.307589,-0.730477,-0.069277,0.354931,-23.846362,18.754429,-4.302205
30729,,-2.848385,-3.918874,5.111619,-0.726195,-0.326765,0.226961,-24.192951,18.632504,-4.093980
30730,,-2.579809,-4.120832,5.014729,-0.708519,-0.573061,0.091764,-24.537534,18.301773,-3.898839
30731,,-2.368266,-4.163920,4.743866,-0.707185,-0.817501,-0.043548,-24.882688,17.861979,-3.714293
30732,,-2.091058,-4.262149,4.909199,-0.705340,-1.052741,-0.181518,-25.238020,17.220115,-3.544205
30733,,-1.752794,-4.624075,5.328620,-0.657785,-1.240935,-0.315367,-25.568473,16.496473,-3.393599
30734,,-1.577351,-4.904244,5.653609,-0.587523,-1.420518,-0.423109,-25.870744,15.607876,-3.253087
30735,,-2.094798,-4.572565,5.949001,-0.505643,-1.571161,-0.493852,-26.119121,14.670836,-3.105350
30736,,-2.805950,-4.244241,6.323992,-0.476566,-1.759776,-0.575761,-26.360903,13.571613,-2.950954
30737,,-2.655619,-4.054278,6.270036,-0.501252,-1.967148,-0.676802,-26.608942,12.385968,-2.788831
30738,,-2.338649,-3.861407,6.318427,-0.522168,-2.147471,-0.812484,-26.886967,11.030969,-2.647895
30739,,-1.886746,-3.822890,7.325725,-0.528890,-2.295530,-0.975998,-27.168696,9.601336,-2.544209
30740,,-1.114366,-3.937370,8.399427,-0.569018,-2.352214,-1.168148,-27.498656,8.051864,-2.519200
30741,,-0.759852,-3.704122,9.155848,-0.676655,-2.337430,-1.371397,-27.892662,6.496932,-2.590529
30742,,-0.703052,-3.620812,9.365012,-0.866075,-2.293151,-1.605627,-28.414545,4.860213,-2.781311
30743,,-0.339051,-4.092734,9.169973,-1.011624,-2.219268,-1.850433,-29.013840,3.231744,-3.098430
30744,,0.023946,-4.836388,8.741329,-1.008037,-2.146900,-2.090130,-29.614752,1.529320,-3.538569
30745,,0.025382,-5.324546,8.421773,-0.837988,-2.081901,-2.289145,-30.098640,-0.162057,-4.079570
30746,,-0.165810,-5.377650,8.273233,-0.588803,-2.073815,-2.443830,-30.429187,-1.936912,-4.687482
30747,,-0.063785,-5.121066,8.280568,-0.380514,-2.113944,-2.561112,-30.612505,-3.729444,-5.334494
30748,,0.248461,-4.964069,8.545167,-0.252140,-2.156405,-2.644435,-30.705869,-5.606470,-6.006910
30749,,0.711325,-5.279236,9.239459,-0.186143,-2.180172,-2.696790,-30.730973,-7.473590,-6.698884
30750,,1.383819,-6.195786,9.940730,-0.144919,-2.188769,-2.705587,-30.714392,-9.383843,-7.394915
30751,,1.851636,-6.432866,10.220788,-0.084953,-2.200224,-2.679524,-30.637512,-11.255322,-8.080483
30752,,1.918819,-5.597569,10.369988,-0.091517,-2.204937,-2.646782,-30.549138,-13.153697,-8.754557
30753,,1.852271,-4.777240,10.127730,-0.236825,-2.225672,-2.595636,-30.523995,-15.011698,-9.404303
30754,,2.017190,-4.515991,9.710158,-0.478906,-2.246871,-2.540267,-30.628432,-16.897960,-10.022835
30755,,2.212516,-4.854936,9.185943,-0.708245,-2.270595,-2.484182,-30.852904,-18.747699,-10.606390
30756,,2.276860,-5.607623,8.617743,-0.833869,-2.288763,-2.437051,-31.143839,-20.626610,-11.156796
30757,,2.236743,-6.386967,8.248512,-0.797467,-2.331090,-2.415657,-31.405745,-22.490717,-11.680136
30758,,2.452208,-7.012092,8.182198,-0.629907,-2.390799,-2.401143,-31.568351,-24.410887,-12.175308
30759,,2.914341,-6.932818,8.330927,-0.418114,-2.447140,-2.387139,-31.602310,-26.325719,-12.648838
30760,,3.229305,-6.462536,8.619802,-0.261577,-2.470825,-2.352276,-31.543926,-28.268437,-13.102418
30761,,3.408418,-5.948334,8.638619,-0.196189,-2.483756,-2.304019,-31.441373,-30.175610,-13.537134
30762,,3.629956,-5.731560,8.542100,-0.175424,-2.472280,-2.252638,-31.324465,-32.085389,-13.957655
30763,,3.790939,-5.573583,8.333642,-0.192182,-2.463529,-2.187994,-31.213498,-33.946677,-14.358389
30764,,3.904714,-5.354337,7.978219,-0.219798,-2.445211,-2.143314,-31.115380,-35.806750,-14.750136
30765,,3.965513,-5.380951,7.537900,-0.213556,-2.419778,-2.112535,-30.997244,-37.623022,-15.147853
30766,,4.007932,-5.435971,7.252110,-0.168973,-2.412525,-2.101280,-30.840879,-39.450651,-15.554295
30767,,4.284451,-5.195055,7.025356,-0.119051,-2.419181,-2.098098,-30.632748,-41.260615,-15.976845
30768,,4.684068,-4.634491,6.928436,-0.097039,-2.428235,-2.111456,-30.394471,-43.093958,-16.334379
30769,,5.335347,-4.199688,7.042007,-0.149507,-2.427288,-2.118811,-30.144588,-44.911244,-16.813470
30770,,6.105823,-3.800128,7.048600,-0.240870,-2.403947,-2.149440,-29.904927,-46.738472,-17.273027
30771,,6.784440,-3.578561,6.974398,-0.367710,-2.348571,-2.173668,-29.663753,-48.529262,-17.880912
30772,,7.169664,-3.418738,6.720102,-0.494034,-2.285625,-2.208465,-29.425650,-50.309578,-18.507932
30773,,7.514426,-3.485451,6.363380,-0.546175,-2.212772,-2.267362,-29.101046,-52.054959,-19.322697
30774,,7.785768,-3.692113,6.050304,-0.521748,-2.153354,-2.340106,-28.643522,-53.798871,-20.226691
30775,,8.388001,-3.776960,6.043137,-0.506971,-2.123169,-2.373890,-28.061881,-55.519758,-21.292452
30776,,9.152618,-3.550796,5.985676,-0.531942,-2.103945,-2.387883,-27.397756,-57.238576,-22.422834
30777,,9.805083,-3.179354,5.857095,-0.618246,-2.049975,-2.388408,-26.653641,-58.911185,-23.713676
30778,,10.217289,-2.794628,5.716327,-0.757601,-2.001214,-2.364637,-25.884383,-60.553679,-25.079359
30779,,10.597638,-2.515487,5.508809,-0.935300,-1.955133,-2.328902,-25.100262,-62.143735,-26.580415
30780,,10.941910,-2.429980,5.225106,-1.109803,-1.889839,-2.295806,-24.291591,-63.691463,-28.182222
30781,,11.341686,-2.530830,4.996026,-1.255201,-1.810322,-2.257801,-23.417228,-65.167984,-29.945741
30782,,11.521710,-2.667107,4.796655,-1.333040,-1.716653,-2.208018,-22.441734,-66.580910,-31.839029
30783,,11.762387,-2.868524,4.697484,-1.353697,-1.633588,-2.168671,-21.301832,-67.917270,-33.913173
30784,,12.152618,-3.135511,4.548331,-1.302193,-1.506501,-2.132083,-19.917980,-69.169011,-36.197099
30785,,12.288823,-3.396374,4.466973,-1.186560,-1.396416,-2.083643,-18.252263,-70.320512,-38.694339
30786,,12.405252,-3.539390,4.235778,-1.032950,-1.322889,-1.997933,-16.352127,-71.397931,-41.332393
30787,,12.532852,-3.439813,4.043260,-0.891844,-1.236314,-1.895851,-14.233834,-72.372896,-44.095900
30788,,12.430840,-3.052466,3.760378,-0.776863,-1.138463,-1.773711,-11.967687,-73.251385,-46.937686
30789,,12.122499,-2.701409,3.568575,-0.688668,-1.060890,-1.641321,-9.604573,-74.029770,-49.808914
30790,,11.909594,-2.359282,3.341841,-0.610934,-0.996761,-1.490004,-7.246816,-74.732384,-52.628071
30791,,11.586228,-2.132797,3.467828,-0.527040,-0.949601,-1.322081,-4.945872,-75.359156,-55.319472
30792,,11.527412,-2.050369,3.604711,-0.416961,-0.897130,-1.144048,-2.781081,-75.928524,-57.810881
30793,,11.421406,-1.851871,3.656750,-0.315538,-0.835662,-0.958655,-0.790561,-76.429516,-60.044227
30794,,11.086425,-1.498485,3.667975,-0.235899,-0.754964,-0.793921,0.974451,-76.873147,-62.008953
30795,,10.873208,-1.179501,3.699516,-0.212250,-0.684758,-0.628569,2.473240,-77.259755,-63.668869
30796,,10.615159,-0.768001,3.468951,-0.244897,-0.615515,-0.474490,3.612234,-77.608390,-64.994322
30797,,10.342405,-0.537204,3.303521,-0.291782,-0.549646,-0.341483,4.449162,-77.914044,-66.019147
30798,,10.186913,-0.370898,3.187796,-0.333990,-0.489533,-0.235885,4.978502,-78.192523,-66.771371
30799,,10.117913,-0.286554,3.073027,-0.371095,-0.444472,-0.141817,5.270066,-78.444162,-67.283606
30800,,10.093730,-0.241907,3.022135,-0.414419,-0.400615,-0.064892,5.293463,-78.678414,-67.567470
30801,,10.247818,-0.288810,2.907704,-0.455422,-0.352986,-0.001852,5.133286,-78.884971,-67.667595
30802,,10.299018,-0.287052,2.754618,-0.478253,-0.296309,0.050682,4.756586,-79.064947,-67.580026
30803,,10.424600,-0.595516,2.646687,-0.467329,-0.249699,0.094294,4.269180,-79.217062,-67.353789
30804,,10.673487,-1.039987,2.518201,-0.403723,-0.201863,0.143096,3.615096,-79.345715,-66.941411
30805,,10.678976,-1.115276,2.277464,-0.298645,-0.149813,0.181301,2.918070,-79.442565,-66.403781
30806,,10.448819,-0.942643,2.137500,-0.179369,-0.114379,0.199150,2.177840,-79.520373,-65.771331
30807,,10.343572,-0.802867,2.055148,-0.052063,-0.099686,0.215528,1.489563,-79.586634,-65.099223
30808,,10.312360,-0.755225,1.986451,0.063372,-0.077101,0.234284,0.754674,-79.640281,-64.332391
30809,,10.186509,-0.742554,1.929063,0.180024,-0.036164,0.257346,0.051309,-79.667246,-63.509997
30810,,9.915193,-0.550255,1.763823,0.289613,-0.007730,0.272474,-0.687382,-79.677374,-62.606049
30811,,9.676863,-0.525758,1.780996,0.415507,-0.000729,0.274739,-1.314008,-79.680231,-61.724592
30812,,9.654420,-0.614910,1.750659,0.546174,-0.003456,0.276935,-1.922727,-79.683991,-60.802908
30813,,9.639460,-0.496125,1.798298,0.659187,-0.004396,0.270434,-2.397318,-79.685839,-59.934100
30814,,9.677893,-0.259866,1.832618,0.724934,-0.009451,0.269122,-2.881006,-79.689922,-59.037905
30815,,9.667388,-0.064305,1.841104,0.720630,-0.004192,0.266582,-3.308715,-79.689226,-58.180991
30816,,9.677587,0.186160,1.860556,0.661950,0.004950,0.260098,-3.797532,-79.682680,-57.313460
30817,,9.543703,0.361999,1.864357,0.556149,0.011560,0.240692,-4.233588,-79.671547,-56.543829
30818,,9.495896,0.447915,1.842065,0.439657,0.011274,0.217926,-4.710817,-79.660529,-55.817676
30819,,9.604970,0.348082,1.810394,0.314709,0.009414,0.198915,-5.152472,-79.650469,-55.182932
30820,,9.638840,0.269880,1.801249,0.203785,0.016590,0.184931,-5.655452,-79.636081,-54.563808
30821,,9.613487,0.204618,1.684609,0.110661,0.027489,0.163366,-6.094778,-79.615921,-54.050236
30822,,9.597243,0.139972,1.602261,0.031510,0.032814,0.138985,-6.542252,-79.593426,-53.586757
30823,,9.630647,-0.005149,1.559708,-0.014797,0.024502,0.117485,-6.908829,-79.576669,-53.220181
30824,,9.769279,-0.223647,1.576997,-0.036248,0.032211,0.104058,-7.281173,-79.555855,-52.875559
30825,,9.738607,-0.288455,1.534500,-0.032774,0.027862,0.089306,-7.567469,-79.538462,-52.601058
30826,,9.704999,-0.232161,1.546203,-0.013494,0.021766,0.076496,-7.843679,-79.525186,-52.340449
30827,,9.765058,-0.197608,1.602067,0.009051,0.001628,0.060537,-8.027519,-79.524506,-52.145760
30828,,9.837298,-0.212792,1.671401,0.019072,-0.000602,0.049435,-8.211326,-79.525989,-51.957332
30829,,9.853448,-0.165523,1.756506,0.020495,-0.001124,0.036789,-8.317039,-79.528618,-51.835436
30830,,9.860845,-0.223401,1.843849,0.022219,-0.004101,0.032694,-8.448069,-79.533330,-51.699773
30831,,9.921631,-0.321298,1.826813,0.029332,0.006899,0.026638,-8.514053,-79.532181,-51.613143
30832,,9.832876,-0.334086,1.780970,0.044511,0.009413,0.032416,-8.625625,-79.529242,-51.481109
30833,,9.823404,-0.305758,1.855993,0.057963,0.000621,0.034018,-8.700747,-79.530958,-51.368513
30834,,9.921120,-0.328429,1.828319,0.068571,-0.006543,0.040051,-8.827756,-79.536139,-51.209945
30835,,9.953686,-0.328287,1.854743,0.070814,-0.002846,0.053742,-8.957775,-79.537983,-51.034049
30836,,9.918814,-0.390782,1.882534,0.071873,-0.003167,0.060101,-9.143020,-79.539307,-50.812334
30837,,9.914127,-0.467304,1.919962,0.079844,-0.000609,0.065492,-9.302856,-79.538618,-50.600866
30838,,10.067428,-0.591908,1.949903,0.098635,0.016628,0.072961,-9.500877,-79.527101,-50.353126
30839,,10.101445,-0.751161,1.997780,0.124671,0.035892,0.081433,-9.664402,-79.504024,-50.111779
30840,,10.106626,-0.767888,1.840427,0.166636,0.059190,0.086390,-9.841143,-79.466714,-49.845883
30841,,9.916069,-0.817033,1.884213,0.222500,0.078672,0.089461,-9.947998,-79.418455,-49.605118
30842,,9.725305,-0.827783,1.857217,0.281349,0.077470,0.088158,-10.053229,-79.370387,-49.343093
30843,,9.637150,-0.791475,1.944285,0.332445,0.070579,0.083148,-10.079587,-79.327189,-49.120074
30844,,9.638352,-0.601023,1.967457,0.347135,0.061295,0.080008,-10.129433,-79.288749,-48.877013
30845,,9.562840,-0.438834,2.064508,0.331515,0.059335,0.072721,-10.129412,-79.252892,-48.681338
30846,,9.551663,-0.475641,2.110899,0.298407,0.060250,0.066678,-10.166566,-79.216158,-48.478256
30847,,9.600707,-0.539637,2.177077,0.273103,0.057325,0.064450,-10.175217,-79.182239,-48.307787
30848,,9.647439,-0.654719,2.120109,0.267356,0.059343,0.059250,-10.206802,-79.146430,-48.128642
30849,,9.738691,-0.712140,2.068079,0.273493,0.064095,0.062005,-10.203268,-79.108916,-47.970321
30850,,9.704966,-0.682052,1.977095,0.272953,0.075308,0.074800,-10.267464,-79.062232,-47.754958
30851,,9.661813,-0.619832,1.959380,0.278804,0.072024,0.082831,-10.315786,-79.018065,-47.540681
30852,,9.697905,-0.548773,1.954974,0.261837,0.073771,0.095531,-10.445782,-78.969901,-47.262823
30853,,9.773169,-0.491674,1.993770,0.232677,0.074290,0.105324,-10.581498,-78.921942,-46.986369
30854,,9.750650,-0.413381,2.058274,0.174802,0.083014,0.111928,-10.799513,-78.866437,-46.668896
30855,,9.750830,-0.403777,2.083642,0.106072,0.086794,0.116192,-11.027527,-78.809888,-46.372209
30856,,9.754465,-0.499997,2.076500,0.050099,0.085386,0.119004,-11.329550,-78.751620,-46.041399
30857,,9.738283,-0.548684,2.018504,-0.005978,0.082525,0.128472,-11.652914,-78.695484,-45.712841
30858,,9.724512,-0.581092,1.976617,-0.045409,0.083329,0.131920,-12.039621,-78.635966,-45.351882
30859,,9.713262,-0.596898,1.950458,-0.078162,0.071615,0.140340,-12.436977,-78.583657,-44.989915
30860,,9.684398,-0.616075,1.856566,-0.104520,0.065699,0.137271,-12.875838,-78.532292,-44.609341
30861,,9.725173,-0.591386,1.849849,-0.122677,0.076865,0.126823,-13.251226,-78.477773,-44.295693
30862,,9.613330,-0.565162,1.937596,-0.139528,0.072065,0.109379,-13.622156,-78.425537,-44.007013
30863,,9.659186,-0.711255,1.970760,-0.151315,0.059340,0.094176,-13.931036,-78.384444,-43.777906
30864,,9.681509,-0.858607,2.009327,-0.132480,0.060574,0.079475,-14.220620,-78.342140,-43.565974
30865,,9.675903,-0.955326,1.964738,-0.105428,0.070132,0.064593,-14.412845,-78.298807,-43.429082
30866,,9.611089,-1.039178,1.989711,-0.047551,0.072498,0.058883,-14.587750,-78.252429,-43.285568
30867,,9.597853,-1.064029,1.946079,0.010569,0.065272,0.062336,-14.708678,-78.211951,-43.153580
30868,,9.588456,-1.001041,1.952301,0.067175,0.058120,0.071378,-14.859694,-78.171443,-42.968123
30869,,9.561803,-0.818337,1.941437,0.090340,0.056983,0.077092,-14.977911,-78.133242,-42.792177
30870,,9.577600,-0.700961,2.063613,0.074800,0.047749,0.091171,-15.182499,-78.095271,-42.547067
30871,,9.715743,-0.659270,2.137752,0.031848,0.047804,0.102661,-15.405442,-78.058035,-42.298300
30872,,9.779327,-0.715011,2.180658,-0.026861,0.053078,0.118756,-15.732743,-78.012346,-41.987191
30873,,9.783308,-0.744993,2.202538,-0.090204,0.060156,0.127539,-16.077232,-77.963844,-41.685581
30874,,9.905527,-0.817813,2.177074,-0.141020,0.060600,0.149796,-16.539935,-77.908147,-41.298710
30875,,9.913369,-0.923421,2.092868,-0.187341,0.075889,0.178874,-17.052674,-77.841538,-40.881818
30876,,9.682816,-0.812028,1.957818,-0.214397,0.084063,0.187712,-17.624146,-77.764915,-40.431832
30877,,9.535967,-0.865872,1.982984,-0.231369,0.068342,0.185865,-18.174925,-77.699508,-40.001613
30878,,9.642479,-1.016750,2.068214,-0.237083,0.053966,0.180639,-18.755937,-77.638711,-39.552032
30879,,9.710102,-1.101717,2.125409,-0.226764,0.055114,0.171853,-19.270657,-77.581313,-39.155841
30880,,9.685880,-1.177043,2.223975,-0.210742,0.065055,0.153130,-19.750523,-77.517947,-38.794785
30881,,9.595112,-1.202914,2.178738,-0.183532,0.060231,0.138690,-20.147402,-77.462886,-38.493755
30882,,9.657494,-1.247375,2.130777,-0.150143,0.063068,0.125604,-20.521214,-77.404775,-38.205114
30883,,9.652531,-1.208954,2.046466,-0.109534,0.065673,0.121485,-20.823778,-77.349449,-37.957165
30884,,9.597315,-1.087576,1.993040,-0.080159,0.071583,0.120918,-21.134101,-77.286949,-37.691375
30885,,9.491323,-0.954098,2.041299,-0.073847,0.056792,0.116652,-21.408174,-77.236797,-37.451571
30886,,9.536201,-0.910361,2.051369,-0.079031,0.048387,0.105781,-21.698866,-77.189239,-37.205474
30887,,9.615222,-1.020159,2.141968,-0.078679,0.044686,0.092034,-21.925733,-77.150261,-37.016846
30888,,9.674610,-1.094843,2.165905,-0.067973,0.042978,0.084607,-22.162513,-77.109633,-36.819134
30889,,9.651919,-1.088645,2.192498,-0.051718,0.045961,0.074325,-22.329341,-77.073495,-36.676205
30890,,9.610011,-1.097854,2.135138,-0.033362,0.042497,0.054065,-22.472901,-77.039380,-36.557240
30891,,9.610002,-1.032468,2.067481,-0.014111,0.043566,0.048287,-22.559197,-77.010063,-36.474815
30892,,9.597702,-0.950919,2.056026,-0.004641,0.033666,0.040742,-22.664509,-76.983463,-36.374039
30893,,9.628647,-0.900895,2.104340,-0.002293,0.026407,0.032687,-22.724110,-76.966597,-36.312058
30894,,9.706974,-0.846286,2.140726,-0.013855,0.028231,0.025791,-22.804384,-76.946124,-36.243686
30895,,9.682586,-0.798835,2.167062,-0.031504,0.031956,0.008895,-22.820955,-76.931576,-36.243060
30896,,9.626410,-0.803769,2.147798,-0.052701,0.029671,-0.007656,-22.845319,-76.917788,-36.253996
30897,,9.620416,-0.837895,2.115862,-0.063135,0.028040,-0.023192,-22.810874,-76.912431,-36.324362
30898,,9.635478,-0.885949,2.060839,-0.062369,0.028132,-0.034650,-22.779538,-76.905456,-36.400402
30899,,9.521546,-0.805192,2.037557,-0.059508,0.024186,-0.047766,-22.690967,-76.907542,-36.524218
30900,,9.566104,-0.814675,2.010215,-0.065235,0.015217,-0.054388,-22.629063,-76.911814,-36.630960
30901,,9.653737,-0.856090,2.042592,-0.068625,0.008724,-0.061331,-22.529364,-76.924978,-36.771566
30902,,9.704190,-0.881492,2.030502,-0.067175,0.009077,-0.067800,-22.443380,-76.935465,-36.903395
30903,,9.707315,-0.858798,2.047963,-0.064592,0.008362,-0.074550,-22.311076,-76.951584,-37.075096
30904,,9.649735,-0.873914,2.008734,-0.067555,0.002943,-0.078460,-22.205095,-76.967578,-37.229825
30905,,9.662046,-1.004908,2.004609,-0.065042,-0.002380,-0.085473,-22.057262,-76.991580,-37.417715
30906,,9.697787,-1.029669,2.030546,-0.054986,-0.004294,-0.097849,-21.905907,-77.015507,-37.609658
30907,,9.613916,-0.958649,2.015124,-0.042392,-0.006812,-0.100454,-21.713305,-77.044809,-37.830141
30908,,9.628930,-0.967199,2.063446,-0.048993,-0.015527,-0.104923,-21.550334,-77.075967,-38.032510
30909,,9.647649,-1.061236,2.091931,-0.048492,-0.019527,-0.109451,-21.350036,-77.113615,-38.264428
30910,,9.652290,-1.085974,2.088596,-0.041483,-0.019406,-0.109823,-21.172937,-77.147573,-38.477088
30911,,9.618925,-1.043877,2.059599,-0.042936,-0.017483,-0.111579,-20.960248,-77.184211,-38.718394
30912,,9.640647,-1.120774,2.105089,-0.045185,-0.020331,-0.102103,-20.802467,-77.216753,-38.913120
30913,,9.701406,-1.193371,2.105581,-0.043433,-0.013817,-0.097988,-20.616692,-77.248329,-39.127068
30914,,9.653022,-1.206773,2.098507,-0.042936,-0.003513,-0.094434,-20.459367,-77.269978,-39.320863
30915,,9.583356,-1.206463,2.115004,-0.037230,-0.004157,-0.079057,-20.304959,-77.292308,-39.498982
30916,,9.672369,-1.244988,2.145492,-0.036400,-0.004329,-0.064774,-20.216183,-77.308272,-39.615362
30917,,9.700008,-1.271948,2.138095,-0.039667,0.003089,-0.054423,-20.114862,-77.321683,-39.740482
30918,,9.655468,-1.132815,2.114644,-0.045436,0.006181,-0.045027,-20.069157,-77.327893,-39.819586
30919,,9.560647,-1.088431,2.155869,-0.064685,0.000021,-0.038911,-20.021731,-77.339842,-39.904160
30920,,9.658730,-1.110759,2.130973,-0.084735,0.003325,-0.038360,-20.017499,-77.346178,-39.963218
30921,,9.673883,-1.178157,2.162031,-0.102270,0.015599,-0.036662,-19.983311,-77.349276,-40.056301
30922,,9.570853,-1.258482,2.222822,-0.102177,0.027040,-0.035759,-19.974555,-77.342215,-40.131955
30923,,9.534096,-1.293446,2.161296,-0.088562,0.019299,-0.031486,-19.941771,-77.342283,-40.215561
30924,,9.608267,-1.318920,2.143479,-0.064607,0.016097,-0.029475,-19.937159,-77.339725,-40.264264
30925,,9.652983,-1.329700,2.115502,-0.043910,0.017922,-0.017099,-19.914552,-77.337706,-40.311231
30926,,9.637316,-1.332385,2.156250,-0.023133,0.021881,-0.004171,-19.942090,-77.326931,-40.304780
30927,,9.627037,-1.157865,2.091758,-0.019089,0.021562,0.007618,-19.961373,-77.318113,-40.294248
30928,,9.550345,-1.030319,2.149205,-0.029647,0.015320,0.016587,-20.049931,-77.306742,-40.225649
30929,,9.585106,-1.065090,2.176324,-0.052020,0.006631,0.017416,-20.124470,-77.304016,-40.177827
30930,,9.729203,-1.159112,2.211215,-0.059542,0.014911,0.014650,-20.225563,-77.293100,-40.114684
30931,,9.711788,-1.232730,2.215470,-0.053250,0.024423,0.009083,-20.265260,-77.282421,-40.103310
30932,,9.614900,-1.189391,2.152383,-0.046500,0.020783,0.006557,-20.334289,-77.269782,-40.066496
30933,,9.626423,-1.153537,2.116067,-0.033193,0.021143,0.008526,-20.364001,-77.260962,-40.053588
30934,,9.682154,-1.201989,2.121152,-0.015338,0.022043,0.017507,-20.440519,-77.245359,-39.990409
30935,,9.642960,-1.137473,2.098122,0.007139,0.020949,0.025635,-20.487789,-77.233199,-39.935815
30936,,9.619174,-1.022928,2.160802,0.006908,0.014576,0.023928,-20.573704,-77.220216,-39.849639
30937,,9.644601,-1.006305,2.173838,-0.002168,0.010904,0.035152,-20.657536,-77.211480,-39.763028
30938,,9.706009,-1.073471,2.194583,-0.010948,0.018328,0.023399,-20.749121,-77.196479,-39.680480
30939,,9.675950,-1.061320,2.186008,-0.013795,0.022056,0.028479,-20.813686,-77.183060,-39.620463
30940,,9.632966,-1.082371,2.108949,-0.012018,0.019139,0.024257,-20.906253,-77.167290,-39.539127
30941,,9.660718,-1.048721,2.139953,-0.009531,0.018777,0.025103,-20.963150,-77.156270,-39.484473
30942,,9.712950,-1.063816,2.146593,-0.008311,0.022201,0.025407,-21.053533,-77.138541,-39.402615
30943,,9.730910,-1.097922,2.108409,-0.005237,0.029479,0.030511,-21.110756,-77.120643,-39.345107
30944,,9.708614,-1.086982,2.134716,-0.002956,0.036725,0.038432,-21.214832,-77.092360,-39.246465
30945,,9.689386,-1.111114,2.160085,-0.003046,0.039235,0.046334,-21.298379,-77.065915,-39.160661
30946,,9.688780,-1.167266,2.145141,0.002981,0.042322,0.055655,-21.433615,-77.030938,-39.025586
30947,,9.747441,-1.181958,2.082146,0.005569,0.058033,0.065909,-21.539500,-76.990275,-38.911781
30948,,9.754084,-1.240416,2.103238,0.011354,0.071277,0.073641,-21.683610,-76.935898,-38.762937
30949,,9.731732,-1.335662,2.096578,0.029349,0.088090,0.084078,-21.788391,-76.875260,-38.636240
30950,,9.714447,-1.449077,2.107218,0.054872,0.089305,0.097699,-21.943614,-76.805943,-38.451227
30951,,9.747295,-1.417937,2.073753,0.088383,0.092566,0.109293,-22.065009,-76.737369,-38.272661
30952,,9.650306,-1.316919,2.160588,0.106144,0.079069,0.118558,-22.245115,-76.668702,-38.030271
30953,,9.622120,-1.222205,2.106225,0.105854,0.079539,0.125669,-22.401583,-76.603231,-37.805278
30954,,9.563009,-1.188610,2.217408,0.096099,0.077861,0.124055,-22.596997,-76.533594,-37.552775
30955,,9.541707,-1.217702,2.246959,0.086587,0.063767,0.115557,-22.752931,-76.478365,-37.339575
30956,,9.544377,-1.243835,2.269863,0.079319,0.054876,0.105961,-22.936088,-76.424448,-37.108226
