// Start Time: Unknown
// Update Rate: 100.0Hz
// Filter Profile: human (46.1)
// Firmware Version: 4.3.5
PacketCounter,SampleTimeFine,Acc_X,Acc_Y,Acc_Z,Gyr_X,Gyr_Y,Gyr_Z,Roll,Pitch,Yaw
30464,,9.895540,-0.015438,0.410868,0.050322,-0.010268,0.004433,-3.728328,-87.468265,-9.923509
30465,,9.897525,-0.034430,0.424769,0.055766,-0.009468,-0.005574,-3.632099,-87.473884,-9.987848
30466,,9.929828,-0.039372,0.412553,0.059163,-0.013293,0.002782,-3.645279,-87.481439,-9.940725
30467,,9.941903,-0.018441,0.436068,0.068175,-0.017161,-0.004967,-3.555579,-87.491431,-9.991412
30468,,9.943930,-0.037073,0.449281,0.076664,-0.017153,-0.000865,-3.514431,-87.501380,-9.988632
30469,,9.921821,0.008484,0.468792,0.078744,-0.016589,0.000096,-3.483890,-87.510864,-9.974042
30470,,9.921896,0.008709,0.467195,0.080391,-0.015469,0.002875,-3.486156,-87.519542,-9.925667
30471,,9.918042,0.046973,0.435986,0.077786,-0.010768,0.007368,-3.547715,-87.525441,-9.819440
30472,,9.895914,0.092059,0.456081,0.076216,-0.008029,0.002133,-3.525767,-87.529723,-9.797675
30473,,9.892060,0.077112,0.397570,0.074571,-0.003297,0.013349,-3.662780,-87.531129,-9.617768
30474,,9.885862,0.103914,0.473214,0.075077,-0.000013,0.009046,-3.700145,-87.530645,-9.537239
30475,,9.871870,0.101668,0.433509,0.069266,0.004959,0.011946,-3.814408,-87.527361,-9.383146
30476,,9.837662,0.125355,0.430158,0.065449,0.007991,0.011851,-3.851569,-87.521960,-9.308275
30477,,9.871831,0.099669,0.434861,0.062076,0.009129,0.016377,-4.023759,-87.516098,-9.100323
30478,,9.871798,0.098349,0.435894,0.057129,0.012977,0.015631,-4.068565,-87.507737,-9.022492
30479,,9.902061,0.110386,0.411140,0.054271,0.016051,0.022261,-4.313717,-87.497633,-8.745982
30480,,9.936185,0.083727,0.416847,0.050021,0.019641,0.023969,-4.421896,-87.485332,-8.608711
30481,,9.905792,0.067977,0.445042,0.048715,0.022662,0.022986,-4.668717,-87.471345,-8.333713
30482,,9.944254,0.138597,0.415696,0.044561,0.021559,0.021116,-4.706010,-87.458202,-8.270472
30483,,9.944183,0.136783,0.417988,0.036409,0.025667,0.018765,-4.898095,-87.442648,-8.057317
30484,,9.935893,0.128999,0.453530,0.033466,0.026244,0.021462,-4.884550,-87.427580,-8.051169
30485,,9.899730,0.117919,0.409364,0.026360,0.027028,0.015826,-5.040204,-87.411367,-7.880237
30486,,9.857271,0.135420,0.440872,0.024023,0.026164,0.010611,-4.831319,-87.397463,-8.074942
30487,,9.824880,0.086925,0.426906,0.020384,0.026995,0.010839,-4.926550,-87.381524,-7.967917
30488,,9.850657,0.055594,0.466663,0.017613,0.026694,0.007436,-4.643996,-87.367498,-8.239910
30489,,9.818246,0.007492,0.452793,0.023587,0.028054,0.005997,-4.676251,-87.351200,-8.194092
30490,,9.848531,0.020913,0.429200,0.023426,0.023043,-0.001849,-4.267514,-87.339693,-8.588966
30491,,9.880699,0.015780,0.420475,0.026374,0.022470,-0.004528,-4.176068,-87.327051,-8.665386
30492,,9.852059,-0.069142,0.436159,0.030112,0.016944,-0.008314,-3.728576,-87.320254,-9.095342
30493,,9.902681,-0.027870,0.403480,0.038778,0.016104,-0.010261,-3.568623,-87.311424,-9.233214
30494,,9.852797,0.015282,0.345620,0.045544,0.012514,-0.012797,-3.050351,-87.306567,-9.725537
30495,,9.861022,0.075497,0.341107,0.047543,0.009258,-0.009318,-2.903970,-87.301547,-9.844810
30496,,9.891365,0.142842,0.343527,0.037394,0.014000,-0.002278,-2.551040,-87.298396,-10.175997
30497,,9.845187,0.199922,0.342878,0.013415,0.006045,-0.000461,-2.534733,-87.294946,-10.184621
30498,,9.847027,0.180646,0.358600,-0.013356,0.004995,0.005429,-2.316968,-87.296352,-10.409876
30499,,9.847033,0.179678,0.358939,-0.038821,0.000937,0.012329,-2.488103,-87.295518,-10.260830
30500,,9.796363,0.138014,0.393090,-0.058210,-0.006459,0.014236,-2.409458,-87.306782,-10.371499
30501,,9.825937,0.067846,0.459909,-0.064697,-0.009753,0.013577,-2.617173,-87.312024,-10.200652
30502,,9.797417,0.033955,0.500100,-0.065465,-0.012000,0.007205,-2.350988,-87.325180,-10.504567
30503,,9.853731,0.016410,0.510048,-0.058874,-0.012079,-0.002126,-2.364877,-87.332140,-10.524446
30504,,9.867607,0.018212,0.549312,-0.049017,-0.001389,-0.004884,-1.889016,-87.340440,-11.027811
30505,,9.865761,-0.015460,0.506557,-0.043042,-0.000027,-0.006316,-1.836120,-87.340568,-11.105459
30506,,9.845461,0.011038,0.542650,-0.040112,0.006608,-0.001489,-1.435945,-87.339910,-11.529136
30507,,9.839871,0.015422,0.470544,-0.033880,0.009599,-0.005091,-1.391056,-87.334459,-11.593547
30508,,9.851805,-0.016643,0.469054,-0.029566,0.017041,-0.001782,-0.983842,-87.331155,-12.015736
30509,,9.884002,-0.022286,0.459796,-0.026797,0.017343,0.001631,-1.017088,-87.321185,-11.997817
30510,,9.871924,0.009561,0.464312,-0.026106,0.017090,0.004098,-0.773827,-87.310167,-12.257928
30511,,9.858035,0.007319,0.426028,-0.027490,0.016281,0.005619,-0.856805,-87.300762,-12.190682
30512,,9.890246,0.001043,0.416728,-0.027926,0.016847,0.007440,-0.535071,-87.299880,-12.525098
30513,,9.893810,0.014785,0.476360,-0.025335,0.019342,0.010506,-0.676924,-87.288710,-12.397591
30514,,9.881750,-0.007279,0.453531,-0.030972,0.022124,0.013722,-0.689673,-87.277445,-12.402208
30515,,9.873297,0.038092,0.516123,-0.028365,0.016093,0.015713,-0.896528,-87.268052,-12.211363
30516,,9.828963,0.021225,0.503929,-0.033305,0.019946,0.014952,-0.703260,-87.262883,-12.421076
30517,,9.806731,0.012098,0.499126,-0.036859,0.024613,0.012676,-0.877236,-87.248629,-12.267968
30518,,9.816776,-0.002686,0.483673,-0.034529,0.025474,0.017912,-0.922386,-87.234782,-12.241950
30519,,9.847144,0.009032,0.460327,-0.039291,0.027136,0.017501,-1.151155,-87.219005,-12.035373
30520,,9.847030,-0.045760,0.435283,-0.045179,0.029623,0.016448,-1.031018,-87.201283,-12.184151
30521,,9.834963,-0.068060,0.412939,-0.035727,0.023814,0.013357,-1.208458,-87.187407,-12.027000
30522,,9.836615,-0.088929,0.430591,-0.032799,0.030438,0.018212,-1.262575,-87.170599,-11.992667
30523,,9.870561,-0.115506,0.437147,-0.024386,0.019418,0.017314,-1.478310,-87.159138,-11.790697
30524,,9.875743,-0.174647,0.484075,-0.015459,0.020194,0.013188,-1.480325,-87.147047,-11.801332
30525,,9.904423,-0.143095,0.444964,-0.001859,0.015473,0.011979,-1.620444,-87.137884,-11.662234
30526,,9.907845,-0.182385,0.476537,0.009581,0.016233,0.006979,-1.647549,-87.130403,-11.630055
30527,,9.873710,-0.157934,0.473915,0.029859,0.013931,0.000354,-1.634417,-87.122325,-11.626221
30528,,9.851537,-0.165198,0.468120,0.049436,0.010559,-0.002283,-1.714458,-87.118544,-11.515542
30529,,9.805490,-0.107851,0.468047,0.068478,0.012455,0.000513,-1.684482,-87.111275,-11.506370
30530,,9.812122,-0.028985,0.449080,0.075261,0.010188,-0.008479,-1.513744,-87.109006,-11.634302
30531,,9.752422,0.027637,0.408581,0.073363,0.007453,-0.009063,-1.374537,-87.104741,-11.731700
30532,,9.755879,-0.009506,0.439484,0.071803,0.008853,-0.007871,-1.298110,-87.099753,-11.773444
30533,,9.818721,-0.000582,0.403687,0.068854,0.009443,-0.005166,-1.206118,-87.094255,-11.826259
30534,,9.816945,0.019400,0.389320,0.068519,0.005316,-0.006922,-1.126290,-87.094809,-11.867309
30535,,9.861145,0.035537,0.403822,0.062981,0.003408,-0.007294,-1.016598,-87.092765,-11.941220
30536,,9.862813,0.070402,0.446978,0.062371,0.006182,-0.005809,-0.836377,-87.095057,-12.086920
30537,,9.917209,0.073508,0.443700,0.050871,0.004232,-0.011209,-0.688144,-87.092568,-12.206378
30538,,9.906976,0.087781,0.461774,0.033885,0.001549,-0.006630,-0.546384,-87.096044,-12.332842
30539,,9.951247,0.050979,0.448431,0.017619,0.001239,-0.012483,-0.402633,-87.095242,-12.466943
30540,,9.922419,0.019753,0.489668,0.008265,0.002344,-0.013012,-0.264851,-87.097435,-12.603350
30541,,9.934379,-0.010905,0.487228,0.004819,0.002291,-0.018897,-0.057555,-87.095974,-12.808471
30542,,9.912272,-0.016544,0.480369,0.000668,0.001178,-0.020802,0.077157,-87.097604,-12.945378
30543,,9.910501,0.004508,0.465452,-0.004536,0.003395,-0.019425,0.283204,-87.095419,-13.154658
30544,,9.890154,-0.020296,0.473870,-0.009125,0.002848,-0.019515,0.474011,-87.096854,-13.354564
30545,,9.833954,-0.001502,0.462685,-0.015104,0.001491,-0.018092,0.657903,-87.095676,-13.547773
30546,,9.854257,0.026675,0.455005,-0.021364,0.007038,-0.013432,0.756111,-87.091784,-13.674066
30547,,9.855990,0.008979,0.470945,-0.032528,0.009213,-0.017074,0.915378,-87.086086,-13.852828
30548,,9.801521,0.008303,0.475587,-0.037557,0.009234,-0.015343,0.950771,-87.080662,-13.921815
30549,,9.833802,0.004011,0.465898,-0.041812,0.012831,-0.013655,1.061942,-87.072835,-14.057910
30550,,9.847532,-0.046171,0.479808,-0.045803,0.018060,-0.014125,0.931978,-87.063496,-13.947474
30551,,9.849428,-0.117178,0.469063,-0.043727,0.018623,-0.013163,1.030116,-87.052316,-14.071573
30552,,9.879701,-0.049448,0.472797,-0.029011,0.021650,-0.012583,1.131128,-87.044837,-14.183786
30553,,9.857524,-0.056105,0.467829,-0.028326,0.021397,-0.010113,1.201582,-87.032092,-14.271253
30554,,9.867463,-0.015021,0.479789,-0.024664,0.021898,-0.016760,1.366074,-87.023994,-14.449221
30555,,9.870906,-0.052198,0.512111,-0.031282,0.021974,-0.007425,1.403518,-87.010944,-14.505310
30556,,9.833389,-0.041613,0.452082,-0.029449,0.022228,-0.010745,1.425582,-87.000430,-14.550534
30557,,9.845349,-0.072967,0.451509,-0.027375,0.022787,-0.009786,1.488779,-86.986846,-14.630245
30558,,9.886138,-0.071443,0.410053,-0.018705,0.021945,-0.011722,1.440484,-86.976773,-14.590715
30559,,9.863690,-0.024903,0.432905,-0.010211,0.023303,-0.014000,1.556358,-86.962810,-14.713319
30560,,9.885660,-0.016031,0.442219,-0.015064,0.021120,-0.011931,1.844089,-86.958352,-15.008947
30561,,9.851439,0.009565,0.439809,-0.016277,0.018107,-0.010079,1.916871,-86.947442,-15.091827
30562,,9.851359,0.010390,0.441595,-0.021307,0.018123,-0.008351,1.885292,-86.940789,-15.072794
30563,,9.818908,0.016653,0.453990,-0.021811,0.016185,-0.010470,1.957810,-86.930953,-15.158595
30564,,9.785048,-0.010809,0.423359,-0.017046,0.014536,-0.010036,1.818662,-86.926161,-15.017892
30565,,9.786394,0.023842,0.467546,-0.014797,0.012892,-0.008741,1.874410,-86.918233,-15.082772
30566,,9.752194,0.049289,0.464340,-0.019887,0.010406,-0.010954,1.845529,-86.915481,-15.069863
30567,,9.774197,0.057986,0.472364,-0.023853,0.007098,-0.012520,1.936771,-86.910774,-15.175536
30568,,9.786252,0.026594,0.470377,-0.028824,0.009612,-0.006853,1.871449,-86.909227,-15.124694
30569,,9.827159,0.027861,0.427768,-0.034535,0.009889,-0.007586,1.901558,-86.903000,-15.175267
30570,,9.904943,0.072353,0.475599,-0.029592,0.015921,-0.012133,2.012803,-86.899576,-15.301050
30571,,9.898704,0.237398,0.488292,-0.025298,0.023561,-0.025568,2.232502,-86.885146,-15.536148
30572,,9.991291,0.611314,0.477154,-0.009961,0.063565,-0.064493,2.821573,-86.849401,-16.153068
30573,,9.985374,0.957030,0.638346,-0.000349,0.112629,-0.119754,3.957530,-86.780508,-17.291764
30574,,10.067617,1.407115,0.919533,-0.046032,0.162265,-0.189507,5.576342,-86.680837,-18.940657
30575,,9.922163,2.101516,1.138648,-0.109259,0.219911,-0.295722,8.072288,-86.535206,-21.504507
30576,,9.747658,2.831496,1.398786,-0.228278,0.209612,-0.436125,11.629385,-86.373825,-25.182815
30577,,9.815753,3.028079,1.334809,-0.429253,0.184664,-0.543381,15.633016,-86.197371,-29.442008
30578,,9.917381,2.766899,1.028602,-0.619879,0.185947,-0.607357,19.992934,-85.976684,-34.181135
30579,,9.993206,2.362674,0.811565,-0.757182,0.185608,-0.649993,23.759943,-85.739162,-38.393770
30580,,10.107196,1.876470,0.671686,-0.873146,0.184821,-0.680972,27.615305,-85.454395,-42.757101
30581,,10.133973,1.563863,0.685743,-0.976706,0.184031,-0.702700,30.693970,-85.166350,-46.408363
30582,,10.246122,1.282540,0.594934,-1.050245,0.181085,-0.725356,33.842275,-84.828583,-50.180328
30583,,10.317496,0.952901,0.601861,-1.085325,0.191018,-0.733994,36.215459,-84.497941,-53.189255
30584,,10.336297,0.570588,0.664309,-1.086754,0.204184,-0.738946,38.511647,-84.122459,-56.110943
30585,,10.244823,0.305295,0.609747,-1.015814,0.221971,-0.729049,40.195740,-83.759833,-58.390562
30586,,10.030594,0.117151,0.649324,-0.905817,0.221574,-0.723638,41.880620,-83.369812,-60.593759
30587,,9.823506,0.144905,0.658789,-0.820305,0.194856,-0.709140,43.268365,-83.013501,-62.465362
30588,,9.651811,0.200950,0.477514,-0.763545,0.149149,-0.685785,44.689795,-82.662865,-64.331898
30589,,9.685570,0.224061,0.376479,-0.743387,0.116759,-0.653758,45.890825,-82.350590,-65.973486
30590,,9.745441,0.168975,0.424452,-0.712236,0.116635,-0.605856,47.000687,-82.033988,-67.493754
30591,,9.684452,0.196644,0.600657,-0.687335,0.110716,-0.549098,47.761600,-81.760630,-68.660652
30592,,9.705387,0.178941,0.690257,-0.686078,0.101692,-0.503275,48.431500,-81.497268,-69.734936
30593,,9.835757,0.033283,0.782025,-0.681945,0.088199,-0.448452,48.897106,-81.272188,-70.601573
30594,,9.983384,-0.220339,0.741566,-0.670991,0.093354,-0.372892,49.215061,-81.068093,-71.300028
30595,,10.065506,-0.534627,0.774039,-0.623602,0.115204,-0.287814,49.208780,-80.901442,-71.655861
30596,,10.032687,-0.889139,0.835782,-0.565594,0.114367,-0.186831,48.958608,-80.789697,-71.728719
30597,,10.109203,-1.121132,0.843191,-0.504425,0.106434,-0.077087,48.552664,-80.717794,-71.610634
30598,,10.000440,-1.324891,0.773624,-0.423885,0.103922,0.020586,48.003935,-80.686848,-71.302104
30599,,9.987100,-1.517137,0.912457,-0.327164,0.099002,0.118816,47.266520,-80.700388,-70.745222
30600,,10.012736,-1.766571,1.005002,-0.249099,0.098964,0.241178,46.246162,-80.773584,-69.857367
30601,,10.025299,-2.037855,0.878152,-0.155521,0.090617,0.388308,44.947147,-80.897617,-68.632246
30602,,10.013366,-2.272639,0.748225,-0.060887,0.091166,0.548770,43.189426,-81.095523,-66.880921
30603,,9.963958,-2.462880,0.635745,0.064454,0.087068,0.705188,41.054738,-81.330849,-64.683873
30604,,9.985591,-2.522590,0.665448,0.187643,0.056807,0.849351,38.404687,-81.639643,-61.884224
30605,,10.071963,-2.686886,0.564113,0.309239,0.046448,0.995017,35.287020,-81.961392,-58.555562
30606,,10.061836,-2.845063,0.274471,0.472790,0.055672,1.131047,31.299996,-82.317556,-54.249955
30607,,9.933481,-2.829917,0.454663,0.642230,0.071723,1.243742,26.780993,-82.628522,-49.320640
30608,,10.013750,-2.737961,0.794058,0.761811,0.070369,1.351214,21.289458,-82.929244,-43.329488
30609,,10.212787,-2.623622,0.972793,0.833517,0.085564,1.470862,15.061526,-83.146092,-36.574158
30610,,10.357241,-2.635014,0.923762,0.887372,0.118910,1.589128,7.557222,-83.276103,-28.491626
30611,,10.499116,-2.642995,0.867064,0.957068,0.159986,1.696521,-0.180076,-83.246685,-20.148196
30612,,10.625169,-2.579201,0.913956,1.011849,0.189572,1.785118,-8.369523,-83.065174,-11.313408
30613,,10.662710,-2.371380,0.940208,1.058737,0.220290,1.848911,-15.876048,-82.717533,-3.137236
30614,,10.707515,-2.104378,1.115560,1.049500,0.255004,1.903844,-22.885984,-82.215896,4.558926
30615,,10.828718,-2.008100,1.171742,1.003187,0.274903,1.981108,-29.006024,-81.575528,11.321708
30616,,10.943231,-2.066189,1.017364,0.935935,0.301087,2.075088,-34.568589,-80.793797,17.504429
30617,,10.999287,-2.150810,1.068135,0.852738,0.340907,2.183869,-39.271425,-79.884203,22.771126
30618,,11.081795,-2.289205,1.198205,0.744578,0.353469,2.294927,-43.430167,-78.868996,27.447400
30619,,11.091234,-2.476302,1.314206,0.622609,0.376574,2.393293,-47.000327,-77.742693,31.458360
30620,,10.990991,-2.739313,1.321241,0.499145,0.404779,2.472028,-50.154376,-76.514561,34.994158
30621,,10.869036,-2.916487,1.452337,0.402672,0.428499,2.534127,-52.753177,-75.225592,37.913009
30622,,10.748495,-3.183895,1.591094,0.315824,0.449590,2.593800,-55.120016,-73.830159,40.547540
30623,,10.774081,-3.399072,1.727847,0.242813,0.454518,2.656810,-57.065845,-72.421390,42.727428
30624,,10.724514,-3.733671,1.611761,0.214924,0.447907,2.723949,-58.904752,-70.907293,44.782856
30625,,10.803053,-3.990668,1.414193,0.184491,0.429741,2.798324,-60.450913,-69.398970,46.540203
30626,,10.680738,-4.378964,1.231060,0.175933,0.420017,2.880868,-61.936677,-67.781263,48.232057
30627,,10.511754,-4.518926,1.356635,0.154540,0.385349,2.941898,-63.212529,-66.183452,49.715685
30628,,10.442769,-4.764021,1.478299,0.120779,0.338568,2.990747,-64.487909,-64.505063,51.181439
30629,,10.489944,-5.046975,1.497869,0.106288,0.286163,3.034864,-65.607888,-62.859406,52.500119
30630,,10.495833,-5.482255,1.319853,0.123150,0.226986,3.083333,-66.721325,-61.137424,53.826147
30631,,10.434371,-5.832519,1.098521,0.177804,0.182362,3.125666,-67.665702,-59.446137,55.032030
30632,,10.254535,-6.143157,0.941990,0.239351,0.162916,3.149060,-68.544545,-57.685441,56.205890
30633,,9.783214,-6.534796,0.651386,0.340492,0.108073,3.166707,-69.258721,-55.970486,57.293559
30634,,9.354184,-6.884605,0.427506,0.506920,0.001946,3.161361,-69.924822,-54.222497,58.440064
30635,,9.074108,-7.112119,0.278915,0.701022,-0.114296,3.115227,-70.419667,-52.565726,59.558302
30636,,8.967973,-6.996750,0.541732,0.927665,-0.184894,3.020379,-70.795061,-50.919749,60.689283
30637,,9.126192,-6.430123,1.168373,1.109454,-0.189128,2.915904,-70.936669,-49.376992,61.703322
30638,,9.096620,-5.808272,1.556461,1.203157,-0.145711,2.819111,-70.983005,-47.831204,62.656958
30639,,8.946296,-5.420302,1.530029,1.277140,-0.089068,2.769557,-70.859689,-46.348339,63.489347
30640,,8.752494,-5.239493,1.367918,1.308707,-0.051079,2.758339,-70.711790,-44.824827,64.303685
30641,,8.611876,-5.409071,1.406423,1.248888,-0.016484,2.780894,-70.515544,-43.325097,65.052028
30642,,8.354629,-5.559740,1.658753,1.088938,-0.002004,2.801675,-70.424019,-41.778193,65.809109
30643,,7.994905,-5.616246,1.719952,0.900884,-0.016579,2.767026,-70.377124,-40.287971,66.525786
30644,,7.728202,-5.707517,1.627300,0.754168,-0.041521,2.701813,-70.427296,-38.809009,67.251343
30645,,7.444676,-6.168295,1.590338,0.668118,-0.056639,2.639298,-70.464049,-37.395005,67.933238
30646,,7.188213,-6.765015,1.500744,0.623667,-0.079846,2.595690,-70.541257,-35.984902,68.626216
30647,,6.912721,-7.183202,1.517587,0.611947,-0.084942,2.554273,-70.566855,-34.621221,69.279327
30648,,6.538634,-7.443353,1.612045,0.663333,-0.077599,2.513639,-70.569176,-33.258145,69.925750
30649,,6.252375,-7.532854,1.774449,0.756985,-0.103767,2.465341,-70.471299,-31.946415,70.551331
30650,,5.996151,-7.498567,1.912561,0.859288,-0.115513,2.407652,-70.329298,-30.652079,71.182569
30651,,5.693257,-7.463338,1.921099,0.950007,-0.138726,2.349753,-70.090469,-29.412324,71.795393
30652,,5.411112,-7.426344,1.902856,1.040354,-0.191508,2.294757,-69.829014,-28.200166,72.442250
30653,,5.312162,-7.337817,1.931237,1.103802,-0.249787,2.251145,-69.500078,-27.040607,73.099531
30654,,5.175687,-7.228916,2.092304,1.124351,-0.290976,2.210498,-69.185556,-25.902031,73.786502
30655,,5.044407,-7.076683,2.148279,1.099837,-0.322441,2.179638,-68.847776,-24.802293,74.472205
30656,,4.662736,-6.920610,2.251423,1.038700,-0.360553,2.131070,-68.567860,-23.729847,75.181775
30657,,4.253115,-6.794987,2.397242,0.939369,-0.378593,2.049898,-68.300223,-22.717424,75.871059
30658,,4.025616,-6.542587,2.687268,0.828070,-0.405131,1.969908,-68.112484,-21.747819,76.567219
30659,,3.906872,-6.224873,3.060800,0.676786,-0.426904,1.880900,-67.968995,-20.839926,77.243221
30660,,3.869887,-5.716180,3.370008,0.463543,-0.408482,1.775267,-67.951114,-19.978953,77.890897
30661,,3.724077,-5.425507,3.570189,0.265559,-0.381453,1.649248,-67.995905,-19.185077,78.482111
30662,,3.598259,-5.285536,3.911539,0.103737,-0.365911,1.496170,-68.133137,-18.464555,79.032967
30663,,3.436225,-5.745884,4.097688,-0.041080,-0.339922,1.355103,-68.309123,-17.815959,79.526469
30664,,3.264993,-6.697743,3.956213,-0.125847,-0.345802,1.264035,-68.540169,-17.213779,80.004198
30665,,3.250740,-7.941902,3.516892,-0.062143,-0.339001,1.205159,-68.706243,-16.641721,80.456408
30666,,2.992885,-8.422751,2.944404,0.162050,-0.352509,1.135859,-68.752402,-16.108056,80.902901
30667,,2.865495,-7.868270,2.585671,0.436218,-0.350457,1.004708,-68.614005,-15.644927,81.315014
30668,,2.777870,-6.890133,2.809975,0.608979,-0.318756,0.845755,-68.375475,-15.261106,81.679603
30669,,3.076498,-6.182494,3.182924,0.623509,-0.291473,0.718020,-68.100062,-14.941101,81.998313
30670,,3.333474,-5.670671,3.452719,0.562166,-0.267318,0.626632,-67.863983,-14.667184,82.287863
30671,,3.167810,-5.086635,3.615918,0.452044,-0.253160,0.550567,-67.669627,-14.430226,82.549980
30672,,2.918593,-4.610739,3.781292,0.277168,-0.233912,0.460992,-67.578245,-14.240951,82.784311
30673,,2.738763,-4.563867,3.991432,0.047398,-0.217128,0.384763,-67.600146,-14.084737,82.989702
30674,,2.678206,-5.285970,4.035794,-0.191686,-0.206120,0.326916,-67.761366,-13.962265,83.177319
30675,,2.799550,-6.399943,3.742747,-0.308321,-0.224459,0.262604,-67.980413,-13.871494,83.358546
30676,,2.941192,-7.369262,3.556541,-0.312291,-0.222389,0.200823,-68.202703,-13.819606,83.525550
30677,,2.925146,-7.974220,3.488005,-0.254032,-0.195038,0.138173,-68.379785,-13.787552,83.662717
30678,,2.649682,-8.208789,3.323375,-0.182468,-0.172363,0.078989,-68.513700,-13.790079,83.775211
30679,,2.729219,-7.944836,3.536738,-0.124432,-0.167401,0.022846,-68.606930,-13.813119,83.872172
30680,,2.986826,-7.866792,3.644710,-0.161535,-0.138271,0.006527,-68.720202,-13.847279,83.950231
30681,,2.976032,-8.044539,3.709716,-0.208935,-0.106438,0.001077,-68.852823,-13.868939,84.009121
30682,,2.998697,-8.364820,3.637300,-0.257849,-0.093034,-0.011994,-69.013438,-13.904219,84.058217
30683,,3.026997,-8.768332,3.693412,-0.282233,-0.058456,-0.038234,-69.179792,-13.936803,84.082504
30684,,3.040860,-8.980414,3.831755,-0.288663,-0.033305,-0.077618,-69.346219,-13.995523,84.084889
30685,,3.006730,-9.198943,3.763419,-0.309295,0.002525,-0.115187,-69.516130,-14.056977,84.059696
30686,,2.745625,-9.568023,3.494128,-0.280015,0.009847,-0.124456,-69.668866,-14.132648,84.028659
30687,,2.731681,-9.315132,3.456813,-0.189753,0.005905,-0.105141,-69.770345,-14.188156,84.003952
30688,,2.806002,-8.692072,3.483931,-0.128089,0.046814,-0.099625,-69.832212,-14.243164,83.957688
30689,,2.901410,-8.134765,3.599763,-0.124935,0.086597,-0.114692,-69.885025,-14.287951,83.886374
30690,,3.062051,-7.677434,3.804327,-0.176488,0.156048,-0.139909,-69.956801,-14.343606,83.771144
30691,,2.993659,-7.303229,3.905364,-0.250261,0.225802,-0.169975,-70.059345,-14.391074,83.611364
30692,,2.866926,-7.298758,3.907704,-0.337155,0.262748,-0.180139,-70.204501,-14.448860,83.428356
30693,,2.864245,-7.880003,3.693313,-0.449939,0.275092,-0.183016,-70.413702,-14.494663,83.238695
30694,,2.926041,-8.509844,3.325037,-0.470190,0.290844,-0.193920,-70.628640,-14.556222,83.037120
30695,,3.029663,-8.599617,3.376148,-0.417801,0.327024,-0.249056,-70.808532,-14.629230,82.805759
30696,,3.132762,-8.200051,3.361807,-0.341655,0.386965,-0.358907,-70.927014,-14.763538,82.518354
30697,,3.056290,-7.285600,3.328042,-0.251282,0.450348,-0.497834,-70.980416,-14.949145,82.169792
30698,,3.019075,-5.946643,3.340398,-0.189816,0.497794,-0.697169,-70.975656,-15.247158,81.754171
30699,,3.066360,-4.512056,3.687907,-0.174956,0.571495,-0.940500,-70.940588,-15.649900,81.250715
30700,,3.300066,-3.664559,4.243479,-0.283164,0.651368,-1.168153,-70.931808,-16.175134,80.654322
30701,,3.644563,-3.646487,4.458878,-0.520082,0.685839,-1.295843,-71.047357,-16.749301,80.014792
30702,,3.733802,-4.252213,4.069771,-0.814156,0.721304,-1.332572,-71.305770,-17.355022,79.344191
30703,,3.551488,-5.310453,3.508748,-1.071485,0.731503,-1.332626,-71.714974,-17.946432,78.673015
30704,,3.209846,-6.710375,2.896853,-1.214943,0.742830,-1.352991,-72.182737,-18.569376,77.988919
30705,,2.977171,-7.811933,2.472355,-1.164566,0.772511,-1.411139,-72.620806,-19.206444,77.284684
30706,,3.071834,-8.240400,2.266778,-0.983137,0.825075,-1.550285,-72.913875,-19.932188,76.520630
30707,,3.458993,-7.699701,2.246300,-0.762398,0.894065,-1.764640,-73.058222,-20.749329,75.682717
30708,,4.164411,-6.976775,2.461855,-0.581641,0.988604,-2.008514,-73.034594,-21.701690,74.735484
30709,,4.990718,-6.811635,2.517992,-0.536304,1.073250,-2.148097,-72.953768,-22.699032,73.711588
30710,,5.607272,-7.013150,2.665263,-0.644792,1.015946,-2.111394,-72.915491,-23.702259,72.712972
30711,,6.226772,-6.997895,2.546645,-0.889225,0.937455,-2.016127,-73.041390,-24.649812,71.779329
30712,,5.875338,-7.162028,2.128923,-1.090234,0.925454,-1.977761,-73.255901,-25.599995,70.847964
30713,,5.246803,-7.903171,1.818417,-1.115993,0.898267,-2.034726,-73.489333,-26.570026,69.927434
30714,,4.944975,-8.242023,1.744193,-1.035023,0.874141,-2.182102,-73.637127,-27.647681,68.981638
30715,,5.062581,-7.876599,1.640476,-0.871791,0.892418,-2.370498,-73.666761,-28.807297,67.990829
30716,,5.497414,-7.496299,1.404729,-0.670704,0.915909,-2.522611,-73.518656,-30.065374,66.934819
30717,,5.905886,-7.365120,1.068249,-0.461423,0.872500,-2.573901,-73.246885,-31.335831,65.887163
30718,,6.539440,-7.108556,1.039393,-0.362122,0.786031,-2.545150,-72.902939,-32.619888,64.869142
30719,,6.953382,-6.631960,1.376990,-0.463531,0.735031,-2.475224,-72.628315,-33.849908,63.885803
30720,,7.012196,-6.570085,1.627532,-0.654305,0.733088,-2.435950,-72.423646,-35.076282,62.881517
30721,,6.918710,-6.852307,1.664249,-0.810208,0.731007,-2.459518,-72.293180,-36.292557,61.864204
30722,,7.151589,-7.135512,1.925955,-0.900660,0.740165,-2.543023,-72.154019,-37.572615,60.791629
30723,,7.440038,-7.057325,2.197983,-0.907802,0.770213,-2.657062,-71.972736,-38.885406,59.660190
30724,,7.661184,-6.625146,2.185136,-0.834685,0.774287,-2.760360,-71.676581,-40.271997,58.461194
30725,,8.237512,-6.220304,2.121645,-0.756166,0.765831,-2.837967,-71.298700,-41.674901,57.226142
30726,,8.870494,-5.925101,1.950289,-0.701965,0.774999,-2.864457,-70.811413,-43.105969,55.922242
30727,,9.424699,-5.902788,1.918543,-0.689841,0.805250,-2.856999,-70.265011,-44.496011,54.563678
30728,,9.529515,-6.142731,1.917155,-0.701107,0.810577,-2.825907,-69.647501,-45.882104,53.141468
30729,,9.545315,-6.138340,2.097387,-0.702051,0.786205,-2.848869,-68.994298,-47.250519,51.689850
30730,,9.556665,-6.071538,2.141326,-0.653677,0.741193,-2.928058,-68.228196,-48.682690,50.167657
30731,,9.769243,-5.872988,1.814355,-0.525857,0.649069,-3.020115,-67.362688,-50.144619,48.633018
30732,,10.024427,-5.690579,1.368368,-0.382052,0.605201,-3.109985,-66.300897,-51.671593,46.995423
30733,,9.876335,-5.597850,1.191522,-0.201265,0.615342,-3.194563,-65.016122,-53.194366,45.230841
30734,,9.580209,-5.495497,1.459607,-0.026998,0.642341,-3.274057,-63.427200,-54.749004,43.258107
30735,,9.338015,-5.357246,2.088739,0.113475,0.701670,-3.332980,-61.557970,-56.257634,41.070760
30736,,8.921748,-5.136593,2.559806,0.190996,0.766729,-3.352983,-59.371736,-57.737190,38.604718
30737,,8.917654,-4.736506,2.442282,0.235068,0.716944,-3.299974,-57.045542,-59.128468,36.034406
30738,,9.663230,-4.309826,2.153635,0.240912,0.616270,-3.215139,-54.592191,-60.476711,33.365543
30739,,10.555458,-4.137952,1.535654,0.229636,0.512205,-3.143684,-52.082583,-61.746943,30.651277
30740,,10.619357,-3.837420,0.886427,0.189435,0.414735,-3.138389,-49.408787,-63.010610,27.765343
30741,,10.057615,-3.582797,0.484998,0.135181,0.293680,-3.208166,-46.594855,-64.264745,24.712989
30742,,10.191460,-3.468830,0.130385,0.135907,0.124016,-3.249516,-43.559455,-65.554177,21.455618
30743,,10.787676,-3.232277,0.215117,0.103787,0.081803,-3.262567,-40.278396,-66.768931,17.935314
30744,,10.924596,-3.021736,0.789772,0.022587,0.134294,-3.272951,-36.587866,-67.895519,13.957321
30745,,10.674994,-2.922750,1.760304,-0.064019,0.148129,-3.272141,-32.602880,-68.891006,9.633497
30746,,10.396959,-2.604377,2.425901,-0.132364,0.127445,-3.214821,-28.317887,-69.781630,4.980032
30747,,10.377379,-2.209649,2.805292,-0.268340,0.079931,-3.107074,-23.984446,-70.525923,0.211246
30748,,10.578421,-1.823025,3.011667,-0.424798,0.040731,-2.958923,-19.611495,-71.150347,-4.668679
30749,,10.752560,-1.713987,3.010710,-0.645395,0.012568,-2.785262,-15.452430,-71.624723,-9.445847
30750,,10.777451,-2.142671,2.789983,-0.787617,0.001009,-2.629529,-11.376241,-71.986556,-14.204409
30751,,10.784715,-2.564750,2.823834,-0.841987,0.016836,-2.506975,-7.462795,-72.212369,-18.822372
30752,,10.640357,-2.903053,2.925195,-0.787216,0.050444,-2.388201,-3.577193,-72.324718,-23.368401
30753,,10.475328,-3.100995,2.842690,-0.659142,0.058333,-2.259230,0.112966,-72.330464,-27.636229
30754,,10.532532,-3.113147,2.684545,-0.489473,0.041617,-2.105592,3.670487,-72.273525,-31.658483
30755,,10.686396,-2.922750,2.767941,-0.333494,0.049664,-1.948500,6.938484,-72.141895,-35.289902
30756,,10.682011,-2.615203,2.909852,-0.246763,0.066531,-1.803014,9.986249,-71.957425,-38.636466
30757,,10.753014,-2.464814,2.844543,-0.243362,0.061899,-1.651751,12.658875,-71.736713,-41.594454
30758,,10.698887,-2.367928,2.579131,-0.230891,0.058016,-1.511636,15.076115,-71.501551,-44.275875
30759,,10.250098,-2.330051,2.585148,-0.219877,0.047443,-1.399192,17.215683,-71.252366,-46.665262
30760,,9.802471,-2.303485,2.619299,-0.197777,-0.007741,-1.269410,19.163785,-71.034611,-48.838992
30761,,9.515949,-2.185795,2.382185,-0.171379,-0.069912,-1.124180,20.860013,-70.851693,-50.736139
30762,,9.303762,-2.143130,1.992519,-0.135914,-0.091456,-0.957364,22.326342,-70.704369,-52.367544
30763,,9.010795,-2.050941,1.783898,-0.072776,-0.113671,-0.783260,23.536236,-70.589367,-53.692788
30764,,8.768870,-1.939120,1.649123,-0.022617,-0.156872,-0.614633,24.557697,-70.535228,-54.786323
30765,,8.665994,-1.876109,1.518410,0.020010,-0.215564,-0.445371,25.373880,-70.539366,-55.638514
30766,,8.602972,-1.897556,1.204508,0.059484,-0.282638,-0.286178,26.039932,-70.623151,-56.305709
30767,,8.671004,-1.939398,1.015191,0.132057,-0.328743,-0.140931,26.562943,-70.756106,-56.778433
30768,,8.582071,-2.157664,0.864891,0.227426,-0.380493,-0.000287,26.985103,-70.961799,-57.084928
30769,,8.599785,-2.158711,0.644926,0.430893,-0.481715,0.116340,27.430008,-71.237625,-57.292952
30770,,8.813211,-2.160635,0.499661,0.654871,-0.555114,0.215650,27.922219,-71.590247,-57.414385
30771,,8.991820,-2.160349,0.387250,0.876906,-0.593660,0.282203,28.482735,-71.966313,-57.474264
30772,,8.954603,-1.870949,0.458393,1.094969,-0.641039,0.329157,29.144524,-72.395234,-57.508755
30773,,9.011969,-1.538867,0.588577,1.259393,-0.705594,0.387509,29.887861,-72.856325,-57.530290
30774,,9.110315,-1.087970,0.660742,1.372730,-0.787387,0.460733,30.665749,-73.397517,-57.519822
30775,,9.270290,-0.613945,0.750913,1.445653,-0.860555,0.524348,31.487259,-73.974794,-57.511495
30776,,9.554746,-0.102167,1.137071,1.453640,-0.891767,0.583596,32.259471,-74.605454,-57.447069
30777,,9.734040,0.203173,1.453908,1.405127,-0.894217,0.639307,32.946777,-75.234351,-57.323857
30778,,9.916674,0.417170,1.692115,1.372944,-0.895730,0.692570,33.523396,-75.902091,-57.105574
30779,,10.179132,0.590070,1.730812,1.337111,-0.888158,0.750754,33.986928,-76.564126,-56.792827
30780,,10.150919,0.661369,1.769404,1.293827,-0.863714,0.799931,34.273660,-77.252062,-56.324714
30781,,10.198859,0.725924,1.735233,1.242256,-0.848189,0.831799,34.447361,-77.922180,-55.772573
30782,,10.232672,0.781353,1.788826,1.207440,-0.850744,0.856399,34.497297,-78.622718,-55.115624
30783,,10.363356,0.944219,1.621936,1.175668,-0.855305,0.880320,34.464855,-79.312215,-54.395093
30784,,10.355594,1.051131,1.537399,1.147089,-0.843275,0.877241,34.315513,-80.015337,-53.573822
30785,,10.587142,1.223277,1.322441,1.121333,-0.858073,0.852469,34.215291,-80.696663,-52.819304
30786,,10.674197,1.445774,1.297477,1.094813,-0.823924,0.791668,34.109165,-81.361943,-52.075360
30787,,10.852033,1.580154,1.420926,1.084354,-0.776542,0.718774,34.110563,-81.961307,-51.447682
30788,,10.924795,1.619917,1.631036,1.065295,-0.711029,0.662431,34.048539,-82.530546,-50.767546
30789,,11.056633,1.471839,1.641021,1.055481,-0.657048,0.619967,33.996110,-83.041374,-50.103971
30790,,10.784023,1.387376,1.681738,1.093294,-0.599008,0.570935,33.898818,-83.526717,-49.373692
30791,,10.633269,1.369194,1.578220,1.089360,-0.562928,0.493439,34.033379,-83.952253,-48.880010
30792,,10.505774,1.612001,1.361930,1.084023,-0.525744,0.399827,34.405143,-84.346893,-48.627768
30793,,10.344283,1.990669,1.238665,1.056701,-0.477109,0.305887,35.140568,-84.671487,-48.757203
30794,,10.293424,2.186986,1.253455,0.972000,-0.423430,0.235408,35.990625,-84.962825,-49.049900
30795,,10.212926,2.096731,1.225545,0.885058,-0.354823,0.187881,36.900774,-85.190413,-49.453306
30796,,10.043597,2.106541,1.183565,0.791845,-0.309497,0.138019,37.852888,-85.393528,-49.951746
30797,,10.025871,1.833665,1.048043,0.696068,-0.268651,0.115164,38.810686,-85.555303,-50.511345
30798,,9.924023,1.522314,0.966023,0.607916,-0.231763,0.095659,39.666058,-85.705766,-51.018221
30799,,9.887035,1.168605,0.830022,0.555710,-0.214963,0.068966,40.656690,-85.825486,-51.691170
30800,,9.915492,0.954541,0.740475,0.520163,-0.191548,0.068213,41.518104,-85.945987,-52.254348
30801,,9.951678,0.972710,0.585427,0.489746,-0.171926,0.051608,42.432978,-86.039107,-52.889054
30802,,10.180444,0.915875,0.615824,0.411516,-0.142125,0.046412,43.167875,-86.128483,-53.387680
30803,,10.304343,0.854970,0.550291,0.364132,-0.111859,0.050262,43.729834,-86.194930,-53.740687
30804,,10.462937,0.902572,0.494931,0.339741,-0.078175,0.038267,44.136674,-86.253490,-53.951682
30805,,10.535712,0.910468,0.595070,0.294978,-0.045673,0.011687,44.520684,-86.277009,-54.166030
30806,,10.533312,0.571113,0.614459,0.252607,-0.014361,0.006967,44.695476,-86.296303,-54.194521
30807,,10.335908,0.280861,0.577214,0.269349,-0.002197,0.020420,44.743280,-86.305562,-54.086671
30808,,10.230672,0.311129,0.517963,0.318017,0.004609,0.032412,44.675037,-86.327130,-53.834087
30809,,10.088743,0.510688,0.614900,0.326194,0.013303,0.017216,44.677594,-86.328792,-53.648269
30810,,9.952201,0.640427,0.703691,0.303429,0.018410,-0.011420,44.790066,-86.326834,-53.585168
30811,,9.958210,0.497988,0.616228,0.274403,0.025438,-0.029153,44.979830,-86.304878,-53.616681
30812,,9.772003,0.386987,0.485638,0.272430,0.042685,-0.036409,45.078277,-86.282598,-53.557346
30813,,9.726581,0.448176,0.376512,0.255694,0.047514,-0.033077,45.142609,-86.250129,-53.473907
30814,,9.653872,0.345763,0.313992,0.240510,0.052422,-0.020712,45.066296,-86.230128,-53.257775
30815,,9.611420,0.254792,0.225318,0.249227,0.049780,-0.009331,44.969410,-86.206368,-53.016480
30816,,9.601068,0.327055,0.162528,0.240328,0.043610,-0.012886,44.902472,-86.193069,-52.809845
30817,,9.595536,0.269601,0.176051,0.207207,0.038438,-0.004456,44.823701,-86.175856,-52.610830
30818,,9.639793,0.213374,0.112680,0.175442,0.030288,0.005038,44.694113,-86.175236,-52.378663
30819,,9.608220,0.141904,0.045707,0.172614,0.020061,0.019669,44.560583,-86.175186,-52.144633
30820,,9.575971,0.237937,0.012329,0.170935,0.002701,0.033878,44.418377,-86.197539,-51.902408
30821,,9.705172,0.328694,0.089812,0.140377,-0.010411,0.030118,44.384237,-86.214105,-51.786509
30822,,9.678183,0.257325,0.092562,0.114075,-0.013764,0.043752,44.246483,-86.247261,-51.581406
30823,,9.743684,0.242869,0.069850,0.113097,-0.036563,0.052904,44.210941,-86.283661,-51.479777
30824,,9.723825,0.286330,0.154836,0.117184,-0.039976,0.063956,44.104542,-86.335764,-51.304325
30825,,9.831430,0.403046,0.260578,0.118362,-0.049721,0.059883,44.105563,-86.380361,-51.236325
30826,,9.945398,0.371637,0.281840,0.096562,-0.049475,0.050420,44.132654,-86.430978,-51.206487
30827,,9.961743,0.317490,0.293937,0.092403,-0.051910,0.054871,44.164912,-86.474493,-51.184697
30828,,9.905560,0.287152,0.235966,0.091927,-0.054999,0.059302,44.166555,-86.530890,-51.132032
30829,,9.946197,0.393837,0.304049,0.086654,-0.055612,0.056650,44.207831,-86.576651,-51.122583
30830,,9.911243,0.449157,0.330580,0.074248,-0.050690,0.055587,44.196245,-86.629759,-51.066824
30831,,9.917231,0.540683,0.353076,0.063917,-0.047745,0.051761,44.205079,-86.670352,-51.037934
30832,,10.011929,0.521135,0.424752,0.034969,-0.035611,0.044922,44.142484,-86.712837,-50.953641
30833,,9.987281,0.431930,0.443745,0.018672,-0.024149,0.040731,44.038315,-86.739334,-50.837535
30834,,9.969158,0.494443,0.407040,0.012715,-0.015607,0.040401,43.851861,-86.771537,-50.641978
30835,,10.058777,0.472477,0.408744,-0.012790,-0.011035,0.028227,43.724821,-86.787631,-50.521029
30836,,10.020471,0.416515,0.429976,-0.025163,0.003990,0.025550,43.483819,-86.805567,-50.292601
30837,,10.064042,0.356391,0.365366,-0.041915,0.010736,0.015605,43.277723,-86.807594,-50.109195
30838,,10.047304,0.273196,0.355990,-0.060010,0.024134,0.001835,43.050451,-86.807572,-49.914534
30839,,10.047149,0.310814,0.398163,-0.068033,0.034661,0.004276,42.747557,-86.795066,-49.649170
30840,,10.069670,0.412825,0.362964,-0.079751,0.034128,-0.001834,42.468721,-86.789216,-49.414202
30841,,10.004411,0.384772,0.348206,-0.120940,0.040522,0.002420,42.113392,-86.773368,-49.126681
30842,,9.952623,0.286377,0.295185,-0.157534,0.041323,0.005864,41.687539,-86.767119,-48.789112
30843,,9.849128,0.128116,0.223163,-0.168142,0.037969,0.013349,41.245199,-86.756297,-48.441526
30844,,9.807183,-0.040831,0.236130,-0.161028,0.028743,0.014467,40.839360,-86.758469,-48.126015
30845,,9.741180,-0.239721,0.185292,-0.139432,0.024303,0.022491,40.436601,-86.756731,-47.801601
30846,,9.710989,-0.292915,0.174972,-0.082873,0.025681,0.035586,39.929733,-86.767993,-47.340050
30847,,9.690048,-0.136605,0.205151,-0.035275,0.021762,0.038456,39.477705,-86.772935,-46.906524
30848,,9.752342,0.017884,0.327940,-0.012497,0.021326,0.038078,39.011825,-86.786847,-46.445649
30849,,9.775112,0.154295,0.332112,-0.012014,0.032424,0.045004,38.449103,-86.788971,-45.887917
30850,,9.791812,0.269799,0.387288,-0.023690,0.038349,0.040034,37.846557,-86.795431,-45.296604
30851,,9.846201,0.232105,0.348187,-0.043212,0.039848,0.035746,37.293219,-86.790330,-44.766182
30852,,9.899161,0.101606,0.353856,-0.068621,0.048380,0.021042,36.757483,-86.784937,-44.267583
30853,,9.823206,0.011039,0.276670,-0.060796,0.046426,0.019249,36.293381,-86.770657,-43.836626
30854,,9.844930,-0.019566,0.247958,-0.047939,0.040854,0.018567,35.838934,-86.767502,-43.407579
30855,,9.833904,-0.006776,0.268258,-0.038252,0.036447,0.009772,35.530625,-86.754360,-43.119724
30856,,9.863971,0.042004,0.284947,-0.029264,0.042779,0.013601,35.119117,-86.748464,-42.722968
30857,,9.898646,0.055845,0.334979,-0.038701,0.031773,0.003989,34.889664,-86.735439,-42.514352
30858,,9.844369,0.013822,0.301989,-0.041234,0.031712,0.004752,34.610571,-86.731701,-42.257097
30859,,9.900720,0.037220,0.358203,-0.051538,0.034737,0.000944,34.385249,-86.716200,-42.059987
30860,,9.911972,-0.052097,0.265209,-0.066753,0.019995,-0.007014,34.255941,-86.714156,-41.967411
30861,,9.951858,-0.184415,0.228097,-0.081647,0.019643,-0.014827,34.229998,-86.700685,-41.987290
30862,,9.859330,-0.353346,0.134318,-0.066319,0.015656,-0.006106,34.117202,-86.701151,-41.911003
30863,,9.811377,-0.335788,0.088433,-0.022510,0.002085,-0.001788,34.116210,-86.700217,-41.921939
30864,,9.814592,-0.146599,0.180018,0.014007,-0.011648,-0.007573,34.211976,-86.713489,-42.008451
30865,,9.800683,-0.001402,0.298177,0.018895,-0.002926,-0.008343,34.316913,-86.712829,-42.101734
30866,,9.782384,0.142148,0.343942,0.022447,0.003446,-0.017818,34.417099,-86.715774,-42.187826
30867,,9.755581,0.245152,0.383794,0.010739,0.008296,-0.016379,34.520009,-86.707206,-42.283764
30868,,9.759820,0.249034,0.458129,-0.004605,0.017589,-0.017515,34.522923,-86.703523,-42.287957
30869,,9.812019,0.235045,0.400033,-0.042975,0.014114,-0.024803,34.630422,-86.689478,-42.419325
30870,,9.815040,0.106871,0.299510,-0.045277,0.020917,-0.018662,34.601201,-86.683762,-42.414680
30871,,9.780294,0.093909,0.255072,-0.037925,0.019553,-0.018733,34.630871,-86.669140,-42.465197
30872,,9.855936,0.146807,0.299856,-0.029568,0.015453,-0.032471,34.753294,-86.661557,-42.603443
30873,,9.896871,0.185951,0.298442,-0.031097,0.024345,-0.036640,34.902665,-86.638828,-42.769952
30874,,9.948405,0.248939,0.320792,-0.032180,0.026231,-0.043726,35.051983,-86.622478,-42.936648
30875,,9.912421,0.351281,0.396384,-0.038748,0.029711,-0.053936,35.299277,-86.591485,-43.205655
30876,,9.984435,0.293689,0.429153,-0.088381,0.017679,-0.063848,35.617999,-86.572307,-43.574332
30877,,10.027520,-0.094773,0.293069,-0.127444,0.031339,-0.057219,35.821911,-86.539325,-43.850808
30878,,9.861748,-0.216177,0.112740,-0.111704,0.025623,-0.043863,35.922619,-86.523047,-44.014479
30879,,9.833766,-0.242756,0.157246,-0.074581,0.006897,-0.038246,36.141582,-86.507713,-44.275707
30880,,9.868362,-0.224702,0.204397,-0.049091,0.006939,-0.035194,36.312348,-86.503238,-44.473619
30881,,9.849793,-0.117138,0.211532,-0.027568,0.002297,-0.027347,36.498787,-86.493646,-44.675286
30882,,9.855127,-0.018644,0.241901,-0.004363,0.003843,-0.025732,36.639146,-86.493978,-44.817055
30883,,9.858675,0.022521,0.355941,0.002066,0.016480,-0.019941,36.706701,-86.480363,-44.882609
30884,,9.925258,0.071034,0.433949,-0.007889,0.010222,-0.013910,36.720150,-86.481894,-44.899257
30885,,9.895988,-0.015132,0.381648,-0.015045,0.012029,-0.009609,36.725237,-86.473879,-44.912052
30886,,9.888956,-0.129484,0.296053,-0.020090,0.009255,-0.011881,36.720919,-86.476579,-44.917907
30887,,9.839273,-0.130681,0.193697,0.005613,0.007104,-0.008433,36.756435,-86.471247,-44.949335
30888,,9.870786,-0.060733,0.264483,0.030817,0.008179,0.000549,36.693484,-86.478883,-44.867221
30889,,9.854375,0.026341,0.288323,0.038887,0.001406,-0.004652,36.751646,-86.477482,-44.902243
30890,,9.883528,0.114232,0.342098,0.045109,0.007207,-0.004252,36.737417,-86.484039,-44.860741
30891,,9.904492,0.161075,0.389660,0.035451,0.012715,-0.001787,36.709248,-86.478445,-44.811246
30892,,9.909722,0.088460,0.384691,0.020284,0.022444,0.001336,36.554073,-86.479909,-44.642789
30893,,9.947673,0.010633,0.370146,0.019328,0.017241,0.003642,36.451417,-86.474089,-44.527927
30894,,9.933087,-0.014633,0.275352,0.032892,0.015277,0.002763,36.331651,-86.479336,-44.387716
30895,,9.892688,0.080800,0.276593,0.040053,0.013476,-0.001520,36.300651,-86.473499,-44.332754
30896,,9.903778,0.066586,0.261277,0.043193,0.012260,0.006565,36.174348,-86.481506,-44.180086
30897,,9.826532,0.127408,0.338051,0.045940,0.003748,0.005056,36.150924,-86.482402,-44.129339
30898,,9.840513,0.226782,0.335094,0.038844,0.006697,0.002974,36.079168,-86.491811,-44.033827
30899,,9.873701,0.147454,0.426011,0.012700,0.013193,-0.001374,36.033213,-86.486178,-43.979592
30900,,9.871955,0.128222,0.371253,0.009098,0.021417,-0.006520,35.935340,-86.485533,-43.874999
30901,,9.843305,0.173155,0.316598,0.011919,0.020446,-0.013216,35.938931,-86.472566,-43.870857
30902,,9.885728,0.230696,0.371845,0.004661,0.020307,-0.023289,35.971397,-86.466807,-43.899403
30903,,9.916004,0.246323,0.347551,-0.012229,0.023034,-0.034706,36.107486,-86.445417,-44.041880
30904,,9.920464,0.214366,0.383623,-0.023915,0.031635,-0.035854,36.155783,-86.430146,-44.102703
30905,,9.907526,0.212402,0.346747,-0.026418,0.028931,-0.038875,36.280038,-86.404611,-44.241480
30906,,9.885768,0.207040,0.342702,-0.034914,0.024640,-0.040688,36.394294,-86.390908,-44.374715
30907,,9.890259,0.175572,0.378404,-0.054438,0.022379,-0.042386,36.560045,-86.367176,-44.571168
30908,,9.861315,0.091898,0.327456,-0.055389,0.023591,-0.038876,36.653316,-86.354544,-44.695143
30909,,9.823765,0.135864,0.306120,-0.049870,0.019385,-0.039514,36.813555,-86.333135,-44.883463
30910,,9.801220,0.167712,0.341187,-0.053066,0.019476,-0.041203,36.945077,-86.321615,-45.044442
30911,,9.847419,0.135013,0.333826,-0.058800,0.025897,-0.040941,37.072158,-86.296698,-45.204674
30912,,9.847281,0.138835,0.336314,-0.054898,0.023046,-0.040544,37.176956,-86.283772,-45.339933
30913,,9.815251,0.242008,0.305380,-0.049525,0.022191,-0.047963,37.374783,-86.258079,-45.565748
30914,,9.857171,0.301944,0.361470,-0.062906,0.024583,-0.042873,37.481264,-86.243637,-45.707305
30915,,9.828506,0.218834,0.310302,-0.078004,0.022653,-0.048495,37.659586,-86.217494,-45.929941
30916,,9.833054,0.187538,0.346005,-0.079661,0.026647,-0.043639,37.749263,-86.201815,-46.064287
30917,,9.798766,0.176802,0.301737,-0.075095,0.023639,-0.040789,37.867677,-86.177891,-46.225227
30918,,9.837480,0.159307,0.383853,-0.088240,0.017429,-0.036486,37.951175,-86.168916,-46.358321
30919,,9.880567,-0.006835,0.305272,-0.097945,0.019146,-0.031412,38.014682,-86.150316,-46.477362
30920,,9.833865,-0.024254,0.219884,-0.074160,0.013008,-0.022166,38.032229,-86.148455,-46.536275
30921,,9.781907,-0.044999,0.239975,-0.058599,0.004162,-0.016926,38.099028,-86.141740,-46.636027
30922,,9.764704,0.042598,0.264213,-0.050890,0.003655,-0.008625,38.088205,-86.149063,-46.653141
30923,,9.798763,0.057719,0.311423,-0.041256,0.000788,-0.007316,38.118338,-86.147284,-46.706191
30924,,9.811312,0.063497,0.351813,-0.039651,0.005850,-0.007124,38.092361,-86.154265,-46.701666
30925,,9.810144,0.100791,0.392784,-0.028895,0.008624,-0.003890,38.065521,-86.150184,-46.690520
30926,,9.819138,0.161107,0.457481,-0.025877,0.008123,-0.006385,38.030124,-86.156458,-46.668651
30927,,9.844768,0.210788,0.399372,-0.036423,0.009569,-0.007971,38.021481,-86.150530,-46.680071
30928,,9.922198,0.056883,0.366097,-0.058282,0.007646,-0.004689,37.958410,-86.157606,-46.649069
30929,,9.854587,-0.103601,0.274719,-0.048090,0.009810,0.006641,37.843691,-86.156735,-46.560879
30930,,9.804449,-0.069428,0.211735,-0.019003,-0.004821,0.013466,37.744820,-86.175949,-46.471460
30931,,9.812335,0.025921,0.315149,-0.009099,-0.012498,0.011366,37.737078,-86.186848,-46.468102
30932,,9.887047,0.075554,0.358758,-0.006098,-0.006596,0.010106,37.676310,-86.205831,-46.409460
30933,,9.910943,0.065795,0.381773,-0.002439,-0.000870,0.011292,37.611196,-86.211450,-46.344785
30934,,9.885938,0.110352,0.398822,0.002664,0.003097,0.007234,37.522503,-86.225074,-46.253132
30935,,9.885929,0.109709,0.399237,0.004975,0.005373,0.006079,37.464057,-86.226046,-46.190890
30936,,9.897228,0.095709,0.383081,-0.001589,0.005149,-0.001502,37.421296,-86.235703,-46.147718
30937,,9.827965,0.103742,0.329974,0.009822,0.007733,0.004171,37.366175,-86.234952,-46.086030
30938,,9.860773,0.099075,0.320687,0.009662,0.000917,-0.001264,37.350029,-86.246664,-46.063073
30939,,9.878763,0.162883,0.351854,0.010047,0.005540,0.004574,37.303688,-86.247069,-46.010060
30940,,9.881116,0.144646,0.368744,0.005938,0.004202,0.002584,37.240907,-86.258664,-45.942524
30941,,9.882247,0.107548,0.328735,0.003627,0.001925,0.003739,37.215700,-86.260445,-45.914383
30942,,9.902593,0.153355,0.376562,0.004350,0.009351,0.001081,37.134774,-86.269201,-45.829577
30943,,9.885372,0.239890,0.401546,-0.000416,0.008188,-0.003357,37.123640,-86.265686,-45.817865
30944,,9.861465,0.248953,0.379107,-0.001779,0.011144,-0.004457,37.068365,-86.271697,-45.762295
30945,,9.850075,0.263490,0.396900,-0.006287,0.011588,-0.011045,37.089791,-86.263992,-45.786589
30946,,9.852363,0.246604,0.414417,-0.018004,0.010001,-0.010778,37.076234,-86.268313,-45.782142
30947,,9.842119,0.224683,0.392091,-0.020731,0.015916,-0.012976,37.079996,-86.257985,-45.797033
30948,,9.863505,0.235534,0.400802,-0.024979,0.017972,-0.021709,37.096940,-86.254862,-45.827161
30949,,9.854395,0.233454,0.435718,-0.030707,0.017986,-0.022645,37.151239,-86.240266,-45.898431
30950,,9.898440,0.217707,0.411296,-0.031278,0.019369,-0.031425,37.224742,-86.233105,-45.988879
30951,,9.906042,0.261768,0.420584,-0.037661,0.019563,-0.034803,37.349645,-86.213578,-46.134907
30952,,9.915485,0.138219,0.391130,-0.046493,0.020880,-0.043763,37.490523,-86.201382,-46.301611
30953,,9.929293,0.055768,0.295776,-0.064017,0.020113,-0.054948,37.731662,-86.174528,-46.579278
30954,,9.910887,-0.098139,0.308318,-0.049227,0.016612,-0.044620,37.896354,-86.163952,-46.771456
30955,,9.856851,-0.154645,0.215116,-0.039511,0.012930,-0.032800,38.035542,-86.148058,-46.932885
30956,,9.849211,-0.192787,0.208563,-0.010450,0.004690,-0.024770,38.149201,-86.150007,-47.051604
