// Start Time: Unknown
// Update Rate: 100.0Hz
// Filter Profile: human (46.1)
// Firmware Version: 4.3.5
PacketCounter,Acc_X,Acc_Y,Acc_Z,Gyr_X,Gyr_Y,Gyr_Z
45588,9.606333,-1.268299,2.231764,0.141076,0.017525,-0.010683
45589,9.578897,-1.163345,2.106924,0.147003,0.022581,-0.010212
45590,9.514318,-1.069903,1.907176,0.128404,0.030498,-0.018104
45591,9.518948,-0.934091,1.666458,0.081235,0.030962,-0.009732
45592,9.509955,-0.826630,1.578578,0.012927,0.032195,-0.002436
45593,9.576549,-0.809487,1.641620,-0.039086,0.045871,-0.000577
45594,9.549294,-0.778362,1.797343,-0.085450,0.068924,-0.002026
45595,9.452484,-0.786352,1.883062,-0.138528,0.078764,-0.011515
45596,9.411530,-0.964953,2.013748,-0.188076,0.071390,-0.007091
45597,9.418633,-1.272925,2.264036,-0.208262,0.052713,0.006481
45598,9.566289,-1.543832,2.722082,-0.152601,0.032613,0.015711
45599,9.711496,-1.708911,3.292117,-0.020713,0.030373,0.037653
45600,9.831921,-1.674886,3.816945,0.102164,0.056809,0.051185
45601,9.844946,-1.748814,3.908784,0.229093,0.093007,0.064964
45602,9.701263,-1.703648,3.668829,0.354665,0.107651,0.075566
45603,9.734425,-1.495131,3.256728,0.433902,0.088918,0.067787
45604,9.929605,-1.476635,2.858160,0.484335,0.086394,0.049049
45605,9.895584,-1.440759,2.365477,0.577499,0.129685,0.022443
45606,9.692797,-1.134896,1.754544,0.573897,0.161354,0.014329
45607,9.591244,-1.092678,1.248240,0.499631,0.162281,-0.002535
45608,9.523885,-1.123244,0.973999,0.428433,0.157222,0.004491
45609,9.494653,-1.236273,0.900637,0.338959,0.156025,0.024637
45610,9.338116,-1.340865,1.043433,0.269638,0.156686,0.054318
45611,9.249557,-1.274061,1.262566,0.207719,0.152582,0.092598
45612,9.188932,-1.395841,1.516490,0.152863,0.143349,0.141345
45613,9.177490,-1.501543,1.994660,0.116807,0.145640,0.197494
45614,9.318268,-1.578214,2.600936,0.127927,0.182796,0.247505
45615,9.313366,-1.538083,3.161378,0.133891,0.243206,0.290909
45616,9.211036,-1.510446,3.377919,0.130712,0.295176,0.315614
45617,9.147504,-1.547338,3.385198,0.149582,0.312112,0.339038
45618,9.166819,-1.736799,3.241333,0.167883,0.300806,0.343671
45619,9.274368,-1.946350,3.234027,0.236837,0.277022,0.340348
45620,9.407797,-2.193733,3.192345,0.339375,0.264713,0.343216
45621,9.359263,-2.374257,2.831442,0.485926,0.248126,0.348476
45622,9.278004,-2.200260,2.246038,0.563598,0.215250,0.347072
45623,9.332994,-2.051423,1.725508,0.550603,0.159765,0.346174
45624,9.483180,-2.040999,1.403893,0.494513,0.121749,0.344038
45625,9.566735,-1.990169,1.351168,0.447523,0.097508,0.341939
45626,9.514853,-1.926073,1.416436,0.361312,0.098025,0.340129
45627,9.381544,-1.907404,1.541443,0.305740,0.097004,0.348966
45628,9.245022,-1.862454,1.785903,0.229885,0.091105,0.369391
45629,9.216483,-2.128133,2.453852,0.188271,0.084574,0.405501
45630,9.369961,-2.500265,3.548678,0.189175,0.098157,0.472662
45631,9.542187,-2.961480,4.655988,0.276623,0.162375,0.553296
45632,9.491132,-3.103289,5.362904,0.476959,0.217281,0.635692
45633,9.348495,-3.030340,5.507884,0.684712,0.244344,0.695896
45634,9.062255,-2.799384,5.233669,0.929683,0.237537,0.719238
45635,8.933899,-2.492787,4.545049,1.164547,0.207045,0.700357
45636,8.846777,-2.153149,3.543377,1.355756,0.153876,0.671156
45637,8.944088,-1.608508,2.285190,1.487138,0.056798,0.609581
45638,9.340296,-1.267092,1.270057,1.478611,-0.011322,0.553954
45639,9.590569,-1.153324,0.586655,1.389208,-0.040385,0.490201
45640,9.733386,-1.140841,0.290192,1.271755,-0.080559,0.428672
45641,9.795090,-1.318109,0.372131,1.114061,-0.076084,0.403969
45642,9.670517,-1.582203,0.601773,0.928928,-0.062062,0.421069
45643,9.608224,-1.872604,1.235062,0.719210,-0.020891,0.457693
45644,9.515888,-2.031717,2.430095,0.517136,0.070232,0.499066
45645,9.427297,-1.976288,3.706029,0.329676,0.186396,0.533639
45646,9.254418,-1.719503,4.699867,0.161517,0.313543,0.562784
45647,9.034773,-1.580413,5.121179,-0.040914,0.427797,0.582594
45648,8.767824,-1.859516,5.014063,-0.211789,0.468706,0.609102
45649,8.569725,-2.379792,4.508350,-0.207575,0.438624,0.627667
45650,8.534759,-2.888039,3.936309,-0.101743,0.385503,0.647195
45651,8.414285,-3.289974,3.178624,0.084694,0.317518,0.655815
45652,8.398913,-3.463424,2.291852,0.302199,0.232803,0.659196
45653,8.466099,-3.375135,1.516285,0.502079,0.141468,0.650214
45654,8.693829,-2.992114,1.107708,0.652820,0.070920,0.627304
45655,8.878315,-2.572809,1.057005,0.710139,0.026607,0.603059
45656,9.004818,-2.361190,1.237126,0.633800,0.030626,0.609746
45657,9.075958,-2.466401,1.667438,0.473579,0.043867,0.643727
45658,9.239119,-2.600335,2.383061,0.217509,0.096946,0.704674
45659,9.333034,-2.756322,3.504239,-0.064559,0.205045,0.760838
45660,9.196648,-2.874303,4.859981,-0.274685,0.342247,0.813111
45661,8.902240,-3.034651,6.258892,-0.496352,0.466793,0.867530
45662,8.733132,-3.736936,6.872975,-0.704488,0.623880,0.982895
45663,8.169465,-4.315724,5.913152,-0.822178,0.692345,1.115555
45664,8.018413,-4.396883,4.580588,-0.762734,0.625384,1.186141
45665,8.268447,-4.639250,3.751734,-0.676126,0.529532,1.186359
45666,8.581056,-5.286272,3.313030,-0.434406,0.449452,1.133296
45667,8.619632,-5.340762,3.151942,-0.033609,0.396162,1.077456
45668,8.470404,-5.068936,2.943948,0.377115,0.356164,1.075282
45669,8.244712,-4.661047,2.628904,0.640753,0.289168,1.105710
45670,8.291585,-4.067462,2.360830,0.782929,0.194541,1.116354
45671,8.641126,-3.319007,2.423753,0.788966,0.169528,1.102080
45672,8.649225,-3.067828,2.317583,0.626240,0.161894,1.073741
45673,8.822848,-3.211662,2.348533,0.427642,0.129188,1.063905
45674,9.116981,-3.464525,2.973494,0.182600,0.201496,1.078069
45675,8.969253,-3.557473,3.954451,-0.025934,0.320479,1.075758
45676,8.692417,-3.452720,5.272874,-0.208996,0.417079,1.060959
45677,8.663503,-3.698686,6.646579,-0.405619,0.543047,1.083145
45678,8.461008,-4.249541,7.192008,-0.558962,0.716651,1.151034
45679,7.817674,-4.558393,6.585306,-0.657631,0.790784,1.226105
45680,7.395905,-4.620566,5.477715,-0.684449,0.726275,1.249254
45681,7.379339,-4.891231,4.271993,-0.682768,0.612063,1.229930
45682,7.555151,-5.383895,3.363355,-0.567083,0.510173,1.166006
45683,7.548059,-5.964110,2.912382,-0.317082,0.458311,1.108222
45684,7.269591,-6.399761,2.681447,0.047827,0.398209,1.086033
45685,7.152619,-6.239117,2.642998,0.396676,0.304980,1.093240
45686,7.217903,-5.918701,2.877153,0.634438,0.243172,1.091016
45687,7.316444,-5.650433,3.219350,0.750502,0.208180,1.101577
45688,7.568053,-5.408516,3.628057,0.723481,0.207305,1.108773
45689,7.671969,-5.059604,4.073731,0.593778,0.249195,1.102231
45690,7.839778,-4.590589,4.484727,0.352830,0.305952,1.075363
45691,7.903272,-4.377473,4.825432,0.000902,0.390076,1.063188
45692,7.774764,-4.450915,4.749790,-0.388431,0.480570,1.057788
45693,7.513184,-4.613616,4.370639,-0.795074,0.554892,1.071189
45694,7.211982,-5.208850,3.913436,-1.188711,0.583977,1.112546
45695,6.970811,-6.136527,3.552291,-1.421304,0.572583,1.152914
45696,6.508637,-6.698270,3.409226,-1.500616,0.523443,1.161720
45697,6.204179,-6.968827,3.557985,-1.449201,0.459857,1.134228
45698,6.119890,-7.148261,4.100581,-1.285208,0.440164,1.096128
45699,5.971887,-7.398053,4.734415,-1.055829,0.449132,1.079822
45700,5.786436,-7.789487,5.125371,-0.765241,0.434159,1.100790
45701,5.692288,-7.830827,5.173184,-0.376271,0.372754,1.144610
45702,5.856056,-7.505215,5.118424,-0.018407,0.299556,1.198561
45703,6.014983,-7.170577,5.103434,0.224736,0.235484,1.219701
45704,6.157817,-7.038067,5.061311,0.374047,0.187733,1.216854
45705,6.319354,-7.076353,5.108773,0.475485,0.156648,1.197845
45706,6.332555,-7.404343,5.446872,0.596860,0.171349,1.186397
45707,6.151220,-7.857314,5.829874,0.788662,0.178451,1.204849
45708,5.922933,-8.151601,6.070827,1.080345,0.142963,1.226767
45709,5.551612,-8.010418,5.774244,1.452047,0.060113,1.227522
45710,5.278522,-7.416536,4.866816,1.777939,-0.059603,1.198487
45711,5.270841,-6.736131,3.931384,1.957497,-0.126502,1.131773
45712,5.449244,-6.236969,3.478963,2.000289,-0.140405,1.056828
45713,5.611985,-6.319978,3.694022,1.946684,-0.112121,0.987152
45714,5.627763,-6.617135,4.053246,1.923533,-0.043054,0.958194
45715,5.265804,-6.697058,4.047513,1.888785,-0.017819,0.949902
45716,5.149405,-6.223781,3.909359,1.772592,-0.034062,0.921217
45717,5.450576,-5.429387,3.865134,1.492423,0.017668,0.861965
45718,5.551677,-4.875121,4.124923,1.049797,0.132189,0.801787
45719,5.569471,-4.765038,4.690530,0.555113,0.260194,0.754723
45720,5.423669,-4.982986,5.218075,0.089370,0.411751,0.748807
45721,5.141266,-5.427913,5.726136,-0.294205,0.542842,0.770288
45722,4.815712,-6.066072,5.979956,-0.559037,0.613759,0.819526
45723,4.685723,-6.633200,6.018375,-0.662755,0.602939,0.868663
45724,4.537920,-7.069922,5.882494,-0.657104,0.550846,0.875882
45725,4.403955,-7.636178,5.811461,-0.550997,0.468389,0.839963
45726,4.256601,-8.127822,5.744911,-0.223963,0.385282,0.807537
45727,4.091266,-8.294486,5.885911,0.234510,0.295406,0.763953
45728,3.937636,-8.079765,5.877725,0.746148,0.216558,0.730639
45729,3.888237,-7.377766,5.926676,1.207685,0.127580,0.707271
45730,4.028557,-6.774811,5.949175,1.512067,0.057025,0.685818
45731,4.125405,-6.122707,5.802730,1.709020,-0.016766,0.654827
45732,4.265537,-5.540060,5.702253,1.768329,-0.077494,0.612180
45733,4.414603,-5.216121,5.759179,1.714512,-0.093586,0.557204
45734,4.299309,-4.915004,5.976730,1.611889,-0.063195,0.499971
45735,4.127701,-4.664665,6.373744,1.435590,-0.029183,0.460390
45736,3.961497,-4.754178,6.556644,1.194605,0.008483,0.455142
45737,3.813045,-5.266789,6.350773,0.966159,0.040893,0.475078
45738,3.821140,-5.953663,5.996690,0.810231,0.072383,0.485607
45739,3.790296,-6.609756,5.844412,0.737497,0.105856,0.477492
45740,3.571482,-6.928673,5.885310,0.729993,0.127031,0.463113
45741,3.200662,-6.968791,5.968567,0.740578,0.104628,0.457755
45742,3.004102,-7.137711,6.001749,0.751537,0.046762,0.467962
45743,2.943506,-7.099158,6.039161,0.919555,0.013993,0.461330
45744,2.830634,-6.762195,5.889301,1.113512,-0.074116,0.454752
45745,2.928728,-6.615778,5.732335,1.242048,-0.189081,0.471752
45746,3.187352,-6.386353,6.059195,1.411642,-0.247177,0.477030
45747,3.173664,-6.113753,6.702588,1.558017,-0.262546,0.464952
45748,3.111587,-6.038192,7.345383,1.684860,-0.273813,0.469814
45749,3.229644,-6.030650,7.764336,1.802727,-0.277482,0.480471
45750,3.395142,-5.777294,7.935000,1.923852,-0.292654,0.481861
45751,3.623680,-5.555070,7.586098,1.951887,-0.299961,0.470165
45752,3.715787,-5.142325,7.018003,1.913727,-0.295656,0.424189
45753,3.684121,-4.595749,6.732526,1.761298,-0.274873,0.379799
45754,3.619788,-4.483804,6.766966,1.523942,-0.232759,0.352758
45755,3.288759,-4.811453,6.961303,1.373654,-0.209259,0.367179
45756,2.961481,-5.516236,6.958569,1.314593,-0.228364,0.417521
45757,2.795752,-5.954187,6.762394,1.415124,-0.278917,0.470022
45758,2.892331,-5.810175,6.552081,1.581605,-0.327886,0.496351
45759,3.083708,-5.097129,6.375699,1.647825,-0.335271,0.476477
45760,3.305767,-4.028813,6.739282,1.577435,-0.283375,0.439851
45761,3.290331,-3.368829,7.351721,1.299784,-0.222395,0.407807
45762,3.125825,-3.826871,7.642533,0.983359,-0.185098,0.438574
45763,3.227915,-4.485085,7.536495,0.808420,-0.190096,0.460005
45764,3.414451,-5.338431,6.896374,0.619244,-0.196346,0.486188
45765,3.981944,-5.446677,6.324920,0.607481,-0.246984,0.466740
45766,4.353045,-4.498151,6.743103,0.688235,-0.285918,0.401175
45767,4.277710,-2.680130,7.856769,0.695148,-0.287490,0.262715
45768,3.773623,-0.958888,8.855663,0.534335,-0.248423,0.130102
45769,3.181410,-0.611179,9.510290,0.221978,-0.189843,0.096592
45770,2.719565,-1.432962,9.093494,-0.026754,-0.158255,0.111972
45771,2.671109,-2.498648,8.558944,-0.128101,-0.149174,0.143962
45772,3.027344,-3.535582,8.194727,-0.114807,-0.156706,0.155943
45773,3.400470,-4.259582,8.023894,0.029122,-0.182592,0.153048
45774,3.619234,-4.553721,8.127498,0.257498,-0.226292,0.123781
45775,3.531943,-4.351104,8.219910,0.474611,-0.262403,0.096936
45776,3.533021,-3.743526,8.387114,0.602078,-0.262367,0.076815
45777,3.518194,-3.200596,8.495314,0.578796,-0.236457,0.081229
45778,3.599384,-3.273816,8.488926,0.436912,-0.203339,0.110327
45779,3.556085,-3.692629,8.396928,0.313997,-0.174692,0.141582
45780,3.512127,-3.968933,8.426287,0.290172,-0.161542,0.155903
45781,3.477184,-4.024125,8.412646,0.297442,-0.164768,0.153144
45782,3.492882,-3.971681,8.375401,0.331671,-0.154704,0.129321
45783,3.522291,-3.632840,8.457020,0.384006,-0.143903,0.107413
45784,3.516798,-3.264351,8.669932,0.355725,-0.130043,0.085537
45785,3.391585,-3.364881,8.553798,0.271449,-0.132215,0.084649
45786,3.438146,-3.635724,8.341790,0.230046,-0.138559,0.090362
45787,3.525591,-3.662728,8.330410,0.211350,-0.126080,0.080047
45788,3.513771,-3.370225,8.317733,0.182257,-0.099385,0.046551
45789,3.499544,-2.970954,8.376932,0.072709,-0.069183,0.007878
45790,3.492572,-2.839534,8.460544,-0.061129,-0.032679,-0.030361
45791,3.440119,-2.652212,8.444996,-0.154665,-0.006115,-0.070207
45792,3.424932,-2.947452,8.741053,-0.315434,0.026153,-0.075921
45793,3.447809,-3.834998,8.472059,-0.323843,0.033693,-0.053974
45794,3.563870,-3.775453,8.377642,-0.233884,0.036364,-0.064345
45795,3.649447,-3.643648,8.406796,-0.240348,0.040426,-0.078920
45796,3.801243,-3.474056,8.487438,-0.232629,0.059268,-0.106248
45797,3.805202,-3.109433,8.478333,-0.275777,0.082802,-0.150643
45798,3.856638,-2.755064,8.313722,-0.411842,0.115819,-0.196793
45799,3.879950,-2.805497,8.149902,-0.616333,0.154577,-0.222845
45800,3.823952,-3.460484,7.991094,-0.824359,0.162729,-0.218657
45801,3.913127,-3.993271,7.637313,-0.877551,0.162281,-0.228872
45802,3.883069,-3.821540,7.528198,-0.921609,0.208441,-0.276758
45803,3.759143,-3.544436,7.473865,-1.030718,0.260212,-0.324704
45804,3.683218,-3.450633,7.631198,-1.174291,0.325612,-0.355079
45805,3.422169,-3.639339,8.107543,-1.392337,0.366921,-0.343709
45806,3.115810,-4.726315,8.246163,-1.548493,0.338063,-0.275268
45807,2.988091,-6.136870,7.722208,-1.455581,0.258743,-0.177763
45808,3.106051,-6.654657,7.316021,-1.132689,0.206414,-0.132667
45809,3.151960,-6.519012,7.121961,-0.868813,0.160724,-0.130159
45810,3.218277,-6.068511,6.934096,-0.733954,0.133966,-0.149705
45811,3.170004,-5.778686,7.135374,-0.766154,0.134748,-0.152873
45812,2.995848,-6.434400,7.082264,-0.862735,0.136178,-0.094202
45813,2.966250,-7.078316,6.770979,-0.851953,0.161859,-0.020815
45814,3.006781,-6.604514,7.029400,-0.774487,0.170083,0.053774
45815,3.220029,-5.627206,7.262618,-0.843843,0.130784,0.081964
45816,3.319568,-3.948843,7.431941,-0.941717,0.083665,0.024900
45817,3.516978,-2.894899,8.225130,-1.212383,0.100684,-0.037562
45818,3.550826,-2.634852,8.728396,-1.327228,0.134217,-0.123150
45819,3.417185,-2.820510,8.439108,-1.301080,0.125978,-0.201345
45820,3.421815,-3.124610,7.947264,-1.234657,0.106902,-0.273541
45821,3.521635,-3.431005,7.780438,-1.139810,0.095153,-0.350376
45822,3.483502,-3.911268,7.613358,-1.021064,0.107767,-0.422796
45823,3.399542,-4.645292,7.352091,-0.923083,0.103284,-0.448719
45824,3.419738,-5.772691,6.768731,-0.895558,0.119388,-0.411749
45825,3.482766,-7.020594,6.470547,-0.880308,0.130679,-0.334771
45826,3.471769,-8.025869,6.596960,-0.812127,0.076197,-0.247668
45827,3.518210,-8.215459,6.732684,-0.727006,0.053142,-0.193411
45828,3.558059,-7.353631,7.209495,-0.648148,0.089322,-0.186640
45829,3.626935,-6.297430,7.590426,-0.698377,0.157478,-0.200710
45830,3.684283,-5.487137,7.555720,-0.794549,0.225052,-0.241426
45831,3.712192,-4.890704,7.429167,-0.958917,0.279680,-0.275733
45832,3.828168,-4.992897,7.178537,-1.177129,0.311219,-0.283317
45833,3.824496,-5.712069,6.996687,-1.310340,0.329895,-0.271887
45834,3.814126,-6.463336,6.666625,-1.318085,0.342806,-0.265708
45835,3.789387,-6.557892,6.238838,-1.251008,0.362490,-0.295234
45836,3.970706,-6.150543,6.097431,-1.252625,0.397465,-0.342302
45837,4.305657,-5.636813,5.690617,-1.391801,0.494541,-0.437860
45838,4.678921,-4.854347,4.862602,-1.631285,0.640435,-0.572619
45839,5.104952,-3.848270,4.137192,-2.044609,0.817845,-0.747425
45840,5.175258,-2.959424,3.961391,-2.636681,0.965092,-0.928243
45841,4.769115,-2.538674,3.836076,-3.357050,1.019456,-1.085174
45842,4.040414,-3.477792,4.223910,-4.096266,1.011734,-1.104458
45843,2.821900,-6.536084,4.258893,-4.617234,0.951021,-0.992339
45844,1.974439,-10.089647,4.104798,-4.544328,0.840367,-0.799901
45845,1.763482,-13.006010,4.389327,-3.951597,0.768132,-0.561824
45846,1.668866,-14.235859,4.759505,-2.972210,0.628737,-0.365587
45847,2.290479,-13.587827,5.311202,-1.960491,0.436877,-0.291436
45848,3.183276,-12.007825,5.244685,-1.100105,0.291251,-0.334260
45849,3.683344,-9.527622,5.204690,-0.401377,0.177502,-0.453177
45850,3.808905,-7.624080,5.452428,-0.199226,0.147254,-0.514052
45851,3.644561,-7.320537,4.656611,-0.235469,0.103338,-0.519318
45852,3.841287,-6.986387,3.631109,-0.244922,0.049560,-0.512392
45853,4.123057,-6.798008,3.190334,-0.454600,0.090613,-0.497538
45854,4.235021,-6.984125,2.461823,-0.734882,0.120985,-0.539523
45855,4.394467,-6.468171,2.202190,-0.955221,0.131435,-0.615757
45856,4.463848,-5.891917,3.550223,-1.396739,0.260263,-0.657966
45857,3.876724,-7.058081,4.932595,-1.836006,0.414342,-0.637331
45858,3.498633,-8.556161,4.969111,-1.908000,0.460354,-0.557200
45859,3.614308,-9.900650,4.794975,-1.808518,0.508972,-0.416002
45860,3.559283,-10.928071,4.542612,-1.531428,0.486540,-0.312340
45861,3.755725,-10.793342,4.293367,-1.080771,0.336031,-0.285953
45862,4.056498,-10.368351,5.152631,-0.703561,0.260438,-0.278791
45863,3.708326,-10.340811,6.316160,-0.271758,0.241025,-0.224116
45864,3.507072,-9.888724,7.212689,0.312925,0.179270,-0.097458
45865,3.271880,-9.920671,6.199286,0.695907,0.104989,0.049610
45866,3.176816,-9.891787,2.740815,1.136461,-0.103863,0.110549
45867,3.773414,-8.788566,0.339059,1.366489,-0.243577,0.085206
45868,4.180772,-8.154176,-0.063216,1.180983,-0.243651,-0.080994
45869,4.375009,-7.117161,0.389586,1.015092,-0.199463,-0.329778
45870,4.851752,-5.558471,1.363221,0.710218,-0.081738,-0.492706
45871,4.954316,-4.868705,2.238644,0.162924,0.145073,-0.527975
45872,4.568263,-4.923088,2.840443,-0.576821,0.322992,-0.496973
45873,4.476496,-6.147053,3.288108,-1.289343,0.374694,-0.437873
45874,4.503765,-7.830185,3.886447,-1.622339,0.408666,-0.398646
45875,4.314613,-8.873309,4.399670,-1.590542,0.427516,-0.396605
45876,4.155592,-9.126446,4.767776,-1.301008,0.422135,-0.419199
45877,4.188973,-9.155917,4.959975,-0.931442,0.417583,-0.409526
45878,4.223490,-9.087535,4.690516,-0.502338,0.335114,-0.389452
45879,4.484368,-8.472193,4.144376,-0.070847,0.186335,-0.401624
45880,4.724876,-7.684966,3.399438,0.251204,0.061303,-0.451344
45881,4.819671,-7.071522,2.569342,0.460074,-0.021359,-0.532745
45882,4.734686,-6.760612,2.080495,0.492750,-0.044208,-0.609705
45883,4.583165,-6.694324,1.963476,0.437239,-0.038134,-0.658093
45884,4.488595,-6.489363,2.120192,0.319460,-0.022022,-0.675679
45885,4.445679,-6.430061,2.549520,0.074219,0.015883,-0.678677
45886,4.403088,-6.804714,2.971067,-0.198153,0.041098,-0.673701
45887,4.549972,-7.288654,3.348353,-0.448331,0.118066,-0.668083
45888,4.792839,-7.830554,3.695907,-0.626013,0.196227,-0.653473
45889,5.085424,-8.365847,4.009686,-0.695168,0.254548,-0.623382
45890,5.283860,-8.678098,4.839691,-0.620985,0.289500,-0.593801
45891,5.453270,-8.835422,6.098049,-0.445471,0.296393,-0.558018
45892,5.596045,-8.732161,6.465292,-0.151141,0.248661,-0.509465
45893,5.792178,-8.548044,5.805290,0.249994,0.126988,-0.457976
45894,6.053544,-8.698445,4.944325,0.724135,-0.003187,-0.434413
45895,5.984053,-8.891923,3.357352,1.276599,-0.230663,-0.506522
45896,5.829423,-8.534176,1.607918,1.797605,-0.491540,-0.626886
45897,5.723481,-7.807011,1.035010,2.166518,-0.637444,-0.726294
45898,5.392113,-7.288120,1.606608,2.320980,-0.651781,-0.804886
45899,4.879904,-7.065311,2.232465,2.331006,-0.644383,-0.857776
45900,4.560041,-6.767928,2.757269,2.222258,-0.640068,-0.841434
45901,4.679631,-6.537480,2.941235,2.077685,-0.633719,-0.792244
45902,5.017434,-5.868304,2.628058,1.770089,-0.615537,-0.746858
45903,5.479218,-5.038239,2.569048,1.250364,-0.601494,-0.757951
45904,6.102643,-4.807966,3.285017,0.620935,-0.486658,-0.807935
45905,6.436898,-5.217015,4.018980,0.023107,-0.286101,-0.889036
45906,6.574316,-5.975945,4.484644,-0.420259,-0.095610,-0.947489
45907,6.512313,-6.742188,4.916876,-0.625143,0.003314,-0.949901
45908,6.467499,-7.280416,5.496505,-0.651066,0.026184,-0.919894
45909,6.249703,-7.666951,5.727487,-0.555409,0.003391,-0.899928
45910,5.831023,-8.221291,5.563543,-0.373557,-0.035844,-0.871933
45911,5.329077,-8.658904,4.827722,-0.040659,-0.112638,-0.830035
45912,5.155962,-8.616132,3.923352,0.376408,-0.198401,-0.808705
45913,5.076476,-8.014354,3.141255,0.755149,-0.294289,-0.811694
45914,5.345362,-7.196416,2.799005,1.019106,-0.392237,-0.851186
45915,5.545460,-6.044609,2.692187,1.153669,-0.445602,-0.905338
45916,5.924743,-5.078120,2.937256,1.101671,-0.438553,-0.956793
45917,6.334360,-4.737237,3.247721,0.872673,-0.342993,-0.968794
45918,6.557197,-4.815377,3.239523,0.600594,-0.252735,-0.942029
45919,6.998473,-5.339301,3.172405,0.250910,-0.190870,-0.874145
45920,7.523846,-6.104494,3.556161,-0.059410,-0.153558,-0.781957
45921,7.878682,-6.675297,4.536416,-0.278225,-0.105805,-0.732001
45922,7.938368,-6.463607,5.670600,-0.416245,-0.041792,-0.731239
45923,7.900338,-5.971792,6.590914,-0.521916,0.050933,-0.750395
45924,7.684970,-5.791996,6.967261,-0.591072,0.157800,-0.746123
45925,7.366774,-5.897124,6.570320,-0.563988,0.212531,-0.719303
45926,7.051456,-6.182958,5.601276,-0.363239,0.167518,-0.702987
45927,6.935452,-6.337484,4.799571,-0.056601,0.051649,-0.705913
45928,6.923052,-6.528856,4.235154,0.285767,-0.093863,-0.718649
45929,6.861552,-6.302833,3.398124,0.712561,-0.227787,-0.760871
45930,6.829200,-5.367873,2.599731,1.102496,-0.368390,-0.816675
45931,7.087539,-4.802473,2.368000,1.246307,-0.465402,-0.838466
45932,7.121410,-4.811362,2.558592,1.301028,-0.482576,-0.848598
45933,7.194733,-4.364876,3.026054,1.369300,-0.511486,-0.867703
45934,7.387410,-3.444363,3.632988,1.297266,-0.491534,-0.896359
45935,7.360958,-2.528991,4.086456,1.032629,-0.462785,-0.942391
45936,7.633728,-2.242055,4.344046,0.571200,-0.438114,-0.971515
45937,7.886522,-2.779299,4.497897,0.107857,-0.353948,-0.991357
45938,8.225625,-3.901282,4.634751,-0.258795,-0.225425,-0.972865
45939,8.564092,-5.251782,4.402810,-0.447993,-0.120851,-0.915613
45940,8.835104,-6.160505,4.349960,-0.450349,-0.075669,-0.864773
45941,8.707764,-6.569724,4.834292,-0.304130,-0.068881,-0.860698
45942,8.411890,-6.230818,5.554639,-0.056549,-0.085984,-0.875377
45943,7.911456,-5.586756,6.030225,0.170788,-0.095376,-0.875694
45944,7.358193,-5.287442,5.811946,0.320425,-0.107998,-0.850363
45945,6.841440,-4.987083,4.759510,0.491966,-0.156773,-0.795551
45946,6.689300,-4.526768,3.391633,0.602746,-0.234778,-0.739255
45947,6.910268,-4.391469,2.607596,0.665945,-0.323324,-0.709650
45948,7.073799,-4.349620,2.339533,0.784453,-0.374531,-0.720045
45949,7.032159,-4.003524,2.114267,0.891524,-0.421425,-0.747587
45950,6.833915,-3.208711,1.503517,0.872823,-0.485682,-0.756982
45951,6.700078,-2.111544,0.813985,0.681089,-0.549566,-0.779955
45952,6.898122,-1.362868,0.623669,0.206534,-0.541882,-0.798315
45953,7.025143,-1.403638,0.943091,-0.352741,-0.453369,-0.802886
45954,7.284993,-1.794013,1.535612,-0.809727,-0.342181,-0.771420
45955,7.457176,-2.471275,2.051807,-1.321010,-0.199153,-0.701039
45956,7.774403,-3.546243,3.336005,-1.751050,-0.068520,-0.608040
45957,8.588436,-5.041964,5.298925,-2.065521,0.126290,-0.469108
45958,9.378943,-6.461305,7.003981,-2.097876,0.373111,-0.341968
45959,9.620368,-6.957364,8.063051,-1.823209,0.532892,-0.258245
45960,9.490074,-6.600171,8.253419,-1.524709,0.535277,-0.203778
45961,9.111966,-6.423115,7.414500,-1.183403,0.445995,-0.192805
45962,8.591360,-6.208125,6.304088,-0.621605,0.296312,-0.222573
45963,8.665847,-5.395857,5.366435,0.011580,0.090432,-0.252754
45964,8.929017,-4.152901,4.615169,0.475385,-0.072724,-0.283534
45965,8.968567,-3.123245,3.824293,0.713964,-0.166369,-0.338734
45966,9.160738,-2.528250,3.216879,0.839730,-0.230734,-0.388818
45967,9.420380,-1.964071,3.118100,0.838744,-0.236339,-0.421075
45968,9.662707,-1.508443,3.272558,0.636047,-0.184343,-0.463955
45969,9.854441,-1.290943,3.632946,0.392640,-0.076767,-0.514114
45970,9.551387,-1.294740,3.652426,0.147171,0.012742,-0.543048
45971,9.061586,-1.584765,3.273040,-0.109644,0.017181,-0.550584
45972,8.922499,-2.157821,3.011093,-0.335827,-0.020745,-0.545103
45973,8.865029,-2.724008,3.118904,-0.429345,-0.041789,-0.548724
45974,8.668603,-3.280867,3.396825,-0.437336,-0.051521,-0.560600
45975,8.509150,-3.515648,3.722527,-0.348823,-0.069464,-0.582313
45976,8.567799,-3.642267,4.069663,-0.229343,-0.061307,-0.584096
45977,8.576963,-3.633034,4.519162,-0.076863,-0.034277,-0.578227
45978,8.575327,-3.475532,4.654411,0.084550,-0.014464,-0.576097
45979,8.540738,-3.037949,4.679455,0.225516,-0.021668,-0.581977
45980,8.474147,-2.752888,4.459165,0.340509,-0.056151,-0.596271
45981,8.534932,-2.554666,4.140591,0.469619,-0.113599,-0.611967
45982,8.526959,-2.319068,3.579008,0.594971,-0.142563,-0.646151
45983,8.333495,-1.640485,2.796328,0.698631,-0.191025,-0.704406
45984,8.477709,-1.060313,2.217825,0.636677,-0.231996,-0.775092
45985,8.644888,-1.015049,1.756856,0.484713,-0.232503,-0.824510
45986,8.615388,-0.941256,1.361674,0.297706,-0.229442,-0.854461
45987,8.910039,-1.026010,1.581536,-0.052054,-0.223723,-0.831590
45988,9.387966,-1.453166,2.477239,-0.393614,-0.145397,-0.802662
45989,9.632267,-1.366659,3.340711,-0.620210,0.025122,-0.817024
45990,9.302119,-0.930560,3.412579,-0.938258,0.139723,-0.851929
45991,8.894391,-1.236738,2.698310,-1.273768,0.133924,-0.863070
45992,8.752651,-2.110315,2.236829,-1.472895,0.045578,-0.811829
45993,9.008377,-3.429287,2.719836,-1.502979,0.002631,-0.705229
45994,9.105677,-4.620529,3.754920,-1.342138,0.026763,-0.569010
45995,9.172743,-5.119982,5.149458,-0.973497,0.062777,-0.457769
45996,9.220249,-4.882286,6.302875,-0.531258,0.108768,-0.372493
45997,9.049096,-4.107513,6.649502,-0.243384,0.117001,-0.330095
45998,8.989017,-3.235759,6.203772,-0.081775,0.080438,-0.314791
45999,9.057085,-2.674080,5.451199,0.053370,0.054694,-0.335961
46000,8.949256,-2.433908,4.506641,0.179939,0.015890,-0.350228
46001,8.857298,-2.306331,3.516138,0.344720,-0.057486,-0.356067
46002,8.952343,-2.174992,2.603121,0.554474,-0.136554,-0.366401
46003,8.925635,-1.860732,1.819382,0.728200,-0.213199,-0.360069
46004,8.935471,-1.423743,1.316272,0.748612,-0.322864,-0.366730
46005,9.267295,-1.056323,1.195546,0.713764,-0.395965,-0.395644
46006,9.449028,-0.388008,1.434632,0.631729,-0.375509,-0.448441
46007,9.239325,0.212875,1.512014,0.356377,-0.347255,-0.495580
46008,9.100462,0.174020,1.631802,-0.050194,-0.348619,-0.507289
46009,9.212716,-0.274578,2.339506,-0.352489,-0.320567,-0.480693
46010,9.130904,-0.891593,2.991212,-0.620650,-0.256495,-0.449768
46011,9.004029,-1.323567,3.552218,-0.795209,-0.201817,-0.436394
46012,8.951702,-1.819216,3.918198,-0.892780,-0.140832,-0.417571
46013,8.843614,-2.162473,4.056029,-0.841469,-0.100002,-0.391809
46014,8.869666,-2.290495,4.186081,-0.722245,-0.082882,-0.366190
46015,8.948724,-2.143714,4.208272,-0.549687,-0.065920,-0.369937
46016,8.864614,-1.628952,3.907212,-0.312830,-0.079789,-0.394443
46017,8.852512,-0.745694,3.223242,-0.162053,-0.156852,-0.441231
46018,9.179315,-0.002934,2.399273,-0.042502,-0.209543,-0.510029
46019,9.328914,0.292027,1.618070,-0.046676,-0.196516,-0.562557
46020,9.361515,0.176483,1.170116,-0.240915,-0.232312,-0.577540
46021,9.928821,-0.455456,1.199566,-0.410251,-0.274538,-0.567427
46022,10.280561,-0.763605,1.607232,-0.511619,-0.233683,-0.554287
46023,9.983537,-0.862627,1.745343,-0.736440,-0.203122,-0.545819
46024,9.544635,-1.293522,1.544793,-0.985448,-0.250414,-0.544291
46025,9.345733,-2.239876,1.857485,-1.207394,-0.307973,-0.475642
46026,9.072538,-3.493064,2.792740,-1.260806,-0.314963,-0.337800
46027,8.586064,-4.688980,4.357023,-1.104071,-0.286401,-0.187226
46028,8.134639,-5.239956,5.536422,-0.673412,-0.299878,-0.068835
46029,8.223078,-4.492305,5.776109,-0.189436,-0.297146,0.015085
46030,8.575671,-3.378105,5.175745,0.064249,-0.253793,0.057099
46031,9.069542,-2.243435,4.473734,0.311650,-0.236462,0.078426
46032,9.469941,-1.132928,3.863208,0.494265,-0.214060,0.063250
46033,9.779886,-0.243296,3.378867,0.507902,-0.172215,0.029837
46034,9.969077,0.268002,3.101393,0.459062,-0.108614,-0.040452
46035,10.034708,0.662075,2.881985,0.356867,-0.072791,-0.105439
46036,10.112526,0.701982,2.739835,0.111397,-0.050016,-0.124715
46037,10.000323,0.105718,2.666310,-0.105669,-0.031535,-0.120516
46038,9.726527,-0.526242,2.592953,-0.195816,-0.027665,-0.111975
46039,9.571024,-0.872205,2.556824,-0.222552,-0.027490,-0.091247
46040,9.404168,-1.081246,2.474100,-0.201219,-0.024088,-0.077471
46041,9.277692,-1.251269,2.370478,-0.177378,-0.054084,-0.054193
46042,9.317431,-1.522940,2.491694,-0.109454,-0.084733,-0.035458
46043,9.436150,-1.633164,2.773791,-0.045328,-0.073048,-0.017159
46044,9.438523,-1.636498,2.917743,-0.015935,-0.054429,0.006034
46045,9.402748,-1.596454,2.889834,0.020234,-0.054502,0.013252
46046,9.461465,-1.534605,2.826286,0.035877,-0.063847,0.036832
46047,9.554706,-1.406581,2.695898,0.038831,-0.068266,0.044287
46048,9.543547,-1.310568,2.470370,0.033307,-0.060790,0.051150
46049,9.445935,-1.204874,2.273334,0.026132,-0.065243,0.051964
46050,9.417925,-1.196394,2.049646,0.005171,-0.071463,0.053126
46051,9.364662,-1.226026,2.035056,-0.019056,-0.067724,0.055849
46052,9.325387,-1.272282,2.047560,-0.049828,-0.070224,0.061729
46053,9.297830,-1.458569,2.104339,-0.083264,-0.068365,0.064605
46054,9.332207,-1.546499,2.185780,-0.075344,-0.072402,0.069840
46055,9.343521,-1.610030,2.271509,-0.054943,-0.079072,0.086831
46056,9.354212,-1.589853,2.406186,-0.017990,-0.089355,0.093344
46057,9.368390,-1.509275,2.486423,0.028174,-0.097762,0.099661
46058,9.391575,-1.395482,2.559173,0.058272,-0.103041,0.101368
46059,9.486919,-1.254922,2.587569,0.098527,-0.109925,0.102963
46060,9.528417,-1.116179,2.620419,0.126097,-0.108046,0.095392
46061,9.593190,-0.959393,2.672783,0.139800,-0.110088,0.087970
46062,9.658277,-0.886559,2.675718,0.141950,-0.108131,0.088876
46063,9.686529,-0.730267,2.680619,0.122838,-0.101097,0.083258
46064,9.717041,-0.745268,2.738972,0.088196,-0.086030,0.071720
46065,9.664450,-0.752272,2.736739,0.061166,-0.074980,0.061016
46066,9.663159,-0.794825,2.796781,0.036567,-0.074894,0.052662
46067,9.687693,-0.802850,2.797312,0.015655,-0.070937,0.037585
46068,9.634678,-0.850596,2.771749,0.008556,-0.063656,0.028664
46069,9.673024,-0.914987,2.776060,0.007642,-0.061243,0.015509
46070,9.725613,-0.993195,2.808408,0.025817,-0.047429,-0.005881
46071,9.692151,-1.120722,2.835218,0.040752,-0.045320,-0.025287
46072,9.710066,-1.177970,2.743337,0.079955,-0.043200,-0.040927
46073,9.680508,-1.177130,2.752760,0.126341,-0.047187,-0.060567
46074,9.645726,-1.104081,2.739342,0.166383,-0.050685,-0.076468
46075,9.642584,-1.000717,2.725239,0.185736,-0.051430,-0.090152
46076,9.655657,-0.936754,2.635809,0.195856,-0.034058,-0.110627
46077,9.657613,-0.878087,2.659142,0.181393,-0.013955,-0.119616
46078,9.652495,-0.878052,2.589058,0.157748,0.005885,-0.121637
46079,9.646980,-0.878828,2.520379,0.145088,0.017906,-0.117498
46080,9.632710,-0.892210,2.472847,0.122950,0.031381,-0.104192
46081,9.578330,-0.968891,2.435232,0.100911,0.037633,-0.080544
46082,9.586443,-1.034306,2.372536,0.081578,0.040113,-0.060340
46083,9.517236,-1.058339,2.331578,0.055949,0.043522,-0.042651
46084,9.439463,-1.095416,2.310718,0.042606,0.045595,-0.030753
46085,9.399052,-1.174480,2.312793,0.041075,0.043116,-0.016441
46086,9.367020,-1.243794,2.294461,0.055923,0.035960,0.000012
46087,9.314291,-1.208180,2.236330,0.082650,0.036396,0.002482
46088,9.276005,-1.166359,2.217427,0.104262,0.031551,0.013236
46089,9.268934,-1.053630,2.220766,0.112645,0.030334,0.016573
46090,9.336531,-0.957852,2.305464,0.108029,0.029984,0.023231
46091,9.341482,-0.940788,2.380289,0.101690,0.030430,0.027071
46092,9.386178,-0.906104,2.422375,0.090519,0.033238,0.026919
46093,9.399456,-0.899920,2.465695,0.080806,0.037478,0.025317
46094,9.452642,-0.896952,2.464699,0.073794,0.036234,0.013628
46095,9.505779,-0.850752,2.486887,0.071008,0.037803,0.016883
46096,9.553123,-0.800079,2.449637,0.070287,0.035625,0.007743
46097,9.560579,-0.745158,2.456720,0.057780,0.039688,0.002820
46098,9.528251,-0.750444,2.473412,0.045131,0.037594,-0.009073
46099,9.527550,-0.791231,2.454167,0.038456,0.036311,-0.016268
46100,9.518453,-0.820586,2.466198,0.030249,0.029649,-0.028792
46101,9.586628,-0.849796,2.480768,0.027759,0.037099,-0.044498
46102,9.577619,-0.876867,2.493381,0.024770,0.041371,-0.051970
46103,9.528853,-0.964219,2.516033,0.014740,0.045593,-0.058035
46104,9.551562,-1.004922,2.504585,0.025332,0.033985,-0.063119
46105,9.488498,-0.989835,2.544488,0.041759,0.028133,-0.074077
46106,9.480066,-0.991998,2.567592,0.051208,0.024447,-0.083462
46107,9.495043,-1.040346,2.575051,0.056031,0.020401,-0.086120
46108,9.498585,-1.037164,2.486522,0.074618,0.018228,-0.089466
46109,9.504863,-1.052413,2.536994,0.087875,0.016953,-0.081944
46110,9.445184,-1.020625,2.496246,0.099240,0.011553,-0.071135
46111,9.447419,-0.911214,2.464380,0.100188,0.011584,-0.057762
46112,9.450273,-0.867793,2.398077,0.088514,0.011157,-0.049632
46113,9.475336,-0.785990,2.362036,0.067445,0.013142,-0.045211
46114,9.483458,-0.748494,2.355234,0.039123,0.021196,-0.036851
46115,9.429486,-0.791209,2.339904,0.017786,0.027111,-0.030078
46116,9.406234,-0.784756,2.334656,0.003911,0.022511,-0.023062
46117,9.420593,-0.818592,2.353273,-0.001731,0.021650,-0.023280
46118,9.456191,-0.748017,2.436292,0.000742,0.021842,-0.024425
46119,9.470218,-0.760057,2.466219,-0.006613,0.021748,-0.027484
46120,9.461762,-0.790044,2.476900,-0.010214,0.018379,-0.027018
46121,9.444515,-0.809214,2.518855,-0.014455,0.016743,-0.028887
46122,9.467588,-0.831937,2.516647,-0.010581,0.016164,-0.031680
46123,9.512450,-0.793258,2.556232,-0.016863,0.017033,-0.034239
46124,9.513108,-0.833725,2.534752,-0.017347,0.012122,-0.032583
46125,9.544470,-0.824303,2.523140,-0.022034,0.009524,-0.025984
46126,9.499506,-0.858535,2.485535,-0.016564,0.005482,-0.019615
46127,9.490600,-0.846111,2.517615,-0.011565,0.008088,-0.021732
46128,9.484378,-0.797286,2.481449,-0.015094,0.005195,-0.027751
46129,9.499283,-0.831039,2.498218,-0.015145,0.002980,-0.027920
46130,9.522800,-0.853878,2.494507,-0.012771,-0.001257,-0.029392
46131,9.500582,-0.869506,2.475308,-0.009936,0.001156,-0.025878
46132,9.506234,-0.870653,2.534843,-0.006702,0.002320,-0.031005
46133,9.484007,-0.886149,2.515779,-0.008913,-0.000093,-0.025541
46134,9.460409,-0.837022,2.531021,-0.003869,0.004735,-0.027493
46135,9.486421,-0.824240,2.459450,-0.020115,0.004324,-0.019015
46136,9.486481,-0.823088,2.459605,-0.026134,0.002967,-0.017251
46137,9.464636,-0.861752,2.428914,-0.026610,-0.001949,-0.015593
46138,9.470745,-0.886017,2.476517,-0.022734,-0.002517,-0.018384
46139,9.470885,-0.884904,2.476380,-0.016308,0.003274,-0.015325
46140,9.440120,-0.912694,2.477256,-0.014356,-0.003663,-0.014969
46141,9.449277,-0.922688,2.445170,-0.010235,-0.004729,-0.006769
46142,9.471406,-0.882538,2.475231,-0.009476,-0.003757,-0.010757
46143,9.525382,-0.856864,2.481320,-0.012064,-0.006665,-0.003295
46144,9.502552,-0.853535,2.473304,-0.022416,0.003147,-0.000417
46145,9.441361,-0.789591,2.452865,-0.038642,0.001000,0.001394
46146,9.433373,-0.823150,2.461133,-0.045400,-0.003053,0.000475
46147,9.501670,-0.813402,2.494941,-0.047163,-0.004490,-0.002552
46148,9.499654,-0.872484,2.550952,-0.049231,-0.000261,0.003408
46149,9.531879,-0.909564,2.515445,-0.046929,0.006604,-0.001729
46150,9.524740,-0.985756,2.501184,-0.037128,0.002970,-0.006615
46151,9.510372,-0.971261,2.473198,-0.015781,-0.001151,-0.006691
46152,9.523948,-0.942166,2.523756,-0.000671,-0.002188,-0.009167
46153,9.546034,-0.901969,2.554130,0.004163,-0.004509,-0.005115
46154,9.508856,-0.883381,2.518314,0.005925,-0.003071,-0.002095
46155,9.532366,-0.908100,2.514129,-0.001477,-0.005382,-0.005353
46156,9.509128,-0.882758,2.517506,-0.009876,-0.002510,-0.002124
46157,9.525035,-0.961691,2.510724,-0.001337,0.001267,-0.004843
46158,9.517058,-0.993755,2.519451,0.002853,0.000688,-0.003127
46159,9.510672,-0.945899,2.483181,0.018721,0.000632,-0.009590
46160,9.524170,-0.916008,2.534299,0.025052,0.001982,-0.006848
46161,9.517719,-0.867698,2.498375,0.029667,0.004111,-0.006959
46162,9.509105,-0.877226,2.519525,0.028781,0.012015,-0.006800
46163,9.516901,-0.843355,2.512055,0.024499,0.008160,-0.008857
46164,9.493246,-0.817270,2.517166,0.017573,0.016417,-0.000279
46165,9.502307,-0.849429,2.475659,0.006227,0.014165,0.005743
46166,9.487477,-0.835172,2.449368,0.009127,0.017071,0.002781
46167,9.517844,-0.806785,2.450211,-0.001058,0.020218,0.009650
