// Start Time: Unknown
// Update Rate: 100.0Hz
// Filter Profile: human (46.1)
// Firmware Version: 4.3.5
PacketCounter,Acc_X,Acc_Y,Acc_Z,Gyr_X,Gyr_Y,Gyr_Z
48196,9.466326,-1.417217,2.313600,0.043580,0.030706,0.021677
48197,9.458862,-1.506115,2.268594,0.034695,0.030442,0.016586
48198,9.428289,-1.627017,2.161945,0.034689,0.030443,0.016598
48199,9.413673,-1.670865,2.134815,0.043660,0.023286,0.013714
48200,9.396496,-1.614987,2.123913,0.058822,0.008505,0.009790
48201,9.441090,-1.596452,2.098435,0.057609,-0.016825,-0.000140
48202,9.546360,-1.572081,2.016167,0.049977,-0.044303,-0.011466
48203,9.606233,-1.717343,1.941690,0.072806,-0.070924,-0.033910
48204,9.571326,-1.773700,1.943845,0.113891,-0.087743,-0.057218
48205,9.526172,-1.760204,1.972274,0.142964,-0.100372,-0.074708
48206,9.428408,-1.871884,2.028797,0.155240,-0.115598,-0.076544
48207,9.407318,-1.811232,2.217351,0.170659,-0.112156,-0.058222
48208,9.416866,-1.763193,2.450214,0.172305,-0.098007,-0.049046
48209,9.380363,-1.627887,2.576843,0.154066,-0.071463,-0.030869
48210,9.325274,-1.529682,2.584358,0.128599,-0.052709,-0.014640
48211,9.344417,-1.441458,2.509847,0.117818,-0.044957,-0.009374
48212,9.314691,-1.425734,2.464457,0.141153,-0.036308,-0.003852
48213,9.358133,-1.361394,2.394652,0.168254,-0.033622,-0.007488
48214,9.395819,-1.293876,2.385177,0.201223,-0.021903,-0.004304
48215,9.407848,-1.278909,2.366880,0.219420,-0.012263,-0.009591
48216,9.450014,-1.290616,2.293529,0.226393,-0.004010,0.001525
48217,9.436091,-1.268862,2.173787,0.212961,0.001681,0.016782
48218,9.458270,-1.263997,2.038312,0.191369,0.005815,0.032948
48219,9.457716,-1.203049,1.947515,0.144295,0.008544,0.046700
48220,9.443198,-1.188468,1.827009,0.101260,0.003404,0.054827
48221,9.462033,-1.151477,1.797213,0.056727,-0.006155,0.056355
48222,9.435067,-1.090263,1.750362,0.032892,-0.015245,0.052835
48223,9.404029,-1.083742,1.704786,-0.003046,-0.029882,0.052595
48224,9.412218,-1.253010,1.721117,-0.042312,-0.048327,0.048193
48225,9.459204,-1.463649,1.861590,-0.058806,-0.062850,0.056005
48226,9.490956,-1.526823,2.091748,-0.062725,-0.055189,0.057059
48227,9.561489,-1.570490,2.355323,-0.084536,-0.035872,0.060006
48228,9.558025,-1.662999,2.646701,-0.094834,-0.011191,0.066187
48229,9.556420,-1.794959,2.832284,-0.064195,0.008183,0.081551
48230,9.545497,-1.851381,2.744850,-0.007546,0.026339,0.089210
48231,9.479392,-1.855515,2.712002,0.060159,0.029992,0.091005
48232,9.516597,-1.898746,2.692368,0.142884,0.030421,0.087990
48233,9.522139,-1.751477,2.650743,0.218100,0.032195,0.083041
48234,9.509572,-1.639676,2.489606,0.258449,0.027331,0.072843
48235,9.444964,-1.531152,2.171976,0.256310,0.006046,0.065586
48236,9.332340,-1.628089,1.668360,0.220699,-0.044779,0.071362
48237,9.475598,-1.444631,1.133391,0.166982,-0.104249,0.060774
48238,9.800278,-0.815304,1.113787,0.171878,-0.059428,-0.029459
48239,9.556892,-0.506412,0.826279,0.125402,-0.044075,-0.103503
48240,9.256778,-0.785081,0.329799,-0.004961,-0.149502,-0.115912
48241,9.644627,-1.354673,0.919505,-0.145043,-0.176715,-0.069481
48242,9.949490,-1.841614,2.318993,-0.228289,-0.046070,-0.021307
48243,9.729086,-2.144743,3.480242,-0.261030,0.090579,0.020117
48244,9.519401,-2.401652,3.926085,-0.270598,0.175261,0.069036
48245,9.359956,-2.414592,4.005203,-0.232869,0.216203,0.115109
48246,9.286587,-2.292553,3.896814,-0.139968,0.218563,0.149815
48247,9.333601,-2.042306,3.643811,0.012183,0.196300,0.148531
48248,9.402400,-1.880435,3.298916,0.151270,0.173102,0.132667
48249,9.489022,-1.888374,3.006675,0.294298,0.152178,0.123001
48250,9.616971,-1.754885,2.711209,0.403467,0.156588,0.114106
48251,9.655210,-1.603049,2.186438,0.464436,0.171902,0.084725
48252,9.656015,-1.397074,1.784569,0.446630,0.184009,0.056553
48253,9.554304,-1.512014,1.576007,0.303831,0.195596,0.057100
48254,9.553064,-1.496038,1.547648,0.206127,0.206621,0.071767
48255,9.504451,-1.338747,1.613344,0.094786,0.236164,0.064306
48256,9.239434,-1.320319,1.454041,-0.040804,0.222466,0.065898
48257,9.199296,-1.662584,1.211607,-0.156475,0.152663,0.090392
48258,9.339335,-2.315473,1.248435,-0.205753,0.120309,0.142570
48259,9.404306,-2.776226,1.660843,-0.172855,0.132416,0.198385
48260,9.444164,-2.933968,2.380999,-0.087502,0.153713,0.241185
48261,9.527975,-2.961400,3.041124,0.004200,0.185892,0.280900
48262,9.438167,-2.813956,3.582690,0.104070,0.210245,0.320414
48263,9.362860,-2.551574,3.878688,0.175309,0.215902,0.353397
48264,9.290516,-2.319523,3.885322,0.208748,0.205062,0.379757
48265,9.216404,-2.382859,3.764272,0.273330,0.191989,0.408684
48266,9.090288,-2.359812,3.368057,0.368897,0.189058,0.428258
48267,8.894701,-2.254894,2.773939,0.424939,0.179310,0.438658
48268,8.931179,-2.125238,2.093139,0.433529,0.159705,0.443851
48269,9.043415,-2.347806,1.383580,0.385744,0.144148,0.462201
48270,9.177462,-2.348385,1.177544,0.348926,0.134260,0.454841
48271,9.301907,-2.329573,1.311057,0.282736,0.153045,0.438463
48272,9.160640,-2.525236,1.555971,0.270514,0.162249,0.440284
48273,9.015733,-2.724964,1.983030,0.247469,0.140423,0.478635
48274,9.174195,-3.161267,2.934674,0.166679,0.162950,0.560856
48275,9.310983,-3.745874,3.926611,0.146510,0.218802,0.672409
48276,9.683902,-4.566851,4.899755,0.214079,0.275904,0.798658
48277,9.934132,-5.335133,4.884480,0.466926,0.293818,0.936170
48278,9.755613,-4.752749,4.084147,0.815750,0.172130,0.973210
48279,9.679322,-3.337628,3.405021,1.031278,0.019443,0.905991
48280,9.408400,-2.654226,2.930347,1.030249,-0.036116,0.809866
48281,8.720234,-2.262254,2.052809,1.070213,-0.038135,0.710139
48282,8.101822,-1.907510,1.109942,1.045271,-0.053958,0.661335
48283,8.035720,-1.668221,0.333124,0.926326,-0.086623,0.672811
48284,8.252405,-1.569063,-0.102140,0.843851,-0.109877,0.703563
48285,8.548031,-1.809873,0.289663,0.697504,-0.080244,0.725697
48286,8.754928,-2.394160,1.490565,0.561697,-0.041344,0.755859
48287,8.810956,-2.692558,2.927734,0.476046,0.047088,0.776821
48288,8.900612,-2.613317,4.260735,0.339734,0.156673,0.788970
48289,9.126023,-2.881119,5.307553,0.106835,0.294804,0.809805
48290,9.103484,-3.594637,5.547445,-0.088885,0.418553,0.845110
48291,8.905283,-3.669469,5.054355,-0.155166,0.432641,0.879260
48292,8.763322,-3.864589,4.147347,-0.210882,0.383882,0.876696
48293,8.836433,-4.153848,3.555188,-0.090384,0.305321,0.865760
48294,8.857931,-4.426900,3.170177,0.081281,0.243017,0.871887
48295,8.709323,-4.815389,3.075890,0.322403,0.199077,0.881694
48296,8.643925,-4.771320,3.085540,0.624630,0.158649,0.900468
48297,8.721494,-4.250720,2.928659,0.807756,0.148697,0.898820
48298,8.593921,-3.619127,2.677211,0.806879,0.151238,0.883103
48299,8.653017,-3.083977,2.566631,0.735361,0.132613,0.855118
48300,8.783233,-2.853104,2.558538,0.524823,0.151587,0.825093
48301,8.858349,-3.038540,2.656368,0.273461,0.208479,0.814345
48302,8.913521,-3.579120,2.905466,0.032953,0.270751,0.844492
48303,8.956837,-4.120936,3.402418,-0.149811,0.338165,0.891522
48304,8.888814,-4.513898,4.079866,-0.227691,0.389162,0.925411
48305,8.685442,-4.396205,4.777739,-0.237497,0.409617,0.939195
48306,8.576217,-4.318054,5.458324,-0.248518,0.418276,0.942964
48307,8.529500,-4.930749,5.702114,-0.182379,0.447878,0.973249
48308,8.441230,-5.582526,4.797633,0.029726,0.424884,1.033183
48309,8.553131,-5.622632,3.258788,0.274155,0.325313,1.053277
48310,8.938945,-5.493408,2.318602,0.490237,0.221054,1.011276
48311,8.853076,-5.183558,2.089290,0.730878,0.145693,0.927249
48312,8.454763,-4.429691,2.276640,0.847637,0.098377,0.854207
48313,8.125879,-3.897877,2.758195,0.815575,0.117118,0.818123
48314,7.697891,-3.576981,3.026346,0.743331,0.158866,0.812697
48315,7.353857,-3.490558,3.050815,0.585286,0.168423,0.826565
48316,7.315672,-3.917592,3.074983,0.370362,0.160661,0.861739
48317,7.457742,-4.571671,3.401001,0.207926,0.177776,0.921695
48318,7.713588,-5.014019,4.101790,0.110147,0.226834,0.955087
48319,7.893025,-5.292345,4.800422,0.078560,0.311621,0.966977
48320,7.871079,-5.244894,5.370701,0.072128,0.370561,0.972742
48321,7.741920,-5.105789,5.490549,0.060848,0.408414,0.973214
48322,7.330694,-4.983903,5.076000,0.042625,0.391616,0.954764
48323,7.151349,-4.847169,4.457712,0.067724,0.334162,0.926146
48324,7.045557,-5.003064,3.773507,0.099949,0.291423,0.891771
48325,7.035334,-5.281945,3.417870,0.212708,0.240041,0.857322
48326,7.024403,-5.578419,3.430912,0.362477,0.219681,0.830929
48327,6.889845,-5.428111,3.428536,0.543307,0.189174,0.807743
48328,6.874293,-5.086137,3.294345,0.611885,0.153636,0.789093
48329,7.010766,-4.974066,3.298986,0.587063,0.140445,0.776492
48330,7.065261,-4.993887,3.319390,0.479263,0.147943,0.772325
48331,7.221853,-4.916298,3.467685,0.277997,0.209035,0.748641
48332,7.228817,-4.530893,3.700087,0.040268,0.314636,0.706509
48333,7.353409,-4.301634,4.101813,-0.344760,0.458944,0.653655
48334,7.533460,-4.904033,4.592599,-0.818582,0.621606,0.681121
48335,7.689034,-6.286260,5.422106,-1.177651,0.758454,0.795340
48336,7.273887,-7.898223,5.912335,-1.393932,0.830846,0.954667
48337,6.632581,-8.551736,5.572088,-1.255298,0.694791,1.043447
48338,6.672942,-7.628801,5.175254,-0.963825,0.507213,1.037098
48339,6.674456,-6.922248,4.799553,-0.732010,0.431988,0.953793
48340,6.372040,-6.613301,4.583985,-0.460469,0.436414,0.840957
48341,5.940512,-6.498770,4.443019,-0.200413,0.424797,0.769618
48342,5.694380,-6.744699,4.380136,0.109105,0.386895,0.768243
48343,5.516129,-6.787793,4.073149,0.388975,0.310104,0.834311
48344,5.702983,-6.352366,3.958349,0.558325,0.247214,0.862007
48345,5.952952,-5.894495,3.992790,0.562895,0.249314,0.833334
48346,5.986054,-5.786365,3.698364,0.465382,0.224470,0.780637
48347,6.140261,-6.049915,3.485985,0.293073,0.220467,0.753470
48348,6.095630,-6.142454,3.610817,0.094263,0.287003,0.730966
48349,5.882268,-6.072161,4.318416,-0.124626,0.394680,0.709806
48350,5.619337,-6.391196,5.144102,-0.453542,0.532457,0.738713
48351,5.525392,-7.261800,5.621824,-0.746827,0.667231,0.847490
48352,5.338641,-8.129563,5.614211,-0.955942,0.748247,0.990835
48353,5.231010,-8.383099,5.176869,-1.006934,0.696651,1.106543
48354,5.344800,-8.276501,4.863132,-0.993221,0.594277,1.153282
48355,5.358954,-8.177095,4.623975,-0.931937,0.507891,1.136812
48356,5.266125,-8.242942,4.624763,-0.773416,0.449256,1.095241
48357,5.026768,-8.483938,4.880221,-0.493829,0.403326,1.064822
48358,4.748490,-8.551049,4.954175,-0.058436,0.325731,1.061642
48359,4.576384,-8.515295,4.700696,0.396703,0.226566,1.078520
48360,4.551439,-7.950880,4.230628,0.814724,0.117382,1.092532
48361,4.722245,-7.042018,4.065134,1.040369,0.041165,1.075921
48362,4.792174,-6.545408,4.095819,1.074453,0.014406,1.020821
48363,4.773773,-6.263815,4.150076,1.049211,0.003453,0.951709
48364,4.732260,-6.341207,4.416779,0.902397,0.030807,0.922663
48365,4.709810,-7.059487,4.624636,0.745451,0.076621,0.944568
48366,4.651694,-7.582507,4.861575,0.683283,0.122811,0.989660
48367,4.533057,-7.737006,5.301008,0.652373,0.150302,1.008060
48368,4.391819,-7.421881,5.527625,0.680234,0.121170,0.996064
48369,4.364010,-6.786967,5.591342,0.688610,0.082292,0.971154
48370,4.238059,-7.179815,5.553063,0.608902,0.050130,0.944252
48371,4.233045,-8.312230,5.282915,0.762722,-0.011365,0.984139
48372,4.444203,-9.531075,4.699729,1.116608,-0.112508,1.068144
48373,4.677074,-10.051282,4.286114,1.607493,-0.253443,1.095039
48374,4.840782,-9.289834,4.505931,2.181471,-0.405413,1.059525
48375,4.781627,-7.672922,4.821100,2.600296,-0.560043,0.963449
48376,4.587660,-6.159088,5.078171,2.835411,-0.666890,0.877900
48377,4.376435,-5.312204,5.191630,2.861320,-0.706414,0.782100
48378,4.252543,-4.856785,4.740180,2.746183,-0.615092,0.666828
48379,3.789869,-3.750609,4.179139,2.453079,-0.474952,0.573060
48380,3.607178,-3.232183,4.370422,1.736978,-0.365020,0.544729
48381,3.634557,-4.236750,4.707318,0.982165,-0.218656,0.564694
48382,3.336140,-5.617980,4.868674,0.335371,-0.061347,0.621833
48383,2.955979,-6.755980,5.020823,-0.121786,0.045450,0.690430
48384,2.696409,-7.393647,5.714529,-0.358509,0.096250,0.748161
48385,2.505899,-7.563804,6.532092,-0.440518,0.108614,0.778044
48386,2.254314,-7.597904,7.002714,-0.372055,0.065246,0.781021
48387,2.281361,-7.517387,7.298446,-0.115817,-0.027683,0.754463
48388,2.548847,-7.517820,7.345873,0.258630,-0.139066,0.721882
48389,2.801407,-7.339239,7.100492,0.835127,-0.281897,0.672909
48390,3.137706,-6.500206,6.906115,1.401975,-0.419148,0.627953
48391,3.465494,-5.647604,6.517812,1.763313,-0.476247,0.554626
48392,3.569679,-4.957748,6.397729,1.925658,-0.490856,0.491765
48393,3.689814,-4.901543,6.604407,1.867699,-0.457949,0.456602
48394,3.512497,-5.140502,6.754182,1.816562,-0.422289,0.455264
48395,3.216679,-5.089847,6.880253,1.691799,-0.419026,0.466500
48396,3.082150,-5.202514,7.293293,1.486093,-0.423080,0.493115
48397,2.969616,-5.731465,7.482296,1.362320,-0.390920,0.524723
48398,2.753999,-6.327821,7.533349,1.346088,-0.358571,0.556850
48399,2.608526,-7.110779,7.364979,1.434944,-0.360938,0.605107
48400,2.815335,-7.890711,6.990144,1.645938,-0.395675,0.638365
48401,3.132194,-7.723149,6.356137,1.982868,-0.416408,0.640418
48402,3.417690,-6.292755,6.157059,2.162371,-0.420734,0.566464
48403,3.313532,-5.153573,6.190067,2.024469,-0.390466,0.508234
48404,3.008569,-4.446669,6.564843,1.840695,-0.369647,0.478359
48405,2.702752,-4.289416,6.779022,1.688342,-0.323979,0.489852
48406,2.530761,-3.977976,7.208672,1.582509,-0.263956,0.509426
48407,2.747931,-3.756956,7.382301,1.362167,-0.194087,0.526045
48408,3.253417,-3.155827,7.281929,1.105842,-0.088295,0.485681
48409,3.615756,-2.021875,7.335472,0.730524,0.040408,0.386139
48410,3.763102,-1.124720,7.503686,0.132571,0.142593,0.243080
48411,3.547920,-1.546765,8.270448,-0.471421,0.198402,0.120447
48412,3.184975,-3.234239,8.540779,-0.699902,0.186782,0.066791
48413,2.788451,-5.138165,8.403846,-0.653611,0.143683,0.091508
48414,2.864330,-6.365472,8.275882,-0.317152,0.070308,0.140567
48415,3.189669,-6.420599,8.307757,0.148807,-0.005653,0.199474
48416,3.238423,-5.860498,8.309258,0.429669,-0.062513,0.233583
48417,3.097224,-5.366711,8.275009,0.613429,-0.129355,0.232110
48418,2.915758,-4.726824,8.155911,0.822199,-0.211575,0.207465
48419,2.815477,-4.145786,8.015991,0.979554,-0.296113,0.185280
48420,2.765768,-4.001197,7.578499,1.047970,-0.370473,0.169810
48421,3.117916,-3.781905,7.519811,1.073334,-0.406767,0.166362
48422,3.406402,-3.710069,7.888658,0.995683,-0.416553,0.164009
48423,3.645642,-3.486161,8.460339,0.871819,-0.418375,0.125140
48424,3.586892,-2.764714,9.043801,0.615716,-0.359141,0.032320
48425,3.128167,-2.636297,8.924623,0.194014,-0.294261,-0.050642
48426,2.787894,-3.948164,7.968188,-0.127336,-0.263857,-0.069802
48427,2.480383,-5.106421,7.313132,-0.068477,-0.217903,-0.069980
48428,2.309067,-5.100253,7.206654,0.110688,-0.189324,-0.066463
48429,2.532591,-4.720643,7.494083,0.194052,-0.198685,-0.030603
48430,2.680121,-4.624546,8.072806,0.201165,-0.191442,0.016791
48431,2.600289,-4.890946,8.568771,0.230290,-0.184513,0.075692
48432,2.594723,-4.882769,8.828290,0.347091,-0.194759,0.113446
48433,2.697088,-4.768168,8.974895,0.483049,-0.209840,0.145276
48434,2.924410,-4.481235,8.682115,0.631879,-0.262062,0.159307
48435,3.256071,-4.179654,8.505715,0.751200,-0.286623,0.143487
48436,3.325393,-3.858192,8.590948,0.866377,-0.277033,0.105781
48437,3.268399,-3.846953,8.700873,0.961391,-0.292876,0.092995
48438,3.191053,-3.966504,8.703009,1.085029,-0.321400,0.100802
48439,3.128052,-4.293214,8.442622,1.210338,-0.379889,0.121744
48440,3.361222,-4.405892,8.041712,1.418475,-0.445043,0.129953
48441,3.661416,-3.905038,8.037232,1.575119,-0.453630,0.107016
48442,3.608890,-2.937937,8.082476,1.591430,-0.409799,0.040985
48443,3.321030,-1.747885,8.197394,1.362828,-0.333680,-0.028305
48444,3.163028,-1.410236,8.113079,0.909606,-0.249530,-0.038209
48445,3.243354,-1.754642,8.216103,0.574284,-0.192130,-0.015857
48446,3.382166,-2.276036,8.396217,0.335628,-0.145150,0.016575
48447,3.646899,-2.888112,8.565593,0.253946,-0.138780,0.047892
48448,3.659438,-3.083572,8.814135,0.315728,-0.141258,0.040666
48449,3.549834,-2.888440,8.937524,0.377629,-0.144245,0.001366
48450,3.539524,-2.186139,8.953645,0.400174,-0.127401,-0.068362
48451,3.485537,-1.639186,8.959915,0.259821,-0.080909,-0.138765
48452,3.492262,-1.862910,8.825245,0.027146,-0.007715,-0.168990
48453,3.531540,-2.192145,8.670518,-0.150116,0.072879,-0.163416
48454,3.612924,-2.296282,8.624247,-0.361500,0.142934,-0.178664
48455,3.741087,-2.747116,8.439366,-0.598535,0.205580,-0.176986
48456,3.825338,-3.154817,8.406411,-0.688224,0.260609,-0.183488
48457,3.675264,-3.056540,8.545395,-0.747136,0.306507,-0.206118
48458,3.449819,-2.803456,8.668088,-0.849324,0.331345,-0.225633
48459,3.250445,-2.964688,8.685852,-0.985861,0.325799,-0.228091
48460,3.370954,-3.370666,8.367159,-1.014739,0.301321,-0.226765
48461,3.451787,-3.367589,8.325110,-0.984904,0.303547,-0.252027
48462,3.564968,-3.145953,8.171097,-0.975577,0.324154,-0.297345
48463,3.564071,-2.613721,8.122512,-1.070948,0.355134,-0.358281
48464,3.499091,-2.276073,8.317011,-1.305539,0.396322,-0.399517
48465,3.403495,-2.590414,8.396730,-1.575835,0.410239,-0.396992
48466,3.251816,-3.645162,8.394882,-1.695458,0.386464,-0.335150
48467,3.272145,-4.983567,8.005711,-1.577626,0.338922,-0.268278
48468,3.211018,-5.451025,7.760179,-1.276441,0.331483,-0.252307
48469,3.068266,-5.032731,7.508803,-1.045786,0.311279,-0.268591
48470,3.242757,-4.289169,7.442511,-0.951699,0.310613,-0.321526
48471,3.297491,-3.398028,7.767704,-0.976046,0.331810,-0.386798
48472,3.105210,-3.499399,8.226487,-1.158640,0.323429,-0.376881
48473,2.975777,-4.884319,8.000415,-1.288993,0.302874,-0.302713
48474,2.986962,-5.860807,7.805818,-1.206574,0.338373,-0.235169
48475,3.020019,-5.865432,8.177272,-1.067038,0.383601,-0.196819
48476,3.070308,-5.090628,8.348548,-0.991891,0.448850,-0.214056
48477,3.138420,-4.086332,8.140810,-1.074461,0.482865,-0.277677
48478,3.262254,-3.196901,7.874843,-1.244004,0.524244,-0.356596
48479,3.149622,-2.884176,7.488720,-1.452950,0.496777,-0.424363
48480,3.075461,-3.669166,7.312596,-1.678750,0.400104,-0.416590
48481,2.988042,-5.943333,7.109077,-1.769114,0.294642,-0.314441
48482,2.773242,-8.127017,6.752647,-1.502902,0.236610,-0.215040
48483,2.667564,-8.411626,6.725794,-0.988086,0.216783,-0.196545
48484,2.813645,-7.033178,6.997523,-0.715212,0.241153,-0.242824
48485,2.939256,-5.353707,7.122131,-0.725538,0.294005,-0.330682
48486,3.166869,-4.067080,7.431836,-0.981274,0.348809,-0.414981
48487,3.212086,-3.877538,7.677847,-1.398332,0.404451,-0.418259
48488,3.125308,-4.852809,7.532819,-1.731604,0.396394,-0.360569
48489,3.119094,-6.238857,7.144274,-1.854204,0.367187,-0.292170
48490,3.174454,-7.021210,6.710778,-1.745852,0.351972,-0.260104
48491,3.273607,-6.771747,6.416196,-1.608969,0.344973,-0.281871
48492,3.487046,-6.105786,6.538654,-1.550059,0.364548,-0.345005
48493,3.409588,-5.762919,6.955433,-1.568474,0.395601,-0.399917
48494,3.079752,-6.276972,7.401522,-1.597449,0.391146,-0.393114
48495,2.758377,-7.285407,7.321734,-1.504717,0.346583,-0.340176
48496,2.692080,-7.901042,7.154193,-1.249689,0.288717,-0.265355
48497,3.010438,-7.854506,6.852406,-0.944245,0.256790,-0.246523
48498,3.307483,-6.785427,6.290276,-0.724299,0.250375,-0.301627
48499,3.567057,-5.589185,6.261947,-0.723615,0.268325,-0.390298
48500,3.531495,-4.882511,6.416194,-0.896899,0.315032,-0.481439
48501,3.366388,-4.971621,6.603974,-1.144354,0.358931,-0.523756
48502,3.164220,-6.232060,6.448106,-1.404747,0.416466,-0.461962
48503,2.898768,-8.077543,5.694712,-1.528650,0.436362,-0.357594
48504,2.870634,-9.121696,5.471901,-1.405114,0.400852,-0.284301
48505,3.079096,-8.750261,5.648799,-1.191547,0.356685,-0.277649
48506,3.291914,-7.552314,5.609292,-1.074905,0.335998,-0.320774
48507,3.214838,-6.783156,6.219866,-1.148192,0.363040,-0.352694
48508,2.819873,-7.476416,6.662610,-1.231494,0.375889,-0.327953
48509,2.631481,-8.388049,6.378301,-1.069075,0.359587,-0.256518
48510,2.750459,-8.788205,6.125890,-0.797999,0.333211,-0.191005
48511,3.034212,-8.383673,5.775985,-0.530766,0.256352,-0.193876
48512,3.534116,-7.250634,5.452688,-0.376747,0.203861,-0.271143
48513,3.675044,-6.263142,5.320861,-0.359417,0.210766,-0.357204
48514,3.560546,-5.744604,5.457795,-0.470381,0.236116,-0.413646
48515,3.316103,-5.835459,5.681154,-0.645867,0.257628,-0.432022
48516,3.150457,-6.271883,5.603472,-0.756951,0.258567,-0.431592
48517,3.080157,-6.814207,5.247260,-0.817553,0.269441,-0.409561
48518,3.196558,-7.240470,4.815582,-0.864209,0.272788,-0.407762
48519,3.262207,-7.216425,4.649769,-0.888067,0.273241,-0.456378
48520,3.395661,-6.440766,5.374354,-0.872140,0.278244,-0.553515
48521,3.403433,-6.462571,6.812627,-0.945559,0.376448,-0.624791
48522,3.237530,-8.052706,7.027518,-0.935613,0.476544,-0.563916
48523,3.211007,-9.648498,6.708234,-0.638449,0.511130,-0.398620
48524,3.202232,-10.372534,6.416767,-0.214348,0.415583,-0.246051
48525,3.598957,-9.713248,4.959793,0.202603,0.195134,-0.229718
48526,4.399046,-8.058673,3.856956,0.502702,0.087963,-0.334361
48527,4.263420,-6.754307,3.741583,0.435679,0.102602,-0.470846
48528,3.919702,-6.495062,3.842068,0.264207,0.105732,-0.584778
48529,3.472085,-6.395090,3.965209,0.146757,0.154398,-0.590462
48530,3.014558,-6.963209,4.252413,-0.028388,0.211255,-0.528830
48531,2.913253,-7.945816,4.559066,-0.222814,0.233059,-0.424022
48532,2.988213,-8.600875,5.298161,-0.357648,0.228528,-0.343927
48533,3.279881,-8.752145,6.007214,-0.365725,0.235213,-0.291509
48534,3.452742,-8.316471,6.233470,-0.291862,0.246854,-0.267156
48535,3.558305,-7.913905,6.343286,-0.185608,0.224839,-0.252393
48536,3.535424,-7.828122,5.967422,-0.010980,0.160630,-0.257229
48537,3.525526,-7.875538,5.017018,0.205721,0.075563,-0.303051
48538,3.717777,-7.898591,4.133546,0.441148,0.039292,-0.333826
48539,3.788865,-7.682742,3.900934,0.598686,0.028154,-0.377858
48540,3.898210,-7.131062,3.980564,0.590547,0.019410,-0.427515
48541,3.973264,-6.266109,3.960890,0.411321,0.031386,-0.453423
48542,3.960931,-5.674476,4.376683,0.094236,0.067762,-0.484586
48543,4.014477,-5.799163,5.086429,-0.267739,0.154444,-0.505006
48544,3.926449,-6.614255,5.484212,-0.542311,0.266350,-0.475988
48545,3.933353,-7.737641,5.714914,-0.678659,0.337968,-0.392268
48546,3.934689,-8.374483,5.607280,-0.600112,0.314434,-0.321054
48547,4.081587,-8.146925,5.586606,-0.396379,0.213755,-0.307595
48548,4.164407,-7.785342,5.378870,-0.207417,0.120046,-0.355232
48549,4.210372,-7.551776,5.138130,0.011449,0.056723,-0.417484
48550,3.956183,-7.739469,4.721467,0.213992,0.015724,-0.468899
48551,3.715244,-7.620951,4.268463,0.456514,-0.060860,-0.500584
48552,3.728639,-7.074616,4.374923,0.588561,-0.105167,-0.528452
48553,3.768066,-6.355585,4.577026,0.576835,-0.122007,-0.554887
48554,3.866958,-5.746466,4.663563,0.446776,-0.129923,-0.584842
48555,3.892066,-5.802904,4.717405,0.191010,-0.091626,-0.608596
48556,3.944263,-6.568973,4.546825,-0.051743,-0.018466,-0.614356
48557,4.075302,-7.072370,4.629899,-0.185397,0.028428,-0.595683
48558,4.300239,-7.223386,5.361806,-0.245400,0.042520,-0.585100
48559,4.517422,-6.983542,5.812936,-0.246385,0.031158,-0.581569
48560,4.654407,-6.796777,6.112135,-0.244751,0.001627,-0.588264
48561,4.694868,-6.888999,6.155033,-0.170176,-0.037457,-0.607122
48562,4.566919,-7.139830,5.744376,0.044765,-0.090493,-0.656140
48563,4.390552,-6.965759,4.597851,0.327109,-0.166678,-0.738381
48564,4.265300,-6.470422,3.605559,0.506650,-0.239557,-0.823783
48565,4.268337,-6.392490,3.580133,0.537181,-0.276190,-0.882869
48566,4.247986,-6.237345,3.770939,0.507023,-0.271631,-0.933190
48567,4.511177,-6.011421,4.031805,0.374961,-0.241657,-0.948960
48568,5.000167,-6.416020,3.816501,0.159506,-0.151336,-0.906736
48569,5.424482,-7.235872,3.419099,-0.099317,-0.078073,-0.827323
48570,5.779077,-7.621516,4.056706,-0.333785,-0.075901,-0.770063
48571,5.989091,-7.451096,5.373656,-0.502124,-0.120781,-0.752833
48572,6.009136,-6.715655,6.055450,-0.608472,-0.150049,-0.732335
48573,5.811628,-6.287262,6.435778,-0.719500,-0.128713,-0.736954
48574,5.310023,-6.577759,6.451335,-0.678036,-0.083501,-0.755102
48575,4.914521,-6.622183,5.821810,-0.355711,-0.120050,-0.792337
48576,4.970020,-6.615631,5.277736,-0.021277,-0.200008,-0.806736
48577,5.047713,-6.798497,4.647670,0.258198,-0.300631,-0.827347
48578,5.062245,-6.740177,3.822466,0.504970,-0.393084,-0.855524
48579,5.124827,-6.173928,3.327358,0.643057,-0.472653,-0.896674
48580,5.222159,-5.593713,3.352382,0.596007,-0.500342,-0.947421
48581,5.484102,-5.135059,3.537736,0.397580,-0.464998,-1.001293
48582,5.970763,-5.269874,3.910326,0.088774,-0.377795,-0.987776
48583,6.400752,-6.220580,4.101780,-0.230270,-0.248205,-0.905941
48584,6.610139,-6.847268,4.678250,-0.446300,-0.207087,-0.818572
48585,6.809990,-6.760917,5.866059,-0.619404,-0.217131,-0.778959
48586,6.830601,-6.345094,6.577765,-0.711504,-0.215891,-0.756911
48587,6.585269,-6.253491,6.786671,-0.727449,-0.170928,-0.754154
48588,6.124698,-6.591763,6.462814,-0.596585,-0.144318,-0.766714
48589,5.958089,-6.696657,5.795444,-0.235451,-0.190399,-0.802496
48590,6.061453,-6.710570,5.220895,0.133233,-0.257872,-0.842699
48591,6.055637,-6.595805,4.508847,0.463089,-0.350750,-0.876837
48592,6.055915,-6.263529,3.814127,0.696268,-0.447738,-0.905751
48593,6.079061,-5.619163,3.324389,0.788384,-0.498134,-0.934053
48594,6.112058,-4.841637,3.240663,0.730075,-0.510342,-0.979096
48595,6.363946,-4.213035,3.586049,0.531531,-0.464442,-1.014422
48596,6.923265,-4.504466,4.066252,0.193976,-0.312863,-1.011427
48597,7.305312,-5.439851,3.991008,-0.134945,-0.126504,-0.939614
48598,7.489908,-6.236460,4.241272,-0.436879,-0.081961,-0.859025
48599,7.765227,-6.594642,4.911323,-0.651991,-0.108213,-0.786385
48600,7.609871,-6.184259,5.275993,-0.772654,-0.121768,-0.742643
48601,7.416587,-5.809413,5.420943,-0.837111,-0.138968,-0.725374
48602,7.237433,-5.785167,5.361085,-0.741987,-0.166380,-0.742395
48603,7.150452,-5.790203,5.044600,-0.471828,-0.212607,-0.786847
48604,7.055280,-5.637907,4.611673,-0.123603,-0.271810,-0.820859
48605,7.056184,-5.632973,4.343176,0.165505,-0.351994,-0.847140
48606,7.275393,-5.394804,4.131047,0.469466,-0.475454,-0.862155
48607,7.699740,-4.660357,3.983947,0.808161,-0.609093,-0.953993
48608,7.917486,-3.559892,3.632742,0.982832,-0.702081,-1.084869
48609,7.819396,-2.926317,3.027825,0.881671,-0.709662,-1.211802
48610,7.555591,-3.169912,2.844420,0.548534,-0.635600,-1.266510
48611,7.793172,-4.038680,2.838026,0.205896,-0.515940,-1.239811
48612,7.963990,-4.894215,3.199187,-0.116390,-0.393133,-1.140250
48613,7.956952,-5.365977,3.880074,-0.373790,-0.363527,-1.022994
48614,7.956080,-5.321747,4.489942,-0.569147,-0.346254,-0.912735
48615,7.769448,-5.229728,4.874253,-0.716798,-0.338418,-0.833961
48616,7.714802,-5.235601,5.559728,-0.733137,-0.322474,-0.811049
48617,7.620461,-5.273972,6.033972,-0.572518,-0.294513,-0.809342
48618,7.600195,-4.956809,5.555272,-0.238656,-0.291098,-0.824668
48619,7.714784,-4.495256,4.659592,0.019927,-0.315349,-0.838726
48620,7.879223,-4.513718,4.054013,0.223220,-0.360320,-0.860883
48621,7.911562,-4.236948,3.356653,0.471715,-0.411690,-0.883875
48622,8.041964,-3.462734,2.881904,0.585920,-0.478480,-0.905351
48623,8.334011,-2.899307,2.877567,0.470272,-0.481509,-0.930665
48624,8.460507,-2.307499,3.190940,0.288239,-0.419901,-0.966350
48625,8.581158,-1.943486,3.511221,-0.005258,-0.322495,-0.984223
48626,8.618307,-2.427916,3.551972,-0.407217,-0.204446,-0.968003
48627,8.713349,-3.589646,3.771452,-0.743970,-0.123752,-0.920039
48628,8.808526,-4.794987,3.983695,-0.910834,-0.070301,-0.838513
48629,8.858694,-5.454821,4.387432,-0.840379,-0.047086,-0.768833
48630,8.893817,-5.501670,4.820463,-0.644197,-0.065669,-0.720967
48631,8.936160,-4.797973,4.954142,-0.362806,-0.102225,-0.737156
48632,9.072887,-3.921634,5.061860,-0.098721,-0.138635,-0.762513
48633,9.025681,-3.515068,5.113010,0.065326,-0.148227,-0.799306
48634,8.898458,-3.671901,4.937644,0.256152,-0.154993,-0.802486
48635,8.727433,-4.007327,4.253412,0.485057,-0.180677,-0.785953
48636,8.470533,-3.418462,2.653071,0.757652,-0.236302,-0.781029
48637,8.640960,-1.896049,1.420546,0.843502,-0.346650,-0.820321
48638,9.062470,-0.969291,1.485137,0.631400,-0.344793,-0.874027
48639,9.070262,-0.158452,2.111323,0.515621,-0.301158,-0.960920
48640,9.014881,1.198357,3.176180,0.259774,-0.203478,-1.058126
48641,8.878151,1.286152,3.935893,-0.411661,-0.039009,-1.081558
48642,8.902356,-1.071833,3.582236,-1.160124,0.103612,-1.004208
48643,9.025749,-3.830536,2.760646,-1.505481,0.173180,-0.884047
48644,8.765161,-5.430574,2.830127,-1.466260,0.171160,-0.796671
48645,8.441447,-6.005206,3.557321,-1.152370,0.130357,-0.737716
48646,8.363147,-5.586402,4.510240,-0.710660,0.079753,-0.673855
48647,8.383548,-4.743642,5.064502,-0.325204,0.032116,-0.605975
48648,8.669676,-3.934945,4.756723,-0.014260,-0.033407,-0.538657
48649,9.027703,-3.189669,4.194958,0.196839,-0.089969,-0.511995
48650,9.184297,-2.752948,3.681718,0.370321,-0.140826,-0.522225
48651,9.166047,-2.204325,2.960187,0.542046,-0.174396,-0.557417
48652,9.170319,-1.483091,2.055979,0.573615,-0.210197,-0.576726
48653,9.046782,-1.141269,1.335744,0.397258,-0.284434,-0.574709
48654,9.180314,-1.124242,1.234480,0.277165,-0.331193,-0.572518
48655,9.259549,-0.905213,1.520782,0.103804,-0.282929,-0.571243
48656,9.063192,-1.117004,1.821365,-0.246719,-0.231409,-0.559279
48657,8.881076,-1.993563,1.885226,-0.550694,-0.195894,-0.517352
48658,8.707421,-2.748396,2.219240,-0.719751,-0.170381,-0.460970
48659,8.695429,-2.919074,3.002142,-0.729417,-0.170665,-0.408335
48660,8.970627,-3.061016,3.896505,-0.701801,-0.175464,-0.349144
48661,9.165371,-2.975992,4.431810,-0.552761,-0.154713,-0.299105
48662,9.384511,-2.692197,4.552798,-0.405005,-0.144286,-0.280263
48663,9.516099,-2.383039,4.193009,-0.255771,-0.155171,-0.266102
48664,9.612286,-2.024155,3.761062,-0.112748,-0.195600,-0.283824
48665,9.714364,-1.732163,3.596061,0.036383,-0.240727,-0.312032
48666,9.735778,-1.362969,3.497024,0.171921,-0.244603,-0.339874
48667,9.624299,-0.853217,3.291688,0.218637,-0.232697,-0.374142
48668,9.503876,-0.556215,2.924831,0.136101,-0.214618,-0.392838
48669,9.300199,-0.508831,2.457042,-0.051378,-0.177278,-0.401083
48670,9.045495,-0.666847,1.931229,-0.271320,-0.158051,-0.402844
48671,9.034663,-1.045455,1.524306,-0.485582,-0.136855,-0.401624
48672,9.185179,-1.456882,1.512089,-0.626362,-0.102260,-0.388128
48673,9.133102,-2.182718,1.683568,-0.740282,-0.082780,-0.352783
48674,8.996434,-3.169415,2.080697,-0.746506,-0.100181,-0.273838
48675,8.823035,-3.689662,3.062822,-0.618289,-0.119353,-0.191415
48676,8.801179,-3.620777,4.225933,-0.451022,-0.144569,-0.123646
48677,9.153189,-2.975965,4.453717,-0.248470,-0.171969,-0.084445
48678,9.613134,-2.100426,4.092624,-0.043848,-0.200697,-0.068467
48679,9.966543,-1.234299,3.875742,0.140177,-0.202166,-0.096580
48680,10.115470,-0.583470,3.722958,0.258794,-0.182643,-0.155083
48681,10.126919,-0.119619,3.668555,0.242318,-0.133658,-0.219830
48682,9.859488,-0.213186,3.365016,0.080594,-0.089480,-0.256753
48683,9.581298,-0.625607,2.575362,-0.063278,-0.065008,-0.259707
48684,9.346380,-0.960160,1.727079,-0.193278,-0.080094,-0.251827
48685,9.309899,-1.325924,1.101425,-0.302645,-0.095087,-0.214950
48686,9.107413,-1.533298,0.660159,-0.335519,-0.147902,-0.167876
48687,9.088373,-1.223906,0.841359,-0.343556,-0.198046,-0.184023
48688,9.128034,-1.271229,1.398527,-0.380570,-0.219461,-0.202100
48689,8.947171,-1.975832,1.837996,-0.395114,-0.276834,-0.178723
48690,9.021464,-2.890656,2.631964,-0.331205,-0.323881,-0.109477
48691,9.155077,-2.902265,3.230370,-0.126029,-0.308123,-0.067303
48692,9.478976,-1.813205,3.578167,0.008356,-0.302179,-0.055103
48693,9.954172,-0.901950,3.578001,0.067540,-0.274195,-0.076529
48694,10.058897,-0.208587,3.723916,0.091534,-0.223517,-0.112022
48695,9.930736,0.071526,3.688413,-0.026645,-0.166229,-0.144720
48696,9.836004,-0.164789,3.342588,-0.132164,-0.122965,-0.189484
48697,9.706967,-0.468217,2.874396,-0.181702,-0.109264,-0.230303
48698,9.639221,-0.837392,2.055541,-0.213063,-0.091475,-0.241264
48699,9.356893,-1.078950,0.900352,-0.266312,-0.076547,-0.229367
48700,9.384068,-0.865618,0.461022,-0.282461,-0.116086,-0.221387
48701,9.366778,-0.881906,0.738801,-0.361315,-0.109650,-0.226133
48702,9.007483,-1.285242,1.216113,-0.421429,-0.175167,-0.197297
48703,9.038988,-2.144170,2.114247,-0.450913,-0.232730,-0.138085
48704,9.173193,-2.832558,2.946637,-0.347183,-0.218239,-0.057364
48705,9.190248,-2.643487,3.657926,-0.164270,-0.180640,-0.005827
48706,9.629987,-1.953780,3.742244,-0.059811,-0.170849,0.017244
48707,9.899119,-1.239828,3.600295,0.014072,-0.129243,0.008317
48708,9.912258,-0.618638,3.270664,0.068006,-0.092244,-0.021691
48709,9.896192,-0.289157,2.982688,0.006411,-0.077829,-0.046790
48710,9.773126,-0.493459,2.674827,-0.083353,-0.073308,-0.072108
48711,9.693513,-0.829932,2.255052,-0.099710,-0.055366,-0.079383
48712,9.524093,-1.001343,1.840538,-0.143419,-0.035735,-0.076702
48713,9.386402,-1.216957,1.421147,-0.167868,-0.045766,-0.070085
48714,9.273041,-1.377461,1.275532,-0.176693,-0.066249,-0.043804
48715,9.288224,-1.463813,1.288913,-0.196138,-0.079943,-0.029941
48716,9.302154,-1.617064,1.391728,-0.188834,-0.085286,-0.014625
48717,9.234894,-1.892056,1.660590,-0.133982,-0.141583,0.019241
48718,9.452329,-2.096814,2.252736,-0.057742,-0.163031,0.062965
48719,9.644915,-1.658831,2.850951,0.042612,-0.163797,0.079237
48720,9.773978,-1.130379,2.876251,0.075396,-0.137277,0.064017
48721,9.899407,-0.698065,2.680846,0.065463,-0.115358,0.041893
48722,9.893352,-0.415203,2.507772,0.036105,-0.094117,0.007441
48723,9.887423,-0.327213,2.286130,-0.029862,-0.081861,-0.018312
48724,9.866779,-0.467253,2.083640,-0.067427,-0.076351,-0.037131
48725,9.808159,-0.616790,2.077344,-0.090305,-0.071086,-0.050891
48726,9.795898,-0.842874,2.088305,-0.110615,-0.059837,-0.055001
48727,9.734785,-0.959442,2.133627,-0.122554,-0.039022,-0.058245
48728,9.688080,-1.043090,2.112556,-0.123129,-0.015161,-0.061545
48729,9.611976,-1.060588,2.049178,-0.137346,0.005547,-0.064907
48730,9.578851,-1.231603,2.052934,-0.138855,0.016165,-0.066110
48731,9.684193,-1.370940,2.067137,-0.114218,0.017424,-0.059843
48732,9.692719,-1.488055,2.098198,-0.090302,0.025305,-0.052518
48733,9.654746,-1.474146,2.114430,-0.051814,0.027882,-0.038490
48734,9.690360,-1.450140,2.151445,-0.019870,0.012617,-0.033724
48735,9.731834,-1.447722,2.178471,0.000246,0.008510,-0.030470
48736,9.649571,-1.444179,2.126982,0.029955,0.003559,-0.016329
48737,9.611618,-1.431484,2.142162,0.057206,-0.006563,-0.000542
48738,9.620840,-1.387118,2.174365,0.092850,-0.009722,0.012639
48739,9.662361,-1.266153,2.111110,0.095774,-0.010975,0.018706
48740,9.714985,-1.243653,2.028891,0.118894,-0.004246,0.021069
48741,9.574201,-1.055999,1.889723,0.122549,-0.002571,0.019980
48742,9.577534,-0.924013,1.841534,0.087001,0.003105,0.005897
48743,9.562775,-0.956143,1.910883,0.062685,0.005049,0.005665
48744,9.529651,-1.075470,1.916847,0.043832,0.005646,0.002853
48745,9.541351,-1.063828,1.899108,0.054008,-0.002594,0.001464
48746,9.592531,-0.909970,1.957158,0.072925,-0.011106,-0.006105
48747,9.696597,-0.732960,1.931736,0.062259,-0.009554,-0.025365
48748,9.752455,-0.751317,1.889405,0.021386,0.002607,-0.034438
48749,9.714033,-0.845430,1.904447,-0.015965,0.008727,-0.046321
48750,9.707934,-1.114267,2.095315,-0.030178,0.009415,-0.053193
48751,9.663321,-1.349821,2.119797,-0.025421,0.019867,-0.052097
48752,9.521853,-1.563502,2.161159,0.008108,0.021737,-0.040793
48753,9.483317,-1.646474,2.087203,0.069747,0.013740,-0.028604
48754,9.477762,-1.500222,2.008297,0.120621,0.005687,-0.019112
48755,9.472666,-1.255705,2.019776,0.158138,0.002041,-0.012394
48756,9.593920,-0.989526,2.059514,0.155165,0.011090,-0.012311
48757,9.620235,-0.952689,2.066265,0.130191,0.022147,-0.012433
48758,9.622823,-0.872867,2.019422,0.102412,0.027430,-0.013428
48759,9.675423,-0.869411,2.121630,0.063897,0.035277,-0.013793
48760,9.656871,-1.019450,2.154420,0.045662,0.041479,-0.016048
48761,9.611833,-1.202216,2.183650,0.051818,0.036161,-0.016137
48762,9.537548,-1.255147,2.076383,0.084067,0.029460,-0.002497
48763,9.548814,-1.242242,2.061450,0.106271,0.020361,-0.001349
48764,9.621967,-1.174132,2.085349,0.147478,0.020969,0.003501
48765,9.624603,-1.040690,2.037894,0.162839,0.023688,0.001498
48766,9.627181,-0.962038,1.990699,0.152667,0.019772,0.005581
48767,9.659165,-0.948775,1.988244,0.139915,0.012461,0.003530
48768,9.682454,-0.925360,1.953449,0.126710,0.009873,0.005878
48769,9.641105,-0.923996,1.929000,0.104164,0.006208,0.004964
48770,9.611624,-0.912123,1.885532,0.092157,0.004400,-0.000901
48771,9.620503,-0.874926,2.008008,0.076144,-0.002373,-0.011575
48772,9.632331,-0.925328,2.081715,0.067300,-0.002988,-0.016694
48773,9.612067,-0.921744,2.068841,0.073108,-0.004819,-0.032261
48774,9.609552,-0.937377,2.119409,0.084978,-0.006612,-0.040967
48775,9.621874,-0.975194,2.102057,0.092361,-0.008638,-0.050044
48776,9.628494,-0.990174,2.093221,0.103087,-0.013875,-0.053992
48777,9.661715,-1.026322,2.088594,0.115615,-0.016934,-0.056764
48778,9.665573,-0.997504,2.037713,0.120693,-0.016397,-0.062555
48779,9.684131,-0.954179,2.099720,0.128087,-0.013223,-0.069073
48780,9.688083,-0.987191,2.141879,0.125155,-0.006874,-0.072572
48781,9.712477,-1.011512,2.106730,0.132979,-0.004604,-0.064474
48782,9.733910,-1.009486,2.211981,0.149413,-0.001119,-0.074520
48783,9.775272,-0.888455,2.236576,0.170127,0.005493,-0.076349
48784,9.855008,-0.840138,2.340252,0.167790,0.012102,-0.086058
48785,9.934446,-0.782466,2.353661,0.169682,0.023344,-0.099709
48786,9.972403,-0.724374,2.342131,0.165100,0.041737,-0.116808
48787,9.933395,-0.642499,2.359940,0.152756,0.053604,-0.133206
48788,9.920178,-0.811593,2.351429,0.141510,0.056947,-0.147124
48789,9.823036,-1.050812,2.253476,0.148527,0.068459,-0.138943
48790,9.736475,-1.179357,2.224937,0.165021,0.079515,-0.119693
48791,9.618618,-1.205572,2.330040,0.198460,0.087871,-0.102650
48792,9.553457,-1.037341,2.385027,0.212774,0.093407,-0.090328
48793,9.549420,-0.860651,2.388650,0.200960,0.105481,-0.081059
48794,9.455846,-0.788693,2.313066,0.183623,0.117801,-0.080601
48795,9.467386,-0.692994,2.253354,0.169467,0.128628,-0.082759
48796,9.442123,-0.695588,2.213781,0.140340,0.141392,-0.089399
48797,9.366489,-0.697319,2.207398,0.139582,0.150331,-0.093589
48798,9.376579,-0.730026,2.206910,0.144710,0.154487,-0.088950
48799,9.365213,-0.709008,2.190392,0.156514,0.157714,-0.098999
48800,9.406436,-0.674636,2.182012,0.161459,0.158232,-0.104457
48801,9.406216,-0.710328,2.110218,0.166257,0.158990,-0.105574
48802,9.372878,-0.703305,2.040573,0.164630,0.160221,-0.100658
48803,9.400722,-0.692879,2.010920,0.170050,0.149578,-0.096413
48804,9.471001,-0.666707,2.048008,0.158964,0.152520,-0.087318
48805,9.432888,-0.694749,1.988754,0.153912,0.150494,-0.073716
48806,9.435689,-0.653151,1.992257,0.140089,0.142585,-0.063596
48807,9.453551,-0.642952,2.019756,0.135906,0.132710,-0.061995
48808,9.483490,-0.554563,2.063605,0.130958,0.126718,-0.062908
48809,9.498569,-0.572546,2.009870,0.106861,0.120668,-0.061367
48810,9.524900,-0.571423,2.067580,0.101348,0.109240,-0.058567
48811,9.564669,-0.546440,2.145416,0.104364,0.100262,-0.058093
48812,9.585929,-0.577593,2.212863,0.103635,0.089851,-0.052325
48813,9.556220,-0.563894,2.175010,0.099113,0.074264,-0.051376
48814,9.615402,-0.551484,2.223074,0.119458,0.055627,-0.051619
48815,9.553326,-0.411906,2.258050,0.129896,0.043269,-0.047807
48816,9.520495,-0.372415,2.131855,0.098597,0.035261,-0.052207
48817,9.528140,-0.329686,2.031940,0.081114,0.020881,-0.058231
