// Start Time: Unknown
// Update Rate: 100.0Hz
// Filter Profile: human (46.1)
// Firmware Version: 4.3.5
PacketCounter,Acc_X,Acc_Y,Acc_Z,Gyr_X,Gyr_Y,Gyr_Z
57669,9.708152,-1.007064,1.520982,0.051222,-0.000929,-0.034523
57670,9.731922,-0.994840,1.545436,0.050933,0.001505,-0.028819
57671,9.744369,-0.940590,1.516126,0.044105,-0.004976,-0.032683
57672,9.727006,-0.966161,1.518760,0.034598,-0.007351,-0.034925
57673,9.757041,-0.979905,1.520582,0.028842,-0.004814,-0.035296
57674,9.715845,-1.008718,1.547734,0.029390,-0.009290,-0.038924
57675,9.752625,-1.053298,1.478889,0.032729,-0.009855,-0.036798
57676,9.723273,-1.029052,1.500651,0.037693,-0.005972,-0.036751
57677,9.717563,-0.998838,1.522153,0.036754,-0.007175,-0.036724
57678,9.712114,-0.970869,1.519223,0.041336,-0.009075,-0.042222
57679,9.748218,-1.007650,1.523565,0.034336,-0.005206,-0.034972
57680,9.772100,-0.995123,1.547233,0.026708,-0.005189,-0.037249
57681,9.748904,-0.996967,1.547336,0.025780,-0.006495,-0.039155
57682,9.779525,-1.015391,1.500509,0.018152,-0.006482,-0.041432
57683,9.779803,-1.008492,1.524414,0.015740,-0.004616,-0.041627
57684,9.786506,-1.030560,1.502448,0.017858,-0.004035,-0.035746
57685,9.792982,-1.050213,1.504760,0.019073,-0.005069,-0.037567
57686,9.793221,-1.043627,1.528787,0.023361,-0.004520,-0.037390
57687,9.799737,-1.063202,1.531052,0.026973,-0.007211,-0.035147
57688,9.776085,-1.060442,1.579649,0.029090,-0.006626,-0.029269
57689,9.770654,-1.036309,1.552437,0.032432,-0.007178,-0.027146
57690,9.765202,-1.012286,1.525178,0.030289,-0.007453,-0.027225
57691,9.747569,-1.033604,1.576314,0.022643,-0.007246,-0.025651
57692,9.777876,-1.051245,1.553552,0.014305,-0.010072,-0.018158
57693,9.754545,-1.055403,1.553337,0.014961,-0.006623,-0.016367
57694,9.755021,-1.056429,1.528540,0.010657,-0.006967,-0.012682
57695,9.761103,-1.076049,1.554956,0.013719,-0.005274,-0.008758
57696,9.785155,-1.071462,1.529796,0.012792,-0.006586,-0.010666
57697,9.743954,-1.103290,1.557172,0.019214,-0.005649,-0.008481
57698,9.761646,-1.072475,1.554014,0.019614,-0.000272,-0.010668
57699,9.749762,-1.027103,1.524557,0.017718,-0.002371,-0.004849
57700,9.726244,-1.032179,1.524930,0.015600,-0.002965,-0.010714
57701,9.714702,-1.081500,1.555035,0.011687,0.002173,-0.007295
57702,9.715224,-1.085902,1.506554,0.005810,-0.003040,-0.009234
57703,9.738943,-1.078955,1.506173,0.013822,0.002557,-0.005281
57704,9.702912,-1.034588,1.525944,0.012895,0.001244,-0.007189
57705,9.715195,-1.080768,1.531396,0.013159,-0.000787,-0.005138
57706,9.739083,-1.076843,1.506779,0.011934,0.000354,-0.001389
57707,9.727936,-1.132075,1.488350,0.017719,-0.002369,-0.004840
57708,9.710666,-1.164140,1.467112,0.026788,-0.004892,0.007314
57709,9.763628,-1.170559,1.516938,0.026381,-0.010160,0.011437
57710,9.746223,-1.204288,1.495232,0.030602,-0.008749,0.027029
57711,9.781682,-1.245131,1.523359,0.033131,-0.019827,0.037401
57712,9.740271,-1.284585,1.525287,0.034829,-0.024277,0.051261
57713,9.769252,-1.302038,1.573692,0.024849,-0.030992,0.070499
57714,9.798299,-1.324020,1.597111,0.009126,-0.035509,0.083563
57715,9.815279,-1.303290,1.590494,-0.006198,-0.034538,0.096367
57716,9.802131,-1.260950,1.630266,-0.026331,-0.030048,0.104903
57717,9.819017,-1.245876,1.599356,-0.064570,-0.028613,0.118591
57718,9.811641,-1.230493,1.641627,-0.117664,-0.021656,0.127480
57719,9.774785,-1.405211,1.655284,-0.166219,-0.015730,0.146419
57720,9.784735,-1.780804,1.592304,-0.176137,-0.005366,0.159210
57721,9.722102,-1.964359,1.606548,-0.139957,0.002039,0.174216
57722,9.812679,-2.061351,1.613468,-0.097620,0.012844,0.199004
57723,9.825875,-2.051278,1.635066,-0.058869,0.026207,0.219635
57724,9.785380,-2.028131,1.680336,-0.027080,0.015990,0.243129
57725,9.833641,-1.953563,1.793682,-0.009655,0.007875,0.277642
57726,9.781445,-1.882388,1.882023,-0.000822,0.007272,0.288112
57727,9.786579,-1.951333,1.959448,0.001876,-0.015248,0.309217
57728,9.784151,-2.111408,1.922082,0.021447,-0.023682,0.334334
57729,9.687698,-2.199294,1.827717,0.053432,-0.026899,0.350038
57730,9.625054,-2.100812,1.762854,0.085646,-0.042062,0.366448
57731,9.683742,-1.771750,1.500333,0.063436,-0.056767,0.380576
57732,9.739658,-1.442390,1.038526,-0.023440,-0.066405,0.393683
57733,9.881148,-1.402222,0.556533,-0.119008,-0.053570,0.434919
57734,9.889793,-1.651081,0.499229,-0.209563,0.006860,0.480161
57735,9.867448,-1.833510,0.954143,-0.284367,0.073878,0.514390
57736,9.890681,-1.863785,1.666172,-0.413631,0.122868,0.551996
57737,9.847929,-1.980536,2.239120,-0.581002,0.151522,0.574301
57738,9.849821,-2.660627,2.660413,-0.740013,0.149320,0.583728
57739,9.751433,-3.413681,2.780184,-0.759819,0.130616,0.593660
57740,9.592093,-3.715949,2.709981,-0.645188,0.109465,0.577774
57741,9.357323,-3.572825,2.316114,-0.474119,0.072222,0.564913
57742,9.206896,-3.464113,1.782460,-0.290767,0.027979,0.553416
57743,9.308959,-3.522278,1.410545,-0.085571,-0.006952,0.559548
57744,9.402551,-3.339312,1.346361,0.097870,-0.027802,0.566487
57745,9.491530,-2.924662,1.466736,0.209953,-0.035237,0.593558
57746,9.509289,-2.514099,1.342222,0.214304,-0.033740,0.631938
57747,9.534447,-2.150324,0.950132,0.126954,-0.002459,0.671062
57748,9.583010,-2.138378,0.898708,-0.033202,0.037074,0.726375
57749,9.600936,-2.066129,1.186258,-0.253914,0.098267,0.773746
57750,9.422910,-2.239156,1.538708,-0.486165,0.157336,0.783097
57751,9.266715,-2.940712,1.673766,-0.622344,0.181417,0.768578
57752,9.129835,-3.696377,1.606940,-0.623295,0.181547,0.733800
57753,9.052661,-4.382539,1.701300,-0.493630,0.158951,0.685232
57754,9.342702,-5.169106,2.094623,-0.281020,0.138548,0.653645
57755,9.495290,-5.487555,2.112175,0.051072,0.125243,0.633885
57756,9.405712,-5.087189,1.993506,0.383530,0.096276,0.639786
57757,9.338820,-4.538299,1.802998,0.632164,0.049038,0.662552
57758,9.353197,-4.008953,1.659951,0.756525,-0.000729,0.700977
57759,9.404838,-3.664679,1.762881,0.768274,-0.044217,0.756292
57760,9.429824,-3.115755,1.719039,0.663854,-0.058703,0.803017
57761,9.343549,-2.630929,1.274375,0.470599,-0.054821,0.840954
57762,9.323301,-2.760858,0.893247,0.246710,-0.011630,0.875447
57763,9.397299,-3.079448,0.992903,-0.000035,0.091603,0.904257
57764,9.267283,-3.448240,1.464751,-0.248421,0.199324,0.908869
57765,9.175793,-3.942258,1.945356,-0.446622,0.287979,0.896990
57766,8.982354,-4.322081,1.973137,-0.558089,0.352361,0.862327
57767,8.544266,-4.709513,1.676925,-0.547814,0.355788,0.805192
57768,8.643141,-5.482551,1.969565,-0.450735,0.318290,0.757161
57769,8.749960,-5.811325,2.309221,-0.269154,0.254528,0.726943
57770,8.556214,-5.950377,2.174192,-0.004067,0.170983,0.699594
57771,8.584650,-6.151429,1.861392,0.326997,0.072552,0.701719
57772,8.888547,-5.826791,1.610073,0.645550,0.008784,0.734995
57773,9.104814,-4.905184,1.860487,0.831126,-0.023392,0.769212
57774,9.075340,-3.871034,2.036350,0.805444,-0.012424,0.804995
57775,8.887819,-3.113526,1.354483,0.609977,-0.011339,0.815367
57776,8.889111,-3.101998,0.604373,0.350576,0.038309,0.837191
57777,8.821651,-3.351266,0.535226,0.092586,0.112510,0.852410
57778,8.616136,-3.526513,1.141982,-0.174964,0.203016,0.856762
57779,8.523665,-3.900859,1.912639,-0.420977,0.281766,0.841799
57780,8.352020,-4.356911,2.241439,-0.585635,0.335989,0.802259
57781,8.090001,-4.840606,2.023100,-0.604836,0.310593,0.754702
57782,8.287825,-5.709669,2.425403,-0.500387,0.242861,0.701489
57783,8.401985,-6.689756,2.414771,-0.191046,0.123861,0.649063
57784,8.413582,-7.122608,2.012199,0.336051,-0.004569,0.593134
57785,8.565709,-6.668989,1.724880,0.855689,-0.094872,0.573831
57786,8.891961,-5.261822,1.912651,1.152961,-0.142912,0.588444
57787,9.147953,-4.064549,2.070213,1.147749,-0.099221,0.630808
57788,8.781212,-2.784169,1.192991,0.943704,-0.066095,0.642765
57789,8.567728,-2.279170,0.675059,0.586933,-0.015560,0.661754
57790,8.438388,-2.366561,0.858918,0.118941,0.065377,0.681474
57791,8.100104,-2.893114,1.454582,-0.344242,0.136813,0.686295
57792,7.894445,-3.793668,2.158648,-0.702721,0.197175,0.676370
57793,7.828998,-4.432383,2.401216,-0.891298,0.235415,0.648067
57794,7.694675,-5.324460,2.211481,-0.892062,0.227828,0.600495
57795,7.862943,-6.571963,2.712748,-0.692963,0.170342,0.546191
57796,7.985829,-7.295304,2.336436,-0.240091,0.079291,0.481292
57797,7.893684,-7.156557,1.810488,0.284878,0.011444,0.421316
57798,7.841199,-6.577121,1.739559,0.682623,-0.050451,0.399394
57799,8.070394,-5.527068,2.004828,0.838907,-0.098567,0.407223
57800,8.267022,-4.538644,1.768582,0.769584,-0.085640,0.426374
57801,8.154936,-3.653497,1.294271,0.532532,-0.052571,0.461864
57802,8.000859,-3.191758,1.096058,0.137994,0.002697,0.500573
57803,7.954114,-3.473796,1.394578,-0.336433,0.105462,0.539107
57804,7.795545,-4.303097,1.863292,-0.750152,0.199814,0.549339
57805,7.584726,-4.824637,2.351154,-1.074821,0.290118,0.567333
57806,7.021054,-5.462603,1.569349,-1.220274,0.302295,0.527124
57807,6.683966,-6.693445,1.262577,-1.137482,0.221664,0.466316
57808,6.885631,-7.778654,2.021390,-0.824739,0.126196,0.405639
57809,6.719426,-8.472222,1.777961,-0.194234,-0.017004,0.298697
57810,6.876909,-8.751148,1.711664,0.535150,-0.148308,0.239278
57811,7.614429,-8.036394,1.816349,1.153576,-0.199134,0.224514
57812,8.139331,-6.457550,1.858214,1.483328,-0.208126,0.233951
57813,7.959237,-4.700340,1.388276,1.466914,-0.150561,0.262528
57814,7.436119,-3.486438,0.943973,1.125951,-0.076184,0.302455
57815,7.146400,-3.125476,0.770168,0.551041,0.007471,0.336825
57816,6.857401,-3.514305,1.289929,-0.067710,0.125464,0.356410
57817,6.817692,-4.334361,2.888550,-0.598339,0.249799,0.349168
57818,6.446924,-4.971823,3.254497,-0.918272,0.348606,0.296420
57819,6.422435,-6.022378,2.476673,-0.973561,0.365380,0.213684
57820,6.845581,-6.557131,2.581057,-0.864034,0.352600,0.135245
57821,6.993966,-6.479280,2.962867,-0.757350,0.275918,0.056359
57822,6.973334,-6.477007,2.856532,-0.660684,0.174383,-0.006858
57823,6.977661,-6.504951,2.657980,-0.522752,0.115405,-0.041895
57824,7.064716,-6.211632,2.080182,-0.373950,0.114668,-0.084837
57825,7.343424,-6.099556,1.583429,-0.278336,0.143877,-0.083350
57826,7.513681,-6.051180,1.609065,-0.273533,0.223687,-0.059457
57827,7.395405,-5.512580,1.817744,-0.314783,0.320411,-0.051548
57828,7.065199,-4.843579,2.329511,-0.489493,0.388311,-0.056369
57829,6.871971,-4.496908,2.640915,-0.786276,0.409104,-0.076487
57830,6.939111,-4.821453,2.692388,-1.067678,0.380180,-0.110427
57831,7.130178,-5.527338,2.523881,-1.221908,0.344874,-0.148935
57832,7.134667,-6.289963,1.859121,-1.165246,0.320322,-0.193784
57833,7.151370,-6.651713,1.476147,-0.941855,0.312850,-0.236779
57834,7.364019,-6.506351,1.435864,-0.678974,0.340822,-0.246618
57835,7.369679,-5.888456,1.746610,-0.488173,0.384882,-0.249867
57836,7.517173,-5.327182,2.256112,-0.466421,0.429466,-0.234661
57837,7.685873,-5.263844,2.669538,-0.548669,0.456656,-0.231499
57838,7.972412,-5.821325,2.319691,-0.573229,0.442915,-0.219386
57839,8.455443,-6.022313,1.945342,-0.482468,0.416827,-0.213842
57840,8.858188,-5.859640,1.184575,-0.427911,0.355297,-0.180567
57841,8.991949,-5.891869,0.465765,-0.370329,0.317003,-0.135651
57842,8.811876,-5.684840,0.659058,-0.266056,0.278540,-0.108048
57843,8.748533,-5.471159,1.261599,-0.203921,0.275255,-0.092923
57844,8.685472,-5.630265,1.681466,-0.107094,0.293453,-0.094501
57845,8.521285,-5.569151,1.982595,-0.023669,0.299762,-0.104206
57846,8.453395,-5.305408,1.936246,-0.041031,0.293050,-0.084810
57847,8.272105,-4.929682,1.827594,-0.168857,0.267623,-0.056241
57848,8.204215,-4.694489,1.690394,-0.372067,0.215042,-0.023833
57849,8.133994,-5.287823,1.324892,-0.528246,0.174262,-0.000253
57850,8.141720,-6.171780,0.817060,-0.453202,0.131087,0.007582
57851,8.343089,-6.359613,1.018599,-0.192634,0.123949,0.002619
57852,8.503359,-6.039402,1.410105,0.050063,0.115274,0.019690
57853,8.654646,-6.054416,1.620257,0.244686,0.114841,0.038246
57854,8.483926,-6.004693,1.656440,0.423108,0.110491,0.079799
57855,8.350505,-5.759516,1.666199,0.533984,0.100067,0.118918
57856,8.171858,-5.946150,1.775625,0.603232,0.115931,0.151543
57857,7.959202,-6.486813,1.650826,0.681686,0.100315,0.170006
57858,7.997672,-6.841119,1.431089,0.838589,0.073484,0.165852
57859,7.969540,-6.400955,1.505684,0.968630,0.039951,0.154914
57860,8.027855,-5.566641,1.885076,0.950014,0.001676,0.147800
57861,7.908879,-5.296004,2.434430,0.748123,-0.044980,0.163313
57862,7.983275,-5.809711,2.549804,0.530628,-0.057441,0.179917
57863,7.903547,-6.246503,2.444672,0.461236,-0.052224,0.198754
57864,7.725320,-6.139611,2.249581,0.471167,-0.044925,0.198045
57865,7.632691,-6.470881,2.100668,0.557867,-0.029886,0.180546
57866,7.773791,-6.951638,1.975617,0.755917,-0.019280,0.157615
57867,8.156517,-7.046643,2.142113,1.047515,0.009293,0.121641
57868,8.191518,-6.863573,2.300556,1.332277,0.052092,0.092294
57869,7.982787,-6.408525,2.595737,1.483849,0.049216,0.065895
57870,8.097699,-5.378536,2.978516,1.403411,0.012406,0.071154
57871,8.278396,-4.818779,2.950712,1.152144,-0.033919,0.069446
57872,8.111651,-4.989164,2.670926,0.910326,-0.083755,0.079371
57873,8.221813,-5.435786,2.076672,0.866363,-0.141076,0.109184
57874,8.562482,-5.865771,2.630886,0.907719,-0.115632,0.155738
57875,9.035583,-5.996013,3.252803,0.979137,-0.090202,0.226828
57876,9.576847,-6.274662,3.320358,1.120802,-0.048927,0.303588
57877,9.510665,-5.755955,3.703016,1.130373,-0.031444,0.410106
57878,9.498321,-5.526776,3.821574,0.924595,-0.058406,0.552629
57879,9.194889,-5.601253,3.980088,0.637418,-0.113130,0.703820
57880,9.048367,-5.823312,3.986498,0.387468,-0.192495,0.855654
57881,9.075202,-6.529250,3.956530,0.248689,-0.265823,1.002700
57882,9.166565,-7.555632,3.862502,0.320226,-0.328391,1.146134
57883,9.359701,-8.299306,3.792250,0.594389,-0.373431,1.296074
57884,9.347312,-8.512712,3.826290,0.935736,-0.408385,1.439317
57885,9.283222,-8.416352,4.044222,1.234344,-0.429319,1.584851
57886,9.282234,-8.343404,4.440855,1.472877,-0.471122,1.706551
57887,9.533757,-8.207260,4.777143,1.618262,-0.476198,1.826518
57888,9.527623,-8.083776,5.022190,1.676751,-0.444104,1.937288
57889,9.276973,-7.599454,4.866763,1.617783,-0.419997,2.038771
57890,8.966604,-7.262058,3.733938,1.509180,-0.389267,2.106141
57891,8.478940,-7.563463,2.463914,1.428837,-0.356710,2.184616
57892,8.309133,-8.286327,2.035290,1.357746,-0.346632,2.284022
57893,8.483585,-8.748378,2.562090,1.275223,-0.351661,2.400774
57894,8.571193,-8.579473,3.811425,1.082068,-0.363178,2.489715
57895,8.313523,-8.485850,4.724017,0.788140,-0.389368,2.548689
57896,7.906879,-8.965445,4.893401,0.565423,-0.425464,2.587057
57897,7.447483,-9.425169,5.100140,0.436652,-0.454335,2.617347
57898,7.105458,-9.608002,5.166080,0.355018,-0.472582,2.646453
57899,6.726943,-9.644533,5.017729,0.306495,-0.481370,2.684176
57900,6.335955,-9.898556,5.197170,0.322426,-0.456305,2.715181
57901,6.092867,-9.866795,5.292513,0.405178,-0.404838,2.731513
57902,5.385087,-8.820772,4.632872,0.500703,-0.353813,2.712412
57903,4.546009,-8.184420,3.062467,0.576513,-0.365040,2.681451
57904,4.169805,-8.913394,1.861648,0.676838,-0.374757,2.678838
57905,4.517020,-10.167658,2.029483,0.811653,-0.310760,2.730072
57906,4.707276,-10.586706,3.123510,0.964986,-0.191755,2.787880
57907,4.378696,-9.608636,4.926506,1.007573,-0.048622,2.824283
57908,3.625995,-8.303554,6.111825,0.789936,0.065067,2.816396
57909,3.160298,-7.976715,6.262912,0.421569,0.124938,2.822594
57910,2.570736,-8.321190,5.510889,0.140213,0.161668,2.815635
57911,1.949874,-9.086109,4.845923,0.007240,0.140719,2.790683
57912,1.339423,-9.702213,4.086842,0.053941,0.059958,2.784348
57913,1.150634,-9.586363,3.912029,0.207333,-0.056503,2.781001
57914,1.181696,-9.411684,3.946574,0.373856,-0.138370,2.764926
57915,0.875337,-9.277924,3.673831,0.554774,-0.208415,2.736394
57916,0.618547,-8.992533,2.915352,0.771351,-0.298410,2.712651
57917,0.913267,-9.255339,2.717871,0.912077,-0.327079,2.716027
57918,1.391919,-9.538854,3.237714,1.004176,-0.267243,2.743865
57919,1.295041,-9.300929,4.261304,1.082826,-0.168581,2.770774
57920,0.747000,-8.781693,5.367529,1.087559,-0.048386,2.793784
57921,0.172581,-8.632927,5.925966,1.023454,0.054437,2.800069
57922,-0.095269,-9.336038,5.445418,1.052271,0.108262,2.811375
57923,-0.504801,-9.240808,4.999878,1.157020,0.148873,2.832391
57924,-0.902677,-8.126145,4.914007,1.075641,0.112909,2.858887
57925,-1.084648,-7.177617,5.054264,0.811624,0.052020,2.877539
57926,-1.420170,-6.871115,4.946814,0.571228,-0.031178,2.863641
57927,-1.774309,-7.213163,4.312816,0.486205,-0.123774,2.825040
57928,-1.944589,-7.753044,3.847493,0.559861,-0.206166,2.781777
57929,-2.002469,-7.907061,3.783096,0.729832,-0.247398,2.753300
57930,-2.034124,-7.870549,4.249706,0.904660,-0.257561,2.727576
57931,-2.040403,-7.717096,5.223814,1.018940,-0.222562,2.726176
57932,-2.169724,-7.484479,5.955565,1.120447,-0.159089,2.724163
57933,-2.484332,-7.085645,6.384912,1.213250,-0.089319,2.712011
57934,-2.818206,-6.749358,6.657640,1.269631,-0.026311,2.703541
57935,-2.773595,-6.467203,6.865709,1.277689,0.035853,2.702274
57936,-2.905823,-6.187245,6.727879,1.309070,0.100882,2.685663
57937,-3.442929,-5.578437,6.667425,1.317798,0.142294,2.653949
57938,-4.015631,-5.253550,6.625159,1.225131,0.132557,2.612724
57939,-4.343644,-5.117992,6.124026,1.175315,0.078167,2.562602
57940,-4.384963,-5.235359,5.517817,1.171360,-0.010373,2.494132
57941,-4.165909,-4.919371,5.036071,1.199644,-0.069386,2.444049
57942,-4.181372,-4.844204,4.825893,1.247762,-0.098703,2.384320
57943,-4.306157,-5.303474,4.806084,1.403616,-0.117000,2.315929
57944,-4.321288,-5.139068,5.322376,1.649270,-0.114708,2.257576
57945,-4.300606,-4.255421,6.454923,1.761294,-0.083498,2.201294
57946,-4.239674,-3.577198,7.148619,1.697692,-0.027873,2.158867
57947,-4.383153,-3.336463,7.212042,1.589011,0.011327,2.100309
57948,-4.628924,-3.554941,7.050641,1.511509,0.051786,2.071001
57949,-4.794136,-3.743737,6.687785,1.581546,0.082181,2.024499
57950,-4.805051,-3.349264,6.774053,1.637735,0.102234,1.965944
57951,-4.834146,-2.848538,6.797570,1.581384,0.092466,1.918831
57952,-5.076511,-2.577203,6.721765,1.509306,0.056273,1.853943
57953,-5.197707,-2.416505,6.469293,1.425191,-0.016575,1.793754
57954,-4.996731,-2.453386,5.944393,1.330882,-0.083352,1.739366
57955,-4.835124,-2.265284,5.314290,1.275933,-0.121691,1.684197
57956,-4.881090,-2.215757,5.003421,1.281513,-0.114386,1.615125
57957,-4.909747,-2.421836,5.455153,1.421435,-0.080983,1.539840
57958,-4.767284,-2.228429,6.476753,1.614566,-0.025292,1.467040
57959,-4.480478,-2.155493,7.640969,1.662949,0.054930,1.434823
57960,-4.404058,-1.871104,7.904580,1.628195,0.161094,1.431610
57961,-4.714347,-1.243074,8.099813,1.495801,0.235939,1.432067
57962,-4.913369,-1.206399,7.657861,1.296881,0.270275,1.458956
57963,-4.898443,-0.949258,6.877497,1.195621,0.277283,1.463077
57964,-5.168936,-0.347867,6.364570,1.072931,0.248557,1.452793
57965,-5.383563,-0.017141,5.577310,0.920689,0.184379,1.428317
57966,-5.608961,-0.427872,5.382850,0.873185,0.088282,1.355325
57967,-5.392959,-0.854762,5.319998,1.001611,-0.012063,1.295627
57968,-4.987422,-0.791677,5.394543,1.241556,-0.057708,1.230079
57969,-4.839254,-0.051513,5.694013,1.446068,-0.071023,1.165388
57970,-4.803034,0.868013,5.841511,1.570719,-0.073743,1.103820
57971,-5.059829,1.796535,6.300039,1.574637,-0.068703,1.012083
57972,-5.178793,2.625039,6.267229,1.495448,-0.086919,0.901477
57973,-4.882047,2.633121,6.535713,1.359012,-0.061460,0.758575
57974,-4.658274,2.118756,6.801141,1.319660,-0.030886,0.646303
57975,-4.295024,1.299656,7.082101,1.411212,0.018560,0.581547
57976,-4.552176,0.530301,6.532275,1.665103,0.079870,0.518031
57977,-4.953319,1.072588,6.071747,1.895043,0.105563,0.444869
57978,-5.111391,2.586267,6.537330,1.753571,0.090717,0.376753
57979,-5.476494,4.300600,6.503076,1.238842,-0.003072,0.323937
57980,-6.179086,6.059450,5.133305,0.527214,-0.201445,0.245907
57981,-5.605899,6.343264,4.352186,-0.280416,-0.435378,0.027745
57982,-4.465531,4.833334,4.374973,-0.943364,-0.583637,-0.118156
57983,-3.565160,2.730920,4.785616,-1.245914,-0.623097,-0.227368
57984,-3.528000,1.328311,5.774989,-1.256483,-0.577513,-0.312963
57985,-3.680734,0.669594,6.989841,-1.205990,-0.499848,-0.366596
57986,-3.576594,-0.103264,7.536285,-1.132713,-0.400726,-0.388470
57987,-3.776466,-0.378249,7.121873,-0.952050,-0.287978,-0.399357
57988,-4.264277,0.107678,6.650198,-0.760035,-0.218169,-0.432575
57989,-4.408522,0.557757,6.439903,-0.667687,-0.188246,-0.484006
57990,-4.489125,0.870213,6.694547,-0.690215,-0.175544,-0.529083
57991,-4.665667,1.507380,6.991877,-0.887458,-0.175523,-0.573560
57992,-4.820524,2.093703,6.867757,-1.215254,-0.217456,-0.628213
57993,-4.911726,1.987727,6.502579,-1.587197,-0.257284,-0.691335
57994,-5.066146,1.110763,6.367651,-1.861750,-0.315739,-0.747952
57995,-4.878858,-0.008103,6.198929,-1.942137,-0.379337,-0.798508
57996,-4.739958,-0.609017,6.156825,-1.867783,-0.415543,-0.854815
57997,-4.663429,-0.684966,6.343152,-1.799728,-0.452355,-0.909703
57998,-4.653360,-0.419019,6.112982,-1.781000,-0.504645,-0.987705
57999,-4.455222,-0.258799,5.779224,-1.802850,-0.543257,-1.062751
58000,-4.085560,-0.237827,5.664396,-1.847019,-0.550610,-1.155974
58001,-3.759650,-0.372823,5.882219,-1.917815,-0.519163,-1.240112
58002,-3.745783,-0.775231,5.722047,-1.968558,-0.479647,-1.319559
58003,-3.909019,-0.791626,5.685465,-2.015981,-0.429379,-1.413391
58004,-4.142691,-0.924032,5.947253,-2.090799,-0.421813,-1.503262
58005,-4.028288,-1.588273,6.568720,-2.148733,-0.420222,-1.575696
58006,-4.093004,-2.298800,6.690330,-2.139788,-0.401810,-1.640272
58007,-4.387646,-2.322481,6.481139,-2.116491,-0.412861,-1.696866
58008,-4.419959,-1.965877,6.077334,-2.190451,-0.426378,-1.765957
58009,-4.197839,-1.969267,5.631819,-2.324237,-0.452360,-1.851146
58010,-3.920361,-2.094732,5.501246,-2.450587,-0.491901,-1.952593
58011,-3.388467,-2.486439,6.032496,-2.601031,-0.516757,-2.042585
58012,-2.943465,-3.569322,6.179310,-2.734804,-0.498286,-2.088001
58013,-2.922174,-4.984092,5.992645,-2.761718,-0.465272,-2.097470
58014,-3.119493,-6.692922,6.106084,-2.503110,-0.406465,-2.092873
58015,-3.048251,-7.938309,6.477054,-1.967565,-0.310849,-2.067993
58016,-2.977041,-7.743604,6.714245,-1.350038,-0.183001,-2.048305
58017,-3.242306,-6.650673,7.128395,-0.968379,-0.059613,-2.069326
58018,-3.429647,-5.447879,7.135179,-0.983959,0.018616,-2.097803
58019,-3.359664,-4.345154,6.721738,-1.394565,0.059770,-2.121304
58020,-3.362262,-4.282135,6.231635,-1.994625,0.031403,-2.147346
58021,-3.302482,-5.406214,5.543372,-2.483487,-0.053538,-2.158254
58022,-3.068108,-7.274097,5.177408,-2.664333,-0.144956,-2.148184
58023,-2.649617,-9.093897,5.555413,-2.498925,-0.227583,-2.125115
58024,-2.263330,-10.016048,5.968913,-2.131909,-0.231480,-2.080363
58025,-2.533358,-9.364331,5.772831,-1.636450,-0.237163,-2.068800
58026,-2.590101,-7.644357,5.287367,-1.320207,-0.277124,-2.100298
58027,-2.365326,-6.603990,4.670471,-1.286628,-0.300411,-2.169769
58028,-1.667600,-6.978728,5.179748,-1.412321,-0.273370,-2.226857
58029,-0.710564,-7.943927,6.027662,-1.541416,-0.159851,-2.210206
58030,-0.048219,-8.633572,7.038059,-1.662549,0.039784,-2.169067
58031,0.125946,-9.654816,7.577530,-1.810885,0.273322,-2.063262
58032,-0.385948,-10.600070,7.049441,-1.808136,0.470830,-1.938287
58033,-1.158619,-10.670194,5.751032,-1.671455,0.568241,-1.842175
58034,-1.866861,-10.312474,4.564639,-1.502338,0.563580,-1.804108
58035,-2.320506,-10.021025,3.924924,-1.315925,0.471493,-1.818229
58036,-2.390941,-10.146483,3.672253,-1.005149,0.359610,-1.866387
58037,-2.242278,-9.601175,4.332151,-0.612093,0.228554,-1.945727
58038,-1.545017,-8.672473,5.773777,-0.496811,0.099821,-1.988543
58039,-0.515507,-7.917823,6.787585,-0.764431,0.050346,-1.961464
58040,-0.338665,-7.391086,6.463990,-1.137765,0.010146,-1.951946
58041,-0.217868,-7.292973,5.350140,-1.458763,-0.037471,-1.960800
58042,0.569179,-8.375170,4.182801,-1.632967,-0.038671,-1.945890
58043,1.159529,-9.444879,4.133831,-1.599169,0.063805,-1.932796
58044,1.144627,-10.360270,4.071305,-1.328257,0.185619,-1.912565
58045,0.826110,-10.348250,4.462461,-1.015515,0.310984,-1.911966
58046,0.604679,-9.745232,4.801328,-0.794401,0.377355,-1.946275
58047,0.561036,-9.415603,4.892168,-0.705946,0.380392,-1.965164
58048,0.859605,-9.323769,4.624464,-0.763367,0.305122,-1.965979
58049,1.386448,-9.161850,4.576447,-0.958895,0.192071,-1.944802
58050,1.870712,-9.616681,4.678814,-1.197671,0.073682,-1.911989
58051,2.044656,-10.482864,4.517760,-1.289213,-0.031364,-1.863573
58052,1.977331,-10.588312,4.126906,-1.166260,-0.136428,-1.830790
58053,1.500466,-10.005936,3.408705,-0.989783,-0.239998,-1.813121
58054,1.429233,-9.367273,2.446208,-0.815421,-0.350491,-1.836756
58055,1.878404,-9.512138,2.398075,-0.588734,-0.340813,-1.860837
58056,2.238048,-9.906093,3.685892,-0.329648,-0.238449,-1.875472
58057,2.666775,-10.174077,4.751389,-0.196999,-0.058690,-1.822733
58058,3.017004,-9.815239,5.428337,-0.162502,0.134379,-1.771203
58059,3.087547,-9.771538,5.575502,-0.224165,0.281989,-1.715104
58060,3.068178,-11.158392,4.807392,-0.188972,0.374423,-1.646621
58061,2.874026,-11.493759,4.012112,0.084407,0.395571,-1.594474
58062,2.463203,-10.288164,3.976677,0.222203,0.346039,-1.550528
58063,2.503560,-9.056219,4.340920,0.053217,0.242277,-1.506215
58064,2.712200,-8.520391,4.390808,-0.274391,0.145852,-1.470868
58065,2.697078,-8.418888,4.360776,-0.555917,0.077231,-1.458313
58066,2.548839,-8.286616,3.843287,-0.747657,-0.001169,-1.468501
58067,2.548018,-7.999074,2.710950,-0.810500,-0.095055,-1.497770
58068,3.253002,-8.801774,2.592429,-0.742595,-0.065432,-1.504067
58069,3.961981,-10.563386,2.858585,-0.455616,0.049118,-1.485231
58070,4.265892,-11.315090,3.391903,0.026673,0.228198,-1.438575
58071,4.375488,-10.269454,4.098444,0.325061,0.411112,-1.366708
58072,4.191751,-8.187755,4.813559,0.172755,0.578682,-1.292235
58073,3.923331,-6.843949,5.369440,-0.380098,0.691111,-1.250325
58074,3.742421,-7.355815,4.616185,-0.945874,0.718582,-1.226923
58075,3.770197,-9.221550,3.447044,-1.138237,0.667372,-1.227910
58076,3.844146,-11.229180,2.778606,-0.837418,0.573962,-1.253150
58077,3.971732,-12.300196,2.394227,-0.150261,0.460668,-1.278018
58078,4.228187,-11.891590,2.133062,0.621441,0.350863,-1.268629
58079,4.249974,-9.451784,2.361817,1.081635,0.232194,-1.255365
58080,4.290917,-7.231052,2.159329,1.023137,0.095162,-1.260798
58081,5.181336,-6.868560,1.884901,0.745334,0.059146,-1.249348
58082,5.868500,-7.122597,2.889286,0.481031,0.150501,-1.227095
58083,5.854334,-7.097048,4.142211,0.229805,0.310230,-1.194519
58084,5.529876,-7.012960,4.940096,-0.089269,0.496937,-1.162563
58085,5.099043,-7.042612,5.012385,-0.415624,0.658364,-1.148291
58086,4.896713,-7.949670,4.532021,-0.625795,0.756539,-1.138579
58087,4.908541,-8.713817,4.056390,-0.659036,0.785111,-1.134110
58088,5.016166,-8.784842,3.693843,-0.586166,0.740752,-1.124760
58089,5.301663,-9.004054,3.664745,-0.475114,0.671887,-1.122600
58090,5.576279,-9.359787,3.364449,-0.266294,0.641186,-1.125882
58091,5.692567,-9.072822,3.313230,0.034650,0.624518,-1.139935
58092,6.014872,-8.390533,3.594505,0.251974,0.640583,-1.139249
58093,6.295190,-7.964512,3.955860,0.303031,0.678775,-1.133616
58094,6.514780,-7.498942,4.096123,0.204312,0.734915,-1.108824
58095,6.502742,-6.627025,4.213769,-0.035401,0.758975,-1.086198
58096,6.421441,-5.957636,4.319341,-0.453138,0.784142,-1.064154
58097,6.554826,-5.830879,4.570615,-0.974370,0.806628,-1.030317
58098,6.840122,-6.372919,4.545351,-1.384327,0.811795,-1.004917
58099,7.442467,-7.810856,4.054667,-1.510256,0.828410,-0.981660
58100,7.573260,-8.745254,3.580312,-1.282360,0.850968,-0.962993
58101,7.455991,-8.781195,3.299698,-0.925469,0.861739,-0.950069
58102,7.141045,-7.921804,3.302543,-0.677120,0.818536,-0.908510
58103,7.308320,-6.854552,2.960578,-0.615856,0.745191,-0.866948
58104,7.577048,-6.970302,2.474926,-0.615571,0.701156,-0.817585
58105,7.739366,-7.155331,2.176074,-0.522405,0.660022,-0.783023
58106,7.667264,-6.851241,2.679666,-0.376716,0.690695,-0.772262
58107,7.475231,-6.011277,2.782226,-0.278879,0.706622,-0.782179
58108,7.576768,-5.330208,3.633749,-0.414020,0.718768,-0.781101
58109,7.745796,-5.234730,4.409202,-0.751245,0.677669,-0.789252
58110,7.819368,-5.541677,3.982251,-0.987373,0.633845,-0.778599
58111,7.480758,-6.246542,3.315509,-1.073996,0.580741,-0.750680
58112,7.705699,-7.112427,3.304898,-1.001585,0.528222,-0.689938
58113,7.782545,-7.153381,2.817212,-0.823291,0.514915,-0.615649
58114,7.557007,-6.766151,2.288531,-0.601696,0.507508,-0.574293
58115,7.657860,-6.626588,2.090561,-0.384193,0.491632,-0.538455
58116,7.884111,-6.362883,2.060614,-0.170741,0.474830,-0.519144
58117,7.822550,-6.009964,2.355932,-0.041836,0.462043,-0.503854
58118,7.715353,-5.751990,2.525548,-0.003425,0.452619,-0.504186
58119,7.558340,-5.384890,2.737282,-0.029668,0.449922,-0.513331
58120,7.424970,-4.833703,2.870575,-0.152981,0.425389,-0.521915
58121,7.351888,-4.468864,3.147188,-0.403128,0.387101,-0.523125
58122,7.335568,-4.767660,2.977151,-0.628847,0.348712,-0.521227
58123,7.257609,-5.254407,2.807382,-0.692171,0.315031,-0.501381
58124,7.416369,-5.581964,2.666749,-0.613343,0.324419,-0.493145
58125,7.497769,-5.815066,2.701400,-0.488320,0.332738,-0.472126
58126,7.724273,-5.549369,2.718592,-0.422997,0.334878,-0.451515
58127,7.908771,-5.203871,2.667362,-0.467150,0.329655,-0.415700
58128,7.841487,-4.982706,2.611207,-0.586316,0.302225,-0.384900
58129,7.672347,-5.028862,2.490651,-0.680465,0.250078,-0.359112
58130,7.587514,-5.185707,2.696012,-0.704399,0.218455,-0.341467
58131,7.578809,-5.534099,2.868545,-0.653358,0.195501,-0.335058
58132,7.666265,-5.541310,3.112608,-0.567453,0.189851,-0.317458
58133,7.617402,-5.232979,3.633738,-0.559957,0.190401,-0.311591
58134,7.494449,-5.348821,3.569919,-0.620510,0.193193,-0.289253
58135,7.444737,-5.559594,3.377005,-0.663361,0.187213,-0.271680
58136,7.648460,-5.848339,3.228194,-0.654424,0.180441,-0.257464
58137,7.997868,-6.032057,3.031873,-0.606939,0.157053,-0.236566
58138,8.155682,-6.160327,2.975339,-0.523457,0.131156,-0.218095
58139,8.068027,-6.291683,3.111230,-0.417192,0.120667,-0.194817
58140,7.902342,-6.349181,3.229479,-0.313728,0.103333,-0.164446
58141,7.735870,-6.483966,3.362013,-0.228613,0.082346,-0.131709
58142,7.638695,-6.579188,3.328573,-0.126451,0.051072,-0.098893
58143,7.584258,-6.622519,3.151657,0.017185,0.038569,-0.068981
58144,7.571235,-6.809430,2.936684,0.202528,0.039403,-0.041504
58145,7.604377,-6.661888,2.871926,0.404980,0.045966,-0.024204
58146,7.612125,-6.201929,3.018155,0.508532,0.047506,-0.013146
58147,7.620029,-5.786190,3.219644,0.501091,0.039436,-0.003699
58148,7.635863,-5.393543,3.468496,0.407854,0.034055,-0.000007
58149,7.653915,-5.294013,3.652516,0.238727,0.030459,0.008177
58150,7.661706,-5.509048,3.550432,0.127902,0.020499,0.003461
58151,7.569900,-5.707140,3.326774,0.111853,0.024420,-0.006960
58152,7.476515,-5.644470,3.113055,0.174908,0.022280,-0.028503
58153,7.322984,-5.505058,2.929881,0.227835,0.000137,-0.043795
58154,7.227597,-5.359268,2.729012,0.239660,-0.026040,-0.047847
58155,7.279828,-5.383733,2.577807,0.253536,-0.042201,-0.045626
58156,7.424692,-5.293727,2.772060,0.261090,-0.044792,-0.035857
58157,7.547733,-4.986441,2.999478,0.216806,-0.036661,-0.030186
58158,7.500614,-4.930513,3.063781,0.106659,-0.037665,-0.027738
58159,7.421635,-5.328243,3.146496,0.027912,-0.047378,-0.034996
58160,7.477034,-5.557437,3.066723,0.004921,-0.055031,-0.036108
58161,7.445764,-5.522506,3.026050,-0.011639,-0.063624,-0.037010
58162,7.479729,-5.317053,3.288625,-0.077956,-0.062200,-0.016952
58163,7.498229,-5.535069,3.913073,-0.345044,-0.046122,0.052108
58164,7.213863,-7.059680,3.496058,-0.464366,-0.042804,0.080122
58165,6.888724,-6.773585,3.444832,-0.281985,-0.007627,0.075344
58166,6.981707,-5.790032,3.631551,-0.217725,0.003915,0.063018
58167,7.073866,-6.256880,3.505200,-0.235546,-0.002483,0.042397
58168,7.555596,-6.715563,3.385084,-0.177373,-0.006119,0.036028
58169,7.835119,-6.628942,3.402879,-0.105428,0.000040,0.026811
58170,7.803576,-6.485608,3.245659,-0.023742,-0.017599,0.028607
58171,7.862849,-6.515699,3.158328,0.091719,-0.060547,0.040019
58172,7.884990,-6.586319,2.803795,0.249645,-0.085990,0.047732
58173,7.834865,-6.400919,2.680959,0.390871,-0.109541,0.062090
58174,7.884141,-6.241794,2.808406,0.538699,-0.133891,0.062596
58175,7.805361,-6.057418,2.970575,0.714878,-0.149824,0.055509
58176,7.543640,-5.734719,3.089007,0.857473,-0.163824,0.035076
58177,7.203249,-5.379799,3.391858,0.882893,-0.158646,0.020065
58178,7.126537,-5.007097,3.822161,0.755136,-0.153097,0.011065
58179,7.295135,-5.040380,3.979133,0.539785,-0.137935,0.013836
58180,7.507688,-5.403257,3.823763,0.365722,-0.119622,-0.000007
58181,7.692128,-5.283637,3.733640,0.259150,-0.097098,-0.012465
58182,7.849837,-5.075592,3.514613,0.155970,-0.079432,-0.035342
58183,7.949614,-4.803799,3.419030,0.040335,-0.073322,-0.048418
58184,8.188501,-4.650745,3.361173,-0.083544,-0.071438,-0.049171
58185,8.400643,-4.490557,3.316402,-0.217893,-0.073273,-0.035906
58186,8.517988,-4.370300,3.033484,-0.343372,-0.094687,-0.018105
58187,8.364510,-4.620319,2.659720,-0.375413,-0.136377,-0.010078
58188,8.195834,-4.404458,2.386988,-0.303095,-0.182346,-0.023635
58189,8.152021,-3.831145,2.134988,-0.234129,-0.257507,-0.050115
58190,8.344029,-3.761855,1.913213,-0.153156,-0.315632,-0.100420
58191,8.470904,-3.608612,2.042600,-0.051115,-0.353253,-0.157965
58192,8.764921,-3.167190,1.985339,0.009966,-0.384654,-0.214309
58193,8.798303,-2.923578,1.759445,0.002821,-0.401633,-0.270119
58194,8.579454,-2.755624,1.518883,-0.034996,-0.418745,-0.327568
58195,8.014805,-2.886820,1.473716,-0.089178,-0.448039,-0.412171
58196,7.840186,-3.316068,1.552305,-0.106760,-0.490282,-0.498188
58197,7.927366,-3.520719,1.688325,-0.066647,-0.504554,-0.587899
58198,8.103570,-3.580140,1.855221,-0.035972,-0.519368,-0.687760
58199,8.431057,-3.503227,1.935198,-0.031114,-0.518001,-0.780271
58200,8.483946,-3.392590,1.857284,-0.066989,-0.538941,-0.861923
58201,8.539025,-3.521132,1.521820,-0.100634,-0.582350,-0.933974
58202,8.708908,-3.656355,1.267990,-0.092713,-0.615491,-0.982185
58203,8.880373,-3.521723,1.060566,-0.096759,-0.657892,-1.027793
58204,8.968097,-3.594328,0.977374,-0.149160,-0.729755,-1.057310
58205,9.321546,-4.080177,0.977137,-0.161880,-0.777072,-1.082225
58206,9.754279,-4.552566,1.071528,-0.093309,-0.780143,-1.098211
58207,10.099284,-4.602361,1.110494,-0.022867,-0.761325,-1.115065
58208,10.336577,-4.505336,1.267158,-0.000475,-0.762921,-1.115677
58209,10.565126,-4.377296,1.266842,-0.033988,-0.758325,-1.120265
58210,10.645509,-4.128134,1.088162,-0.102876,-0.748616,-1.129526
58211,10.513734,-3.904687,1.029703,-0.192529,-0.731174,-1.160862
58212,10.337599,-4.037906,1.054744,-0.293574,-0.719883,-1.189208
58213,10.285965,-4.240716,1.043913,-0.333595,-0.704737,-1.230417
58214,10.170893,-4.309771,1.358682,-0.315483,-0.669675,-1.271401
58215,10.084731,-4.068569,1.778984,-0.302860,-0.629538,-1.321242
58216,10.188846,-4.021966,1.988658,-0.349345,-0.592176,-1.348513
58217,10.154707,-3.892769,2.038777,-0.424020,-0.543082,-1.368750
58218,10.128146,-3.496562,1.904182,-0.539325,-0.508381,-1.396237
58219,10.042128,-3.161062,1.682182,-0.684185,-0.484675,-1.434952
58220,10.143400,-2.936524,1.549289,-0.853009,-0.466368,-1.476428
58221,10.141966,-2.834233,1.184638,-1.033763,-0.463241,-1.516886
58222,9.995300,-2.879537,0.785631,-1.201496,-0.463148,-1.553706
58223,9.863722,-3.149862,0.524960,-1.299566,-0.491048,-1.592986
58224,9.805931,-3.565052,0.484257,-1.298961,-0.523707,-1.618209
58225,9.892685,-3.951330,0.695916,-1.190915,-0.537149,-1.641877
58226,9.861748,-4.176690,0.968177,-1.031834,-0.529538,-1.651066
58227,9.767572,-4.336730,1.389221,-0.851314,-0.498583,-1.649391
58228,9.707675,-4.280164,1.904182,-0.731606,-0.460589,-1.620422
58229,9.930811,-3.802394,2.400347,-0.745082,-0.386086,-1.562431
58230,10.098135,-3.473616,2.545142,-0.899425,-0.306784,-1.516552
58231,10.106769,-3.435086,2.170166,-1.104219,-0.226593,-1.463009
58232,10.000409,-3.619840,1.705222,-1.287732,-0.150562,-1.409685
58233,9.921512,-3.800227,1.259105,-1.430248,-0.080733,-1.359009
58234,9.930777,-3.967505,1.097837,-1.531373,-0.018648,-1.305732
58235,9.948782,-4.242851,1.075494,-1.590346,0.039592,-1.250852
58236,9.964919,-4.481586,1.147933,-1.595937,0.109064,-1.199702
58237,9.937649,-4.628848,1.399311,-1.554197,0.189144,-1.131741
58238,9.834703,-4.719201,1.466616,-1.499007,0.252586,-1.069604
58239,9.796236,-4.791469,1.440061,-1.415885,0.309413,-0.993223
58240,9.871273,-4.748856,1.328964,-1.335368,0.358441,-0.920405
58241,9.998430,-4.723424,1.272156,-1.257902,0.403729,-0.847013
58242,10.028575,-4.648315,1.184045,-1.187855,0.431328,-0.771416
58243,9.915331,-4.543970,1.087002,-1.133397,0.452477,-0.686821
58244,9.831692,-4.476481,1.088152,-1.051431,0.457779,-0.611864
58245,9.806170,-4.302272,1.160914,-0.956841,0.472433,-0.532737
58246,9.564001,-4.043426,1.187345,-0.866819,0.480890,-0.454834
58247,9.374788,-3.657902,1.168685,-0.792750,0.485638,-0.378863
58248,9.228436,-3.396630,1.034232,-0.736980,0.481588,-0.314268
58249,9.212597,-3.205076,0.814564,-0.686991,0.472795,-0.257729
58250,9.250399,-3.016520,0.572252,-0.629644,0.452926,-0.199562
58251,9.127749,-2.907116,0.416050,-0.571839,0.436930,-0.147169
58252,8.978989,-2.758871,0.394160,-0.496588,0.422503,-0.101925
58253,8.972009,-2.521614,0.444689,-0.423445,0.409256,-0.071733
58254,8.960374,-2.222362,0.562380,-0.358724,0.400305,-0.044458
58255,9.042257,-1.753791,0.672710,-0.337983,0.385098,-0.022426
58256,9.098853,-1.515319,0.807374,-0.372132,0.370245,-0.013404
58257,9.071361,-1.439185,0.802367,-0.406974,0.360852,-0.014891
58258,8.968348,-1.353589,0.746080,-0.416733,0.342828,-0.026689
58259,9.033764,-1.236627,0.725243,-0.426140,0.317493,-0.041410
58260,9.145496,-1.309956,0.682420,-0.433796,0.294471,-0.054182
58261,9.163878,-1.548087,0.617061,-0.396375,0.265762,-0.061634
58262,9.222618,-1.711794,0.644312,-0.316265,0.238773,-0.064588
58263,9.286027,-1.614651,0.712461,-0.229466,0.209552,-0.057386
58264,9.351913,-1.362738,0.922513,-0.154227,0.196492,-0.054765
58265,9.438591,-1.130565,1.027835,-0.119594,0.181221,-0.049777
58266,9.569921,-1.003473,1.082292,-0.125538,0.174121,-0.037157
58267,9.655092,-0.800534,1.079009,-0.152708,0.164153,-0.032886
58268,9.664767,-0.687762,1.098440,-0.180476,0.159576,-0.037122
58269,9.667062,-0.640613,1.150039,-0.220060,0.150491,-0.031875
58270,9.702473,-0.695131,1.225092,-0.256535,0.133387,-0.037358
58271,9.741988,-0.823756,1.278225,-0.272204,0.125539,-0.050283
58272,9.868596,-0.937978,1.414964,-0.248139,0.123475,-0.059400
58273,9.862184,-0.961644,1.519147,-0.200201,0.128283,-0.061648
58274,9.807203,-0.920398,1.614548,-0.155516,0.139493,-0.066459
58275,9.785925,-0.784876,1.612555,-0.126134,0.141131,-0.062429
58276,9.680163,-0.717712,1.637196,-0.102202,0.138128,-0.064394
58277,9.601196,-0.622402,1.594735,-0.106878,0.130311,-0.054020
58278,9.580073,-0.581839,1.640552,-0.111810,0.109567,-0.055075
58279,9.655591,-0.575426,1.655623,-0.109057,0.099580,-0.051192
58280,9.710174,-0.538975,1.727975,-0.105860,0.082329,-0.050411
58281,9.771032,-0.569593,1.754496,-0.086269,0.072850,-0.051342
58282,9.758407,-0.683585,1.776442,-0.049032,0.064884,-0.055088
58283,9.756700,-0.811630,1.768486,0.012836,0.054202,-0.053467
58284,9.811174,-0.936513,1.738810,0.097109,0.044059,-0.056946
58285,9.775024,-0.967685,1.730100,0.193688,0.028655,-0.045207
58286,9.854652,-0.910334,1.779408,0.284585,0.016913,-0.043487
58287,9.845203,-0.846354,1.874961,0.351583,0.014039,-0.042278
58288,9.904969,-0.748671,1.958313,0.400164,0.008901,-0.041924
58289,9.956978,-0.621033,2.023167,0.439368,0.011953,-0.041367
58290,9.916507,-0.439333,2.045382,0.462226,0.018099,-0.037349
58291,9.854811,-0.260027,2.038945,0.461027,0.016056,-0.031287
58292,9.704941,-0.203190,2.043510,0.431544,0.010443,-0.022364
58293,9.693052,-0.217911,2.012578,0.393305,0.002249,-0.006050
58294,9.651651,-0.308433,2.010612,0.368280,-0.011165,0.010521
58295,9.656525,-0.342881,2.076314,0.362831,-0.017882,0.030716
58296,9.698813,-0.333038,2.130428,0.368492,-0.015462,0.038662
58297,9.742602,-0.317931,2.160877,0.364690,-0.016173,0.048499
58298,9.887324,-0.285692,2.177014,0.351145,-0.012016,0.057610
58299,9.956531,-0.252802,2.164061,0.325429,-0.000875,0.062626
58300,9.957767,-0.247340,2.141675,0.290240,0.012409,0.071976
