// Start Time: Unknown
// Update Rate: 100.0Hz
// Filter Profile: human (46.1)
// Firmware Version: 4.3.5
PacketCounter,Acc_X,Acc_Y,Acc_Z,Gyr_X,Gyr_Y,Gyr_Z
45467,9.822041,0.226184,0.095167,-0.011396,0.001408,-0.014293
45468,9.898182,0.225628,0.017114,-0.014787,0.000896,-0.014052
45469,9.906921,0.204707,0.011183,-0.009693,0.003387,-0.006480
45470,9.950468,0.233779,0.069272,-0.007579,0.018357,-0.004223
45471,9.915569,0.229758,0.037466,-0.008486,0.023151,-0.003585
45472,9.871910,0.247854,0.012062,-0.015195,0.023135,-0.007916
45473,9.801668,0.236834,0.052748,-0.019931,0.018989,-0.007277
45474,9.842515,0.228493,0.048668,-0.025935,0.012220,-0.011053
45475,9.833837,0.205539,0.026314,-0.025563,0.002558,-0.012917
45476,9.825037,0.228344,0.032566,-0.024602,-0.002297,-0.005131
45477,9.862764,0.179091,0.070411,-0.024528,-0.001283,-0.009942
45478,9.851207,0.210349,0.043290,-0.028020,0.001763,-0.010685
45479,9.868758,0.167436,0.031341,-0.041358,0.006177,-0.008290
45480,9.862705,0.181692,0.071895,-0.047913,0.011620,-0.006373
45481,9.877518,0.146916,0.027549,-0.049762,0.016707,-0.007725
45482,9.880241,0.139408,0.062788,-0.045664,0.019552,-0.010565
45483,9.862798,0.138391,0.047971,-0.036729,0.022985,-0.013056
45484,9.915189,0.100577,0.071551,-0.029592,0.018935,-0.021195
45485,9.912425,0.111294,0.040192,-0.019847,0.021135,-0.025306
45486,9.906283,0.127914,0.081957,-0.011289,0.021745,-0.038644
45487,9.906212,0.131962,0.084070,-0.000935,0.020755,-0.043185
45488,9.871350,0.132191,0.051995,0.006839,0.018020,-0.049113
45489,9.914901,0.119675,0.081420,0.013294,0.016154,-0.052009
45490,9.897093,0.168637,0.095609,0.018326,0.018718,-0.052852
45491,9.873814,0.139062,0.090655,0.023787,0.020626,-0.050291
45492,9.853641,0.150154,0.042874,0.029862,0.032933,-0.048669
45493,9.829981,0.166242,0.068477,0.025638,0.029149,-0.049455
45494,9.803607,0.190441,0.060578,0.022994,0.030884,-0.043397
45495,9.786149,0.192571,0.045963,0.018871,0.019028,-0.045841
45496,9.809657,0.185746,0.024877,0.019089,0.011908,-0.043883
45497,9.817972,0.214331,0.048926,0.019385,0.005810,-0.046736
45498,9.882447,0.198795,0.021503,0.013932,0.008407,-0.046666
45499,9.955323,0.207260,0.018041,0.008999,0.020378,-0.042731
45500,9.925912,0.190471,0.053199,-0.000193,0.028629,-0.048010
45501,9.904833,0.197911,0.112436,-0.001122,0.037933,-0.044736
45502,9.870049,0.197728,0.082260,-0.004631,0.040975,-0.045489
45503,9.829655,0.164687,0.062191,0.003119,0.037162,-0.038160
45504,9.815648,0.111883,0.052568,0.016479,0.032817,-0.040522
45505,9.790016,0.089326,0.015207,0.037360,0.027283,-0.040149
45506,9.789974,0.093414,0.017261,0.057113,0.015572,-0.043210
45507,9.821884,0.110769,0.019056,0.083952,0.007847,-0.044305
45508,9.859371,0.160535,0.009742,0.097349,-0.001057,-0.040864
45509,9.841154,0.208169,0.021739,0.099905,0.000731,-0.039483
45510,9.874783,0.262902,0.085090,0.095994,0.004357,-0.035223
45511,9.862952,0.296312,0.057820,0.078229,0.002916,-0.032457
45512,9.888341,0.326097,0.098218,0.065289,0.006600,-0.026706
45513,9.894704,0.314990,0.059485,0.062080,0.012546,-0.025057
45514,9.914780,0.360623,0.034237,0.062639,0.022962,-0.026045
45515,9.840028,0.321041,-0.021361,0.077264,0.026885,-0.034615
45516,9.799098,0.382168,-0.092142,0.115102,0.006094,-0.045853
45517,9.825926,0.452693,0.009498,0.134519,-0.012910,-0.062336
45518,9.900340,0.550786,-0.012439,0.134042,-0.016694,-0.076812
45519,10.002557,0.669736,0.038752,0.143266,-0.013677,-0.092791
45520,10.047287,0.798279,-0.027903,0.098663,-0.006463,-0.110658
45521,10.020969,0.831363,-0.146355,0.071865,0.003236,-0.136138
45522,9.948178,0.928211,-0.155832,0.082513,0.036556,-0.167273
45523,9.820373,0.980639,-0.170351,0.077688,0.044689,-0.226560
45524,9.865178,1.153598,-0.031145,0.086715,0.018841,-0.282304
45525,9.992337,1.478977,0.310949,0.026599,0.010762,-0.336452
45526,10.037871,1.732633,0.607577,-0.149808,0.008611,-0.376271
45527,10.063275,1.823628,0.675147,-0.341681,0.000116,-0.421875
45528,10.141236,1.805012,0.536788,-0.477469,-0.002217,-0.445859
45529,10.032611,1.822404,0.478508,-0.579110,0.024892,-0.470483
45530,9.816303,1.829246,0.394075,-0.680360,0.033769,-0.510813
45531,9.684997,1.817113,0.332857,-0.741088,0.013821,-0.565364
45532,9.726634,1.715218,0.391239,-0.815209,-0.009640,-0.619550
45533,10.008808,1.605915,0.314517,-0.881797,-0.021290,-0.651348
45534,10.286892,1.499615,0.417151,-0.947047,0.019899,-0.666833
45535,10.472887,1.427041,0.542772,-1.046748,0.095438,-0.650055
45536,10.608129,1.198693,0.543695,-1.152902,0.161937,-0.627606
45537,10.631183,0.840138,0.335580,-1.220511,0.217509,-0.595693
45538,10.665283,0.395885,0.130884,-1.206423,0.255914,-0.555603
45539,10.601574,-0.021506,0.084501,-1.131693,0.303552,-0.511890
45540,10.351512,-0.529699,0.057052,-1.022460,0.351947,-0.463431
45541,9.950111,-0.983879,0.094345,-0.877511,0.375952,-0.418518
45542,9.702584,-1.274446,0.061515,-0.688048,0.356435,-0.360157
45543,9.792919,-1.405762,0.091712,-0.461592,0.304349,-0.295336
45544,10.065081,-1.562289,-0.011664,-0.268452,0.304039,-0.176133
45545,9.980619,-1.774337,-0.076284,-0.067826,0.365500,-0.010049
45546,9.726029,-1.844513,-0.098029,0.097654,0.395834,0.128671
45547,9.604591,-1.989966,-0.133426,0.275668,0.382845,0.223292
45548,9.664733,-1.863855,-0.000928,0.458286,0.366150,0.299860
45549,9.595960,-1.871253,-0.035119,0.589253,0.352072,0.384825
45550,9.428837,-1.998642,-0.232124,0.796564,0.313975,0.483582
45551,9.395136,-1.953398,-0.242728,1.069258,0.256240,0.570216
45552,9.368289,-1.861150,-0.237288,1.273730,0.193783,0.660746
45553,9.534719,-1.750584,-0.347374,1.419445,0.110716,0.756613
45554,9.893197,-1.675507,-0.533701,1.525707,0.052730,0.862869
45555,10.109664,-1.730142,-0.713764,1.608934,0.047606,0.970649
45556,10.197898,-1.631950,-0.641214,1.731688,0.076852,1.066887
45557,10.047896,-1.433999,-0.374378,1.797216,0.090995,1.140919
45558,9.842486,-1.283294,-0.020389,1.835989,0.080611,1.202654
45559,9.787377,-0.827419,0.170667,1.884170,0.026083,1.243731
45560,9.958675,-0.618619,0.424023,1.834958,-0.032143,1.302682
45561,10.215231,-0.581072,0.157038,1.792326,-0.072902,1.380078
45562,10.520015,-0.659778,0.061404,1.779262,-0.066581,1.466289
45563,10.697758,-0.994179,-0.202696,1.788741,-0.026693,1.543169
45564,10.750056,-1.324156,0.023172,1.800944,0.044326,1.602962
45565,10.594861,-1.471914,-0.130979,1.775829,0.092961,1.656642
45566,10.226695,-1.658423,-0.107035,1.795018,0.122195,1.680581
45567,10.073873,-1.672665,0.016971,1.829394,0.095598,1.719674
45568,9.978649,-0.898830,0.557240,1.924732,0.073962,1.751381
45569,10.111887,-1.041035,1.047309,1.638244,0.041237,1.802421
45570,10.178629,-1.483059,0.772041,1.548335,0.066094,1.846423
45571,10.244565,-1.462275,0.702847,1.656586,0.107426,1.886673
45572,10.371055,-0.886583,0.904843,1.602149,0.180565,1.935155
45573,10.134688,-1.512384,1.071979,1.196355,0.221700,1.992705
45574,9.987255,-2.083167,0.157657,0.988924,0.197039,2.021449
45575,9.974193,-2.025409,0.321274,0.848534,0.158342,2.031855
45576,9.896776,-1.958697,0.814094,0.433198,0.045114,2.064405
45577,9.892573,-2.528056,0.357096,0.137599,-0.047814,2.074709
45578,10.431871,-3.191591,0.005195,0.217890,-0.052430,2.053769
45579,10.563328,-2.722589,0.492468,0.445851,0.058467,2.021329
45580,10.015256,-0.901351,0.813765,0.473714,0.210045,1.995705
45581,9.430560,-1.325902,1.248777,0.060034,0.166507,1.925742
45582,9.358013,-2.282784,0.571600,0.224946,0.014087,1.777098
45583,9.631533,-1.998122,1.684268,0.137613,-0.034619,1.707756
45584,9.924999,-2.785269,1.059067,-0.609643,-0.086390,1.770694
45585,9.783944,-3.763748,-0.660572,-0.543941,-0.079365,1.845512
45586,9.599429,-3.561072,0.231969,-0.143738,-0.027343,1.896136
45587,9.385428,-3.430306,1.135782,-0.423357,-0.020334,1.883599
45588,9.115199,-4.079864,0.674455,-0.625794,-0.046560,1.825413
45589,8.946812,-4.455629,0.653927,-0.590049,-0.089394,1.743792
45590,8.744859,-4.514888,0.720231,-0.500436,-0.140065,1.653263
45591,8.498751,-4.534098,0.633294,-0.361125,-0.164993,1.548619
45592,8.352673,-4.502005,0.565614,-0.216822,-0.205904,1.440018
45593,8.277317,-4.510718,0.675234,-0.068147,-0.248483,1.314890
45594,8.245614,-4.335098,0.920196,0.030847,-0.264180,1.186173
45595,8.283845,-4.037641,1.125305,0.007405,-0.294163,1.070022
45596,8.158870,-3.857622,0.955689,-0.025820,-0.316034,0.946198
45597,8.103484,-3.932625,0.705029,-0.027141,-0.319197,0.812461
45598,7.929206,-3.746498,0.348236,0.055018,-0.338952,0.696300
45599,7.898379,-4.010367,0.571992,0.074892,-0.361690,0.568832
45600,7.847280,-4.132351,0.206024,0.142332,-0.364532,0.455358
45601,7.813884,-3.975125,0.353921,0.274392,-0.351556,0.349382
45602,7.809392,-4.012546,0.579472,0.252659,-0.348778,0.253470
45603,7.859062,-4.165122,0.617785,0.262163,-0.324381,0.168078
45604,7.858458,-4.006969,0.892221,0.264603,-0.277097,0.094681
45605,7.703787,-3.957155,1.096584,0.197714,-0.221893,0.023673
45606,7.505948,-3.976595,1.118018,0.112871,-0.180389,-0.056425
45607,7.347252,-3.940066,0.891682,0.038357,-0.176405,-0.136161
45608,7.289044,-4.110333,0.508978,-0.033061,-0.223275,-0.208972
45609,7.237628,-4.347301,0.210454,-0.040785,-0.285990,-0.267798
45610,7.442699,-4.641097,-0.055270,-0.013159,-0.346607,-0.315038
45611,7.558332,-4.955073,-0.264117,0.047446,-0.386138,-0.343312
45612,7.654474,-5.196591,-0.248698,0.110397,-0.398644,-0.361366
45613,7.598902,-5.292669,-0.138351,0.174092,-0.401477,-0.383246
45614,7.546044,-5.387605,-0.025452,0.184708,-0.406118,-0.395175
45615,7.496980,-5.439998,-0.019223,0.159288,-0.418043,-0.400130
45616,7.398484,-5.363929,-0.121908,0.132766,-0.449675,-0.407171
45617,7.462151,-5.273719,-0.227183,0.132815,-0.501892,-0.415973
45618,7.676144,-5.236618,-0.295889,0.183784,-0.547460,-0.428146
45619,8.006686,-5.112776,-0.263172,0.238074,-0.574739,-0.435742
45620,8.187138,-4.973658,-0.165169,0.273103,-0.587571,-0.449760
45621,8.251543,-4.751259,0.008712,0.271177,-0.590226,-0.458098
45622,8.296550,-4.593262,-0.039704,0.248151,-0.601850,-0.477917
45623,8.419099,-4.573498,-0.090882,0.219220,-0.602143,-0.482749
45624,8.651231,-4.537005,-0.283198,0.233448,-0.618030,-0.479602
45625,8.957016,-4.439399,-0.249087,0.255455,-0.617053,-0.462285
45626,9.233425,-4.365515,-0.264012,0.258567,-0.604994,-0.444221
45627,9.420146,-4.252874,-0.077604,0.243758,-0.581106,-0.433146
45628,9.490866,-4.129546,0.020974,0.199815,-0.538750,-0.433215
45629,9.576768,-4.065692,0.052778,0.109647,-0.491609,-0.424521
45630,9.537696,-4.098498,-0.044331,0.010557,-0.459643,-0.405999
45631,9.650141,-4.292580,-0.241941,-0.069510,-0.440774,-0.373641
45632,9.745405,-4.474581,-0.333105,-0.087002,-0.404611,-0.322600
45633,9.784113,-4.542993,-0.333696,-0.052046,-0.357774,-0.283122
45634,9.677187,-4.565313,-0.287659,0.013868,-0.307437,-0.259944
45635,9.576580,-4.541869,-0.240258,0.073329,-0.283629,-0.251209
45636,9.588181,-4.618928,-0.270154,0.137888,-0.271027,-0.240067
45637,9.676837,-4.454936,-0.263480,0.207315,-0.249247,-0.233055
45638,9.784853,-4.303549,-0.326736,0.216800,-0.212842,-0.217017
45639,9.915510,-4.185955,-0.423955,0.239241,-0.185135,-0.202727
45640,9.979799,-3.991255,-0.547962,0.274867,-0.136228,-0.197409
45641,10.013535,-3.789365,-0.449867,0.300624,-0.095373,-0.197721
45642,10.058536,-3.671735,-0.412561,0.301058,-0.067313,-0.190345
45643,10.230578,-3.565798,-0.344985,0.289424,-0.045322,-0.165349
45644,10.366517,-3.525126,-0.225070,0.266697,0.000108,-0.133020
45645,10.519954,-3.456086,-0.215523,0.222062,0.051397,-0.096763
45646,10.595650,-3.382958,-0.045061,0.186444,0.114050,-0.073247
45647,10.502935,-3.221006,0.116305,0.094042,0.183558,-0.047044
45648,10.114425,-3.204791,-0.069543,-0.027821,0.229587,-0.042332
45649,9.542627,-3.072688,-0.288646,-0.044132,0.236674,-0.076896
45650,9.115362,-2.807108,-0.200260,-0.001513,0.212651,-0.133661
45651,9.080195,-2.617185,-0.036431,0.022382,0.202762,-0.200737
45652,9.169030,-2.491523,0.078932,0.029631,0.230905,-0.262002
45653,9.204285,-2.244693,0.103805,0.000800,0.267821,-0.309717
45654,9.243282,-2.094002,0.124679,-0.087988,0.285998,-0.352280
45655,9.342437,-2.057099,0.061169,-0.226132,0.300207,-0.381397
45656,9.500151,-2.112826,-0.123860,-0.379493,0.331523,-0.421890
45657,9.671168,-2.080099,-0.070974,-0.457296,0.396819,-0.479710
45658,9.789491,-1.949130,0.269375,-0.581770,0.502837,-0.549487
45659,9.738070,-1.927362,0.393759,-0.725701,0.583329,-0.630031
45660,9.751266,-1.955062,0.519290,-0.800253,0.665313,-0.705581
45661,9.726092,-2.061010,0.541171,-0.881243,0.741194,-0.766626
45662,9.680315,-2.306055,0.597745,-0.991119,0.792577,-0.800361
45663,9.687743,-2.673431,0.391365,-1.085408,0.817727,-0.819390
45664,9.810094,-3.003503,0.005744,-1.109741,0.830602,-0.817022
45665,9.860350,-3.178547,-0.088331,-1.072307,0.846200,-0.815723
45666,9.951942,-3.422324,-0.148538,-1.029364,0.862899,-0.830083
45667,10.053487,-3.570653,0.203700,-0.949018,0.895735,-0.848969
45668,10.096159,-3.608769,0.249151,-0.914244,0.948380,-0.876362
45669,10.172714,-3.645303,0.263400,-0.895838,1.004986,-0.894840
45670,10.178500,-3.754572,0.220299,-0.900051,1.075397,-0.884110
45671,10.128575,-3.719464,0.063402,-0.843571,1.149826,-0.857848
45672,9.936874,-3.811629,0.141433,-0.833918,1.192898,-0.808224
45673,9.720159,-3.958118,-0.182540,-0.781138,1.168893,-0.762938
45674,9.633203,-4.008384,-0.255375,-0.660118,1.122338,-0.731216
45675,9.490722,-3.920705,-0.172846,-0.591269,1.096211,-0.713453
45676,9.501423,-3.856168,-0.006714,-0.564129,1.060847,-0.698142
45677,9.599680,-3.835010,0.036204,-0.601107,1.035002,-0.664975
45678,9.736684,-3.833507,-0.059388,-0.579096,1.016134,-0.611431
45679,9.907609,-3.799467,0.213487,-0.519558,1.003678,-0.537791
45680,9.905667,-3.559061,0.372616,-0.525069,1.028348,-0.486036
45681,9.611397,-3.484242,0.335263,-0.520478,1.031182,-0.467341
45682,9.279470,-3.275352,0.418901,-0.471442,0.997621,-0.470325
45683,9.204390,-3.149957,0.596183,-0.476221,0.936563,-0.467380
45684,9.205880,-3.223530,0.481136,-0.540207,0.874952,-0.434959
45685,9.232618,-3.426762,0.090039,-0.540391,0.821850,-0.374040
45686,9.334877,-3.460934,0.167635,-0.504397,0.778235,-0.319032
45687,9.430298,-3.516409,0.432982,-0.527726,0.747460,-0.240739
45688,9.466969,-3.522969,0.520990,-0.544013,0.741509,-0.179485
45689,9.238636,-3.394717,0.624139,-0.537686,0.729884,-0.126212
45690,9.012939,-3.279582,0.810756,-0.520248,0.688348,-0.083168
45691,8.945776,-3.240819,0.900137,-0.556474,0.626559,-0.051374
45692,8.913035,-3.350924,0.741968,-0.612881,0.568295,-0.010855
45693,9.040985,-3.439596,0.762839,-0.589448,0.520536,0.057136
45694,9.198612,-3.545484,0.906900,-0.613007,0.475132,0.135711
45695,9.233964,-3.899704,0.853482,-0.656559,0.451658,0.211009
45696,9.203185,-4.168858,0.989529,-0.653072,0.412797,0.298902
45697,9.239918,-4.251396,1.196110,-0.670246,0.381369,0.392292
45698,9.201345,-4.471320,1.172999,-0.676382,0.379269,0.489096
45699,9.097244,-4.645580,1.251340,-0.623325,0.358385,0.575568
45700,8.953674,-4.890553,0.900925,-0.547357,0.317625,0.651608
45701,8.853587,-5.215352,0.776696,-0.349139,0.253429,0.722924
45702,8.889907,-5.247311,0.911541,-0.138231,0.180582,0.783201
45703,8.978799,-5.227447,1.198128,0.043288,0.156624,0.832980
45704,9.021711,-4.918792,1.814972,0.139013,0.107898,0.886713
45705,9.128097,-4.640519,1.972886,0.109954,0.066390,0.948952
45706,9.272640,-4.330084,1.873560,0.099506,0.069182,1.006249
45707,9.290847,-4.199906,1.398497,0.066890,0.096351,1.053716
45708,9.151826,-4.291020,1.178968,0.123976,0.096504,1.095225
45709,9.213498,-4.225819,1.759249,0.198885,0.053772,1.146550
45710,9.307472,-4.484802,1.654381,0.112850,0.052176,1.185211
45711,9.158914,-4.717714,1.503700,0.175808,0.072788,1.210822
45712,8.953927,-4.427417,2.203443,0.262619,0.062828,1.235190
45713,8.911248,-4.235039,2.725613,0.148148,0.073810,1.246933
45714,8.852551,-4.373534,2.410698,-0.011627,0.096127,1.269346
45715,8.789348,-4.540821,2.088647,-0.085231,0.104972,1.305009
45716,8.748766,-4.762982,1.943414,-0.144467,0.138095,1.342915
45717,8.570886,-4.821402,1.911951,-0.203434,0.151419,1.374711
45718,8.296508,-5.251869,1.772621,-0.267810,0.136336,1.405709
45719,8.156112,-5.357970,2.222538,-0.186715,0.118685,1.410528
45720,8.206971,-5.373924,2.748407,-0.243692,0.130011,1.410148
45721,8.246089,-5.604974,2.529615,-0.342105,0.191793,1.415049
45722,8.206869,-5.763442,2.374188,-0.351459,0.238605,1.437458
45723,8.157035,-5.849837,2.389081,-0.394789,0.281169,1.463612
45724,8.199430,-6.169181,2.167014,-0.478758,0.320819,1.502143
45725,8.108134,-6.360962,1.910666,-0.420909,0.363278,1.534594
45726,7.938765,-6.294411,2.158618,-0.325357,0.398641,1.549565
45727,7.674464,-6.356225,2.134772,-0.297581,0.403372,1.560626
45728,7.494417,-6.422343,2.207301,-0.214275,0.393972,1.539394
45729,7.417327,-6.539500,2.177906,-0.176426,0.373705,1.516706
45730,7.347331,-6.452938,2.301593,-0.154379,0.386246,1.485529
45731,7.254910,-6.445727,2.353592,-0.210591,0.399074,1.456838
45732,7.158267,-6.558180,1.988065,-0.226453,0.389412,1.449686
45733,7.069445,-6.596413,1.906063,-0.152351,0.395190,1.432981
45734,6.841560,-6.569357,2.007798,-0.120885,0.413149,1.410906
45735,6.633399,-6.754067,1.873416,-0.107399,0.378520,1.381364
45736,6.548720,-6.892666,1.836848,-0.063334,0.336150,1.361195
45737,6.396707,-6.671625,2.231213,-0.055296,0.319900,1.326505
45738,6.340826,-6.675309,2.175149,-0.103370,0.315253,1.286673
45739,6.359381,-6.874273,2.034348,-0.067282,0.321925,1.248647
45740,6.366556,-6.913680,2.052455,-0.046398,0.331988,1.210262
45741,6.173641,-6.966374,1.924697,-0.057976,0.330357,1.186794
45742,6.032492,-6.985447,1.815032,-0.054565,0.316692,1.148730
45743,5.914905,-6.868608,1.923833,-0.022215,0.283174,1.108649
45744,5.922911,-6.700079,2.060604,-0.014669,0.250447,1.064018
45745,5.960504,-6.688129,2.232062,-0.013203,0.252240,1.012637
45746,5.802431,-6.778934,2.322078,-0.036500,0.264505,0.952467
45747,5.675471,-6.919343,2.231880,-0.101623,0.274475,0.895353
45748,5.406507,-7.121813,2.133853,-0.141403,0.263867,0.852924
45749,5.232662,-7.261055,2.164913,-0.133625,0.251469,0.820182
45750,5.149146,-7.368774,2.230902,-0.137728,0.236968,0.787281
45751,5.143394,-7.537041,2.268432,-0.100792,0.229736,0.761596
45752,5.134751,-7.577858,2.480661,-0.078043,0.225889,0.756761
45753,5.124144,-7.724081,2.446632,-0.057434,0.198918,0.772360
45754,5.124774,-7.778658,2.369116,0.021795,0.182345,0.793580
45755,5.014863,-7.738574,2.293730,0.090424,0.178038,0.799892
45756,4.908411,-7.734318,2.146846,0.142003,0.163275,0.786125
45757,4.828558,-7.834594,1.915800,0.199683,0.133811,0.758103
45758,4.797778,-7.754417,1.898762,0.267939,0.099544,0.720172
45759,4.657702,-7.547544,2.117366,0.251119,0.076122,0.675095
45760,4.548267,-7.523106,2.095722,0.224577,0.043478,0.616334
45761,4.444283,-7.495120,2.072684,0.257453,0.015497,0.560159
45762,4.390202,-7.333933,2.125452,0.277264,-0.011709,0.506710
45763,4.420250,-7.170130,2.208214,0.249939,-0.034650,0.459946
45764,4.325198,-7.024730,2.232546,0.199987,-0.060466,0.419397
45765,4.319052,-6.928035,2.343344,0.175561,-0.095942,0.381194
45766,4.408827,-6.811329,2.487047,0.115652,-0.114620,0.339147
45767,4.436027,-6.774072,2.525046,0.053558,-0.104971,0.304854
45768,4.420312,-6.746187,2.484715,-0.000735,-0.103366,0.257101
45769,4.482797,-6.879185,2.287157,-0.044326,-0.111859,0.207674
45770,4.576892,-6.910647,2.209870,-0.025019,-0.131537,0.152861
45771,4.582611,-6.766746,2.407897,-0.056426,-0.140648,0.084608
45772,4.521542,-6.878979,2.391423,-0.104611,-0.140315,0.006369
45773,4.493867,-6.928868,2.420643,-0.108641,-0.143908,-0.076873
45774,4.501367,-6.876291,2.571164,-0.121392,-0.151054,-0.152008
45775,4.541077,-6.762490,2.654834,-0.182562,-0.154580,-0.224626
45776,4.581958,-6.726765,2.585546,-0.241160,-0.146603,-0.288590
45777,4.674985,-6.888460,2.459579,-0.259271,-0.125170,-0.353716
45778,4.685108,-6.946837,2.521684,-0.243973,-0.113728,-0.411310
45779,4.689939,-6.825244,2.728701,-0.288091,-0.104203,-0.467139
45780,4.660417,-6.909921,2.675421,-0.350148,-0.094934,-0.519036
45781,4.673646,-6.971798,2.561117,-0.336808,-0.099020,-0.579962
45782,4.790167,-6.941428,2.542652,-0.343227,-0.085404,-0.635610
45783,4.944089,-7.016625,2.515122,-0.374750,-0.067603,-0.688398
45784,5.074428,-7.144108,2.325187,-0.391455,-0.047131,-0.739079
45785,5.170202,-7.248215,2.158089,-0.359000,-0.037917,-0.778191
45786,5.243519,-7.234792,2.173128,-0.322527,-0.037504,-0.819831
45787,5.285294,-7.188219,2.161039,-0.283358,-0.024663,-0.867767
45788,5.330961,-7.028835,2.178120,-0.239039,-0.019179,-0.925113
45789,5.424999,-6.874006,2.234387,-0.214772,-0.017241,-0.979743
45790,5.555852,-6.743695,2.321725,-0.235786,-0.003077,-1.042521
45791,5.725758,-6.777283,2.223956,-0.271984,0.013050,-1.107042
45792,5.852082,-6.864799,2.027301,-0.291914,0.032159,-1.157199
45793,5.872770,-6.986678,1.969261,-0.292414,0.028811,-1.190613
45794,5.840754,-6.987407,1.992906,-0.284287,0.026708,-1.237147
45795,5.770421,-6.955935,2.079045,-0.267606,0.041128,-1.295011
45796,5.822654,-6.888435,2.049173,-0.234444,0.054996,-1.373805
45797,5.997265,-6.767782,2.054393,-0.190261,0.057399,-1.443435
45798,6.229182,-6.694930,1.982268,-0.182055,0.054950,-1.505514
45799,6.534414,-6.701897,1.924988,-0.179798,0.064074,-1.546825
45800,6.676764,-6.721421,1.989002,-0.187202,0.080160,-1.584537
45801,6.758327,-6.778735,2.003117,-0.227557,0.090603,-1.607557
45802,6.746727,-6.768425,1.916476,-0.211469,0.087722,-1.623600
45803,6.850246,-6.690724,2.014309,-0.188395,0.098596,-1.651350
45804,6.946942,-6.585149,2.041542,-0.176454,0.114725,-1.680104
45805,7.152707,-6.617127,1.898823,-0.126298,0.129196,-1.703619
45806,7.407497,-6.607392,1.783627,-0.059196,0.140621,-1.729601
45807,7.600254,-6.682280,1.518093,-0.024910,0.139230,-1.739947
45808,7.661816,-6.598262,1.387587,0.048993,0.114902,-1.745892
45809,7.728928,-6.357315,1.610881,0.060487,0.096466,-1.769751
45810,7.744768,-6.049587,1.736114,0.022234,0.081561,-1.800192
45811,7.875643,-5.947603,1.685966,-0.001510,0.072993,-1.828603
45812,8.016148,-5.747364,1.754895,0.022426,0.100768,-1.868336
45813,8.124519,-5.602023,1.876683,0.014712,0.125975,-1.911058
45814,8.330601,-5.504244,1.869828,0.010143,0.119591,-1.944033
45815,8.569716,-5.220051,1.936917,0.000391,0.103948,-1.946965
45816,8.815143,-4.983382,1.917285,-0.043303,0.079605,-1.928374
45817,8.937081,-4.735021,1.989535,-0.083910,0.076829,-1.903968
45818,9.091959,-4.428789,2.201070,-0.164797,0.084570,-1.888286
45819,9.172049,-4.301010,2.244662,-0.267417,0.080243,-1.865694
45820,9.399516,-4.403912,1.927947,-0.313023,0.080456,-1.835466
45821,9.532168,-4.428830,1.545172,-0.254050,0.099344,-1.821121
45822,9.582958,-4.362376,1.298544,-0.173481,0.110082,-1.811405
45823,9.634206,-4.185763,1.201421,-0.134228,0.095884,-1.814163
45824,9.509512,-3.905087,1.406576,-0.113427,0.083586,-1.818859
45825,9.275615,-3.700375,1.651658,-0.148091,0.079926,-1.853370
45826,9.075095,-3.318848,1.892076,-0.187754,0.080768,-1.909863
45827,9.045752,-3.086337,2.075037,-0.310068,0.064424,-1.968014
45828,9.179519,-2.614919,1.892994,-0.390619,0.037180,-2.003738
45829,9.565815,-2.699517,1.649445,-0.455255,-0.037315,-2.028884
45830,10.134329,-2.478886,1.095381,-0.385715,-0.093817,-2.046202
45831,10.506119,-2.261442,1.143048,-0.339397,-0.133383,-2.038353
45832,10.483873,-2.273381,0.885892,-0.327773,-0.102547,-2.048273
45833,10.191844,-1.755104,1.140249,-0.220022,-0.092553,-2.100921
45834,9.936388,-1.618608,1.730339,-0.381120,-0.163576,-2.133297
45835,9.799411,-1.156610,1.449008,-0.603346,-0.241325,-2.155773
45836,9.771697,-1.422721,1.161895,-0.801767,-0.349957,-2.113419
45837,9.689460,-1.599304,0.771140,-0.800863,-0.448066,-2.060856
45838,9.751137,-1.536612,0.850174,-0.859615,-0.518870,-1.999289
45839,9.854652,-1.858783,0.922051,-1.041912,-0.571268,-1.920459
45840,10.155814,-2.172777,0.644141,-1.132627,-0.614479,-1.815428
45841,10.676963,-2.073812,0.838613,-1.171394,-0.629766,-1.679024
45842,10.986255,-2.254723,0.739497,-1.274407,-0.605911,-1.514202
45843,11.124969,-2.613663,0.640955,-1.356755,-0.536408,-1.349518
45844,11.124025,-2.577018,0.591882,-1.306835,-0.475573,-1.199274
45845,11.039919,-2.948132,0.755444,-1.364273,-0.430995,-1.036301
45846,10.820297,-3.502538,0.527377,-1.317037,-0.361212,-0.864509
45847,10.446638,-4.032959,0.674105,-1.180353,-0.306932,-0.715980
45848,10.179571,-4.602236,0.673297,-0.983375,-0.307685,-0.583386
45849,10.159902,-4.764870,0.752675,-0.695566,-0.334707,-0.439147
45850,10.151573,-5.074391,0.611603,-0.442095,-0.338379,-0.293131
45851,10.209175,-5.290827,0.226030,-0.114883,-0.308433,-0.145491
45852,10.124287,-5.319968,-0.116052,0.256758,-0.260974,-0.001504
45853,9.947166,-5.179241,-0.295912,0.629546,-0.215173,0.125217
45854,9.781406,-5.019267,-0.494825,0.958552,-0.195902,0.225623
45855,9.604102,-4.907474,-0.678998,1.319049,-0.196816,0.317038
45856,9.466765,-4.626490,-0.757390,1.691433,-0.220520,0.390419
45857,9.315796,-4.283936,-0.810776,2.019286,-0.264905,0.452685
45858,9.248598,-4.060239,-0.983756,2.339387,-0.311153,0.491574
45859,9.304029,-3.784961,-1.062149,2.646878,-0.353643,0.526281
45860,9.493816,-3.377281,-0.962132,2.870809,-0.405241,0.574645
45861,9.746509,-2.876733,-0.992356,3.012628,-0.439068,0.638989
45862,10.055621,-2.454648,-0.912881,3.078088,-0.459155,0.719028
45863,10.251679,-2.138666,-0.959242,3.105157,-0.457866,0.791131
45864,10.312501,-1.870274,-1.007133,3.116983,-0.439235,0.856154
45865,10.351149,-1.666513,-1.017573,3.126164,-0.412290,0.919214
45866,10.225752,-1.485988,-0.798932,3.131858,-0.365285,0.971871
45867,10.006417,-1.420043,-0.659400,3.072952,-0.362800,1.033554
45868,10.097917,-1.129844,-0.461087,3.010921,-0.399498,1.085318
45869,10.316494,-0.985743,-0.574855,2.849287,-0.425521,1.156454
45870,10.573399,-0.966432,-0.788627,2.726860,-0.418525,1.226664
45871,10.487280,-1.067227,-0.780006,2.631267,-0.372946,1.310070
45872,10.411877,-1.113612,-0.518916,2.519626,-0.345103,1.372524
45873,10.277573,-1.270841,-0.180117,2.356257,-0.329025,1.425305
45874,10.184087,-1.196479,0.014996,2.215436,-0.333981,1.453136
45875,10.164183,-0.703465,0.399120,2.040432,-0.340527,1.493915
45876,10.148349,-0.825519,0.826733,1.667971,-0.359455,1.527649
45877,10.241420,-1.353946,0.465308,1.316055,-0.334109,1.576420
45878,10.121586,-1.788921,0.009709,1.141568,-0.298448,1.641166
45879,9.966897,-1.952451,-0.081450,1.160948,-0.242238,1.649891
45880,9.768768,-1.872397,0.324475,1.120381,-0.195843,1.630484
45881,9.625182,-1.750902,0.605269,0.969713,-0.186431,1.564868
45882,9.564533,-1.826484,0.909982,0.766750,-0.201120,1.498672
45883,9.495758,-1.898802,0.793155,0.576329,-0.256280,1.440480
45884,9.440266,-1.950439,0.545782,0.434491,-0.303817,1.374385
45885,9.481801,-2.305628,0.054254,0.335993,-0.362204,1.311665
45886,9.422063,-2.525133,0.036973,0.362951,-0.380783,1.241979
45887,9.457315,-2.814504,0.213185,0.293862,-0.390547,1.177169
45888,9.359007,-2.661098,0.372387,0.305328,-0.381729,1.105626
45889,9.257109,-2.813635,0.576713,0.182911,-0.401385,1.047438
45890,9.285464,-3.152734,0.285265,0.168733,-0.443472,1.011007
45891,9.330279,-3.213889,0.051966,0.226013,-0.444352,0.955938
45892,9.342777,-3.336424,0.158682,0.244537,-0.431138,0.911559
45893,9.284322,-3.151244,0.102111,0.251142,-0.424653,0.872832
45894,9.249696,-3.379664,0.277593,0.160519,-0.405128,0.823196
45895,9.170948,-3.359906,0.187958,0.139141,-0.395607,0.793511
45896,8.957058,-3.214878,0.480956,0.075102,-0.372870,0.742491
45897,8.756663,-3.320972,0.207384,0.013302,-0.385284,0.702762
45898,8.638742,-3.317276,0.020195,0.069404,-0.398168,0.642672
45899,8.634228,-3.417657,0.009106,0.092825,-0.405188,0.573594
45900,8.663456,-3.580790,-0.155251,0.093286,-0.410276,0.509154
45901,8.755513,-3.488075,-0.246076,0.150175,-0.387335,0.419125
45902,8.902673,-3.460452,-0.280308,0.136732,-0.348597,0.335451
45903,9.002258,-3.501551,-0.560575,0.206843,-0.330003,0.266404
45904,8.906598,-3.347354,-0.395275,0.321817,-0.273337,0.200462
45905,8.671631,-3.206978,-0.081756,0.318124,-0.226543,0.148737
45906,8.431975,-3.107340,0.047026,0.288890,-0.233756,0.106759
45907,8.443800,-2.949816,0.170391,0.246268,-0.271622,0.064209
45908,8.683948,-2.867917,0.198780,0.170415,-0.293243,0.015528
45909,9.125403,-2.975313,0.010524,0.122530,-0.266482,-0.027286
45910,9.293298,-2.963667,-0.222388,0.140869,-0.182081,-0.081184
45911,9.248241,-2.963073,-0.329815,0.167654,-0.127612,-0.142767
45912,9.169843,-2.937901,-0.308105,0.190693,-0.115624,-0.190875
45913,9.115854,-2.972384,-0.193237,0.172645,-0.123976,-0.218933
45914,9.155671,-3.023444,-0.160897,0.119538,-0.134896,-0.224696
45915,9.257742,-2.938439,-0.016593,0.072580,-0.135778,-0.224334
45916,9.369538,-2.946912,-0.004383,-0.022780,-0.135028,-0.209717
45917,9.461950,-2.887937,-0.052845,-0.095591,-0.114303,-0.223020
45918,9.488123,-2.881988,-0.172972,-0.149437,-0.105800,-0.245040
45919,9.483039,-2.998946,-0.325796,-0.193819,-0.104547,-0.276174
45920,9.442280,-3.142109,-0.347196,-0.196443,-0.097505,-0.292130
45921,9.461609,-3.173998,-0.251690,-0.214548,-0.105657,-0.276579
45922,9.515961,-3.186837,-0.166888,-0.255376,-0.131613,-0.241470
45923,9.631584,-3.236104,-0.125771,-0.277607,-0.151437,-0.208709
45924,9.772735,-3.157018,-0.210886,-0.247859,-0.143599,-0.191320
45925,9.795904,-3.077418,-0.134858,-0.222765,-0.106245,-0.188862
45926,9.766270,-3.089543,-0.019272,-0.271357,-0.074363,-0.197511
45927,9.774515,-3.256092,0.055815,-0.360833,-0.054819,-0.199458
45928,9.782746,-3.555372,0.054968,-0.444667,-0.045373,-0.184322
45929,9.743872,-3.935671,-0.003422,-0.476730,-0.013220,-0.140598
45930,9.854376,-4.223820,-0.024241,-0.428083,0.017959,-0.082951
45931,9.933743,-4.393160,-0.048370,-0.312337,0.050691,-0.048217
45932,9.962933,-4.310752,-0.255963,-0.150823,0.085099,-0.064346
45933,9.725416,-4.077347,-0.550371,0.041490,0.091202,-0.124937
45934,9.458723,-3.764885,-0.841485,0.221577,0.059818,-0.197070
45935,9.240771,-3.489985,-1.030807,0.355740,-0.008941,-0.251677
45936,9.325012,-3.229565,-1.055923,0.448314,-0.057064,-0.287387
45937,9.490310,-2.827180,-0.919189,0.476500,-0.085339,-0.313390
45938,9.660733,-2.342912,-0.762470,0.429182,-0.084182,-0.350100
45939,9.621567,-1.726172,-0.629497,0.332215,-0.061497,-0.417491
45940,9.511112,-1.073624,-0.492339,0.238131,-0.023845,-0.523544
45941,9.337018,-0.424341,-0.273819,0.119411,0.036456,-0.644080
45942,9.194479,0.166397,-0.013652,-0.009108,0.095545,-0.779118
45943,9.190147,0.613590,0.196801,-0.198571,0.135920,-0.909160
45944,9.230711,0.796422,0.176276,-0.444915,0.156568,-1.021713
45945,9.395673,0.785138,0.061493,-0.683102,0.152456,-1.122407
45946,9.613557,0.589420,-0.088937,-0.950031,0.148463,-1.209038
45947,9.803824,0.333106,-0.509874,-1.158723,0.144480,-1.286249
45948,9.901282,0.167110,-0.369345,-1.311968,0.169331,-1.368824
45949,9.968503,-0.198364,-0.350593,-1.466671,0.180636,-1.455009
45950,10.258826,-0.386940,-0.363183,-1.530437,0.189849,-1.542781
45951,10.696851,-0.471159,-0.455994,-1.613374,0.192982,-1.621250
45952,11.052733,-0.488784,-0.367752,-1.714132,0.234925,-1.656048
45953,11.403805,-0.520411,-0.379765,-1.877988,0.284602,-1.680343
45954,11.677281,-0.727427,-0.134938,-2.071066,0.357824,-1.665759
45955,11.759289,-1.174986,-0.535415,-2.370374,0.443830,-1.632936
45956,11.897704,-1.155660,-0.383387,-2.438827,0.535812,-1.592443
45957,11.878723,-1.844804,-0.338446,-2.649650,0.632223,-1.528726
45958,11.884496,-2.011575,-0.557430,-2.639360,0.743980,-1.506774
45959,11.757666,-2.257861,-0.565590,-2.630117,0.848330,-1.474412
45960,11.718455,-2.156642,-0.748544,-2.565890,0.955300,-1.460541
45961,11.655240,-2.301402,-0.571439,-2.591530,1.071714,-1.406873
45962,11.437141,-2.244444,-0.924947,-2.479490,1.178271,-1.370546
45963,11.256235,-2.342252,-0.865603,-2.325419,1.258593,-1.332556
45964,11.083685,-2.434204,-1.087590,-2.191360,1.338748,-1.290200
45965,10.884364,-2.322125,-1.221955,-1.981427,1.393024,-1.255956
45966,10.688530,-2.464829,-1.133521,-1.828634,1.447388,-1.224801
45967,10.341165,-2.288368,-1.453765,-1.559978,1.503159,-1.207387
45968,10.140941,-2.230905,-0.850349,-1.332066,1.518428,-1.171513
45969,9.957024,-2.259100,-0.974782,-1.048575,1.513887,-1.161159
45970,9.796066,-2.059002,-0.498863,-0.770146,1.451321,-1.151195
45971,9.680185,-2.117937,-0.747646,-0.652181,1.399609,-1.125296
45972,9.637799,-1.847931,-0.792937,-0.394202,1.345602,-1.084433
45973,9.485936,-1.630656,-0.514887,-0.213738,1.251890,-1.026763
45974,9.385599,-1.501973,-0.618816,-0.127411,1.166561,-0.968132
45975,9.271682,-1.352114,-0.483018,0.054741,1.083585,-0.911554
45976,9.094241,-0.930792,-0.427861,0.192328,0.968767,-0.865655
45977,8.942264,-0.688722,-0.719823,0.239650,0.864225,-0.808871
45978,8.892838,-0.353314,-0.484767,0.367980,0.727494,-0.756150
45979,8.666107,-0.325544,-0.679138,0.379043,0.592673,-0.711259
45980,8.371266,-0.859749,-0.955893,0.396948,0.468942,-0.664771
45981,8.219098,-0.809109,-1.281450,0.587385,0.332677,-0.624544
45982,8.131962,0.093492,-1.161874,0.780077,0.157757,-0.595306
45983,8.199858,0.354448,-0.823363,0.707621,-0.018582,-0.581012
45984,8.312929,0.786952,-1.025298,0.772715,-0.142930,-0.584912
45985,8.306330,1.285864,-0.743644,0.789992,-0.264633,-0.576975
45986,8.246881,1.773322,-0.416581,0.733598,-0.400499,-0.607162
45987,8.241453,2.115909,-0.055482,0.592641,-0.539278,-0.655892
45988,8.361107,2.389255,0.226995,0.417576,-0.649226,-0.724511
45989,8.408957,2.584484,0.417408,0.239991,-0.760760,-0.790510
45990,8.628645,2.941929,0.691276,0.141664,-0.824394,-0.827246
45991,8.826861,3.376173,1.228030,0.009701,-0.898805,-0.888521
45992,9.394191,3.684178,1.623268,-0.190827,-0.998447,-0.939516
45993,10.006943,4.001064,2.009854,-0.354637,-1.015695,-0.955476
45994,10.454255,4.328474,2.267897,-0.548686,-1.011827,-0.934579
45995,10.934283,4.469143,2.582139,-0.834959,-1.038509,-0.878913
45996,11.493564,4.559963,2.889051,-1.198071,-1.015288,-0.806001
45997,11.811720,4.235290,3.057866,-1.676702,-0.894086,-0.687692
45998,12.033756,3.622561,2.852302,-2.180686,-0.722778,-0.531589
45999,11.705712,2.785306,2.407205,-2.518697,-0.491467,-0.379285
46000,11.052338,2.003973,1.980984,-2.667158,-0.293816,-0.253678
46001,10.678861,1.589014,1.204677,-2.654677,-0.161091,-0.180855
46002,10.298353,1.073040,0.471339,-2.520386,-0.080998,-0.113618
46003,9.793014,0.308554,-0.219119,-2.388591,-0.045500,-0.052941
46004,9.458785,-0.435391,-0.922467,-2.205396,-0.079894,-0.023169
46005,9.282917,-1.049969,-1.140444,-1.925289,-0.122209,0.004961
46006,9.245670,-1.327480,-1.039539,-1.553074,-0.154409,0.035240
46007,9.264312,-1.046097,-0.630781,-1.117411,-0.166740,0.054589
46008,9.478636,-0.732516,-0.242601,-0.769593,-0.203284,0.046147
46009,9.952203,-0.131393,-0.054073,-0.480244,-0.193831,0.067390
46010,10.012193,0.277146,0.408275,-0.499023,-0.141909,0.138827
46011,9.673903,-0.125972,0.041503,-0.582215,-0.107818,0.243627
46012,9.345848,-0.447598,-0.274741,-0.422757,-0.123712,0.315366
46013,9.131466,-0.285146,-0.148824,-0.182724,-0.165373,0.340344
46014,9.158268,0.070653,0.100033,0.049162,-0.215346,0.316735
46015,9.324447,0.555980,0.332553,0.226023,-0.239861,0.272339
46016,9.507147,1.064370,0.550373,0.314646,-0.239432,0.222403
46017,9.829203,1.372104,0.806942,0.327626,-0.231559,0.191206
46018,10.166458,1.615462,1.018890,0.272488,-0.200822,0.172696
46019,10.374392,1.688183,1.116344,0.183641,-0.151797,0.155485
46020,10.440780,1.638894,1.175810,0.105847,-0.088944,0.136813
46021,10.244766,1.588761,1.140305,0.065013,-0.042619,0.113740
46022,10.064103,1.506444,1.126136,0.058255,-0.030770,0.088043
46023,9.961579,1.499518,1.049559,0.048177,-0.032953,0.067507
46024,9.840394,1.427930,0.891619,0.048242,-0.045368,0.045476
46025,9.863753,1.427999,0.804265,0.077371,-0.055491,0.027250
46026,9.961187,1.480505,0.782499,0.076792,-0.052074,0.019248
46027,10.133612,1.453097,0.604029,0.076062,-0.029922,0.023070
46028,10.276063,1.453024,0.612163,0.084091,0.021832,0.034790
46029,10.196312,1.445843,0.682219,0.068955,0.084976,0.047809
46030,10.043125,1.437578,0.722375,0.052099,0.115196,0.051119
46031,9.843216,1.550962,0.740785,0.051948,0.123340,0.032476
46032,9.683529,1.650603,0.725013,0.054055,0.107284,0.015417
46033,9.524954,1.683046,0.704944,0.050262,0.082151,-0.004716
46034,9.465490,1.752977,0.696195,0.036557,0.049239,-0.020065
46035,9.556566,1.759834,0.593606,0.014200,0.031387,-0.027470
46036,9.669998,1.712501,0.598010,-0.010910,0.037666,-0.023859
46037,9.755679,1.612019,0.595033,-0.038748,0.063638,-0.007464
46038,9.773902,1.437716,0.617524,-0.050598,0.089661,0.033201
46039,9.823132,1.258782,0.679957,-0.041345,0.106070,0.076120
46040,9.929895,1.076302,0.760155,-0.021112,0.122700,0.115201
46041,9.995112,0.940336,0.876656,0.012417,0.156876,0.149882
46042,9.998098,0.836961,0.921130,0.049410,0.189325,0.181797
46043,9.898921,0.748807,0.925077,0.077893,0.221966,0.196755
46044,9.878644,0.680836,0.836729,0.119634,0.230136,0.202013
46045,9.829435,0.664843,0.741626,0.196937,0.238091,0.198697
46046,9.792020,0.754512,0.608356,0.292725,0.247962,0.186838
46047,9.690180,0.894877,0.588065,0.391964,0.251436,0.170298
46048,9.545090,1.090033,0.537413,0.472832,0.233740,0.143181
46049,9.470131,1.323349,0.458163,0.543848,0.198286,0.105671
46050,9.415552,1.628275,0.510641,0.591842,0.156107,0.068906
46051,9.416785,1.920117,0.543239,0.583485,0.121108,0.031503
46052,9.365275,2.112414,0.672738,0.526793,0.092041,0.004232
46053,9.383126,2.203273,0.777016,0.445701,0.050583,-0.001304
46054,9.428453,2.225467,0.859173,0.358290,0.019816,-0.005411
46055,9.472873,2.194898,0.912043,0.264312,0.000701,0.003125
46056,9.449117,2.146854,1.018302,0.188242,-0.012057,0.013901
46057,9.477162,2.042259,0.994782,0.123529,-0.023190,0.030935
46058,9.521640,1.953823,1.020281,0.083601,-0.035634,0.050418
46059,9.562959,1.843915,0.956443,0.061575,-0.042179,0.064520
46060,9.621643,1.769198,0.970699,0.052506,-0.045725,0.073322
46061,9.664391,1.744696,0.933861,0.044730,-0.055907,0.067297
46062,9.694509,1.721839,0.937280,0.039857,-0.050271,0.059833
46063,9.709189,1.630812,0.923539,0.034285,-0.051947,0.038148
46064,9.738670,1.610938,0.927459,0.029040,-0.047608,0.024506
46065,9.752686,1.522736,0.914644,0.029185,-0.039423,0.013188
46066,9.781677,1.505023,0.919793,0.042649,-0.033610,0.005576
46067,9.783198,1.488812,0.946457,0.051627,-0.027526,-0.000454
46068,9.841926,1.507821,0.990403,0.046651,-0.016849,-0.002301
46069,9.910655,1.592849,0.933082,0.034238,-0.010354,-0.002103
46070,9.910669,1.593108,0.932497,0.044921,0.011258,0.004316
46071,9.828784,1.629782,0.996015,0.035414,0.026943,0.005900
46072,9.811163,1.626755,0.919517,0.017945,0.033405,0.012765
46073,9.782635,1.642383,0.913040,0.018316,0.030293,0.020853
