// Start Time: Unknown
// Update Rate: 100.0Hz
// Filter Profile: human (46.1)
// Firmware Version: 4.3.5
PacketCounter,Acc_X,Acc_Y,Acc_Z,Gyr_X,Gyr_Y,Gyr_Z
53519,9.360394,-2.092707,2.533027,-0.007415,0.003259,0.007111
53520,9.345063,-2.100971,2.563318,-0.010855,0.003739,0.006419
53521,9.359937,-2.094464,2.533266,-0.016015,0.004458,0.005380
53522,9.361271,-2.096601,2.593154,-0.015639,0.005203,0.004103
53523,9.349363,-2.116000,2.543455,-0.013728,0.007087,0.003931
53524,9.349134,-2.116561,2.543828,-0.016228,0.007678,-0.000076
53525,9.338912,-2.136577,2.553961,-0.005935,0.004574,-0.004457
53526,9.360498,-2.142678,2.563744,-0.003832,0.008583,-0.005146
53527,9.365526,-2.109784,2.574962,-0.003646,0.007203,-0.005906
53528,9.375504,-2.134287,2.534813,-0.008243,0.007289,-0.008983
53529,9.365352,-2.153610,2.545279,-0.006519,0.010553,-0.008393
53530,9.391948,-2.171887,2.534998,-0.004613,0.008934,-0.008807
53531,9.370296,-2.164671,2.526411,-0.009210,0.009020,-0.011884
53532,9.381824,-2.190017,2.546399,0.000150,0.012816,-0.012462
53533,9.355033,-2.170260,2.558626,-0.005177,0.013073,-0.006526
53534,9.369971,-2.162333,2.529615,-0.003457,0.012834,-0.006180
53535,9.353134,-2.167979,2.501163,-0.003645,0.014214,-0.005419
53536,9.359384,-2.226374,2.510830,-0.005179,0.013074,-0.006527
53537,9.327421,-2.239384,2.512563,0.005334,0.013762,-0.004960
53538,9.390740,-2.211589,2.512929,0.012591,0.010046,-0.005091
53539,9.368899,-2.159646,2.535872,0.009550,0.012933,-0.000604
53540,9.357022,-2.133182,2.518152,-0.001717,0.014258,0.000624
53541,9.308266,-2.153200,2.490167,-0.011641,0.014598,0.003477
53542,9.329475,-2.160180,2.500595,-0.018147,0.016302,0.000809
53543,9.334092,-2.218128,2.450484,-0.016050,0.016809,-0.000120
53544,9.387106,-2.211196,2.460605,-0.011665,0.016443,-0.002737
53545,9.393190,-2.225113,2.501412,-0.003252,0.016624,-0.000236
53546,9.381320,-2.198644,2.483759,0.000945,0.014132,-0.002337
53547,9.365834,-2.205856,2.515210,0.002665,0.013893,-0.001989
53548,9.369303,-2.171675,2.467116,0.004764,0.007390,-0.003405
53549,9.310743,-2.165887,2.479332,0.001323,0.007869,-0.004102
53550,9.338648,-2.185971,2.528874,-0.004975,0.009855,-0.001074
53551,9.321864,-2.192170,2.499944,-0.010515,0.009827,-0.000844
53552,9.326711,-2.204845,2.480298,-0.007075,0.009348,-0.000146
53553,9.354560,-2.225238,2.529743,-0.000002,0.007011,0.000489
53554,9.331348,-2.172431,2.492391,0.002285,0.009643,-0.000955
53555,9.343937,-2.200135,2.572223,0.003437,0.010037,0.001431
53556,9.338694,-2.232417,2.562506,0.001322,0.007870,-0.004101
53557,9.332135,-2.218201,2.523906,0.009357,0.007306,-0.000318
53558,9.348481,-2.211672,2.554680,0.013742,0.010445,-0.002689
53559,9.379867,-2.107712,2.617507,0.007821,0.013177,-0.000940
53560,9.431359,-1.964418,2.660860,-0.030016,0.020107,-0.002170
53561,9.450695,-1.790880,2.735940,-0.087561,0.038704,-0.003962
53562,9.528850,-1.446235,2.984562,-0.191649,0.063814,-0.015200
53563,9.559273,-0.820701,3.284784,-0.385933,0.111145,-0.029948
53564,9.526773,-0.373126,3.360149,-0.682864,0.185359,-0.058132
53565,9.482490,-0.352564,3.111324,-1.083586,0.266693,-0.089915
53566,9.412759,-0.978972,2.914193,-1.417921,0.340089,-0.110896
53567,9.398753,-1.906751,2.741917,-1.597140,0.400337,-0.151783
53568,9.304696,-2.646023,2.679541,-1.620800,0.426539,-0.162441
53569,9.332104,-3.244014,2.810135,-1.518575,0.432047,-0.144880
53570,9.319256,-3.899096,2.721607,-1.272495,0.416357,-0.112489
53571,9.051774,-4.594833,2.216268,-0.875070,0.344436,-0.053821
53572,9.074922,-5.054327,2.186952,-0.298882,0.248831,-0.016306
53573,9.185110,-4.937792,2.543894,0.279288,0.169392,0.010438
53574,9.394405,-4.501893,2.800476,0.767700,0.116162,0.061716
53575,9.565155,-4.002135,3.002422,1.146287,0.091642,0.098581
53576,9.734644,-3.443253,3.181442,1.427697,0.107452,0.122782
53577,9.908032,-2.619962,3.649400,1.565773,0.161214,0.134749
53578,9.935289,-1.553256,3.845742,1.490958,0.245752,0.156122
53579,10.012536,-0.279262,4.583517,1.216202,0.383445,0.132931
53580,9.910261,0.828983,4.446241,0.557867,0.548843,0.107898
53581,9.364132,1.087385,3.313995,-0.333946,0.673204,0.105965
53582,8.909921,0.688684,2.880295,-1.167979,0.739039,0.066578
53583,8.854133,-0.277326,2.878469,-1.853537,0.759584,0.029064
53584,9.037601,-1.763218,2.987771,-2.277943,0.762881,0.043429
53585,9.056315,-3.149654,2.862388,-2.431060,0.748610,0.111624
53586,8.809859,-5.173496,2.097879,-2.294454,0.697941,0.214721
53587,8.352446,-7.190338,1.476202,-1.734171,0.564230,0.317517
53588,7.698027,-9.813520,-0.101655,-0.764304,0.352054,0.456808
53589,7.763611,-12.116397,0.954278,1.154351,0.079615,0.509741
53590,9.061148,-10.559526,3.548537,3.154762,-0.129629,0.489473
53591,10.002907,-7.630248,3.342373,4.610692,-0.156081,0.524518
53592,10.001388,-4.467181,2.869142,5.424208,-0.105905,0.620423
53593,9.672408,-1.976149,2.525928,5.527811,-0.055459,0.726850
53594,9.373407,-0.387926,2.424133,5.067987,-0.034468,0.789005
53595,9.486050,0.389135,3.089854,4.367452,-0.010509,0.757965
53596,10.091566,1.917160,5.044569,3.526889,0.135830,0.628132
53597,10.252933,3.762068,5.592164,2.120400,0.347559,0.564998
53598,9.779853,4.490902,4.991830,0.490197,0.571368,0.525272
53599,9.172985,3.750882,4.232524,-1.129677,0.764708,0.402671
53600,8.640035,1.051904,3.146032,-2.392692,0.843182,0.341341
53601,8.483031,-1.777934,2.990492,-2.992337,0.844348,0.358453
53602,8.437600,-4.310928,2.760495,-3.161629,0.838855,0.420587
53603,8.035224,-7.072556,2.155565,-2.752067,0.705668,0.580649
53604,7.597342,-9.501810,1.754430,-1.805406,0.495572,0.764263
53605,7.779367,-11.216117,2.886595,-0.122110,0.269432,0.878952
53606,8.599352,-10.401903,4.492341,1.830000,0.068013,0.894087
53607,9.080080,-7.908219,4.013153,3.361333,-0.063165,0.954391
53608,9.023270,-5.270099,3.216087,4.290490,-0.123299,1.074322
53609,8.845858,-3.035050,3.030164,4.545930,-0.165895,1.195864
53610,8.637339,-1.127255,3.717242,4.320920,-0.194891,1.219937
53611,8.833703,0.448458,5.399336,3.728473,-0.113079,1.113278
53612,8.950450,1.645592,6.888079,2.884774,0.106679,0.954397
53613,8.935928,2.672524,7.100840,1.663389,0.372193,0.804594
53614,8.342108,2.900981,6.517975,0.398171,0.653685,0.636882
53615,7.621986,2.488469,6.012665,-0.838595,0.859395,0.379974
53616,7.376139,0.976299,5.419076,-1.832691,0.969732,0.191658
53617,7.631404,-1.035641,5.474501,-2.465755,0.995917,0.134043
53618,8.281555,-2.155628,6.332498,-2.750516,1.047082,0.134332
53619,8.101150,-4.289465,5.096539,-3.012665,1.048949,0.269095
53620,7.151793,-7.274697,3.411682,-2.692961,0.898139,0.511524
53621,6.579967,-9.894684,3.291631,-1.597182,0.629143,0.690762
53622,7.374260,-11.488553,4.467034,0.193745,0.340777,0.767125
53623,8.803991,-10.151817,5.884152,2.105225,0.153797,0.799402
53624,9.385536,-6.936512,5.634199,3.501972,0.111055,0.875181
53625,8.882573,-3.340880,5.289085,4.057677,0.145130,0.995606
53626,8.304096,-0.733978,5.538948,3.842978,0.208999,1.042864
53627,8.022485,0.287754,6.274816,3.066130,0.321666,0.944800
53628,8.026817,0.677204,6.819466,2.183121,0.477735,0.749752
53629,8.222223,1.885095,7.603030,1.135068,0.689581,0.514542
53630,8.113527,2.507762,7.490632,-0.055641,0.926204,0.321857
53631,7.547514,1.980000,6.762123,-1.248473,1.128681,0.141971
53632,7.097804,0.246852,6.194762,-2.165443,1.217089,0.023483
53633,7.403262,-1.799452,6.478789,-2.717896,1.257593,-0.027030
53634,7.453117,-3.611631,5.655764,-3.058254,1.271008,0.028543
53635,6.610151,-7.039397,3.265093,-2.969348,1.146306,0.266944
53636,5.775535,-9.801627,3.221283,-2.111321,0.910404,0.489956
53637,5.749154,-11.800509,4.214499,-0.617644,0.624769,0.629880
53638,6.840580,-11.802909,5.639997,1.389859,0.308150,0.677581
53639,8.191117,-8.977575,5.807251,3.123465,0.115180,0.725980
53640,8.345513,-5.302767,5.436444,4.082889,0.089598,0.829462
53641,7.950780,-2.274577,5.626435,4.192447,0.117231,0.932879
53642,7.610145,-0.479871,6.290464,3.647801,0.176824,0.902827
53643,7.341772,0.221046,6.907364,2.795564,0.305693,0.735184
53644,7.290517,0.880113,7.324794,1.765905,0.464543,0.514001
53645,7.365242,1.612649,7.556553,0.628418,0.652855,0.318518
53646,7.319800,1.863398,7.754870,-0.591077,0.864125,0.099351
53647,6.723216,0.454761,7.056883,-1.735669,1.021756,-0.022232
53648,6.465833,-1.324132,7.204632,-2.456480,1.047715,-0.065245
53649,6.932225,-3.256193,7.213313,-2.887405,1.067765,-0.048914
53650,6.622984,-5.767800,5.318964,-3.038569,1.020625,0.112309
53651,5.699709,-8.185267,4.534131,-2.536964,0.858804,0.369447
53652,5.257737,-10.104728,4.716869,-1.560297,0.637510,0.538500
53653,5.557175,-11.594536,5.329277,0.031725,0.353398,0.691052
53654,6.799249,-10.211133,6.996470,1.864447,0.152047,0.744597
53655,7.457904,-7.406351,6.973084,3.206109,0.085152,0.837855
53656,7.116689,-4.000689,6.949171,3.872507,0.107085,0.959972
53657,6.755103,-1.394390,7.731580,3.759454,0.178213,1.017254
53658,6.297272,0.290790,8.352948,3.099239,0.263515,0.970855
53659,6.045994,0.046800,8.013806,2.139998,0.398700,0.829135
53660,6.101088,-0.131022,7.963516,1.245191,0.621105,0.586105
53661,5.838547,0.717483,8.220363,0.392405,0.812213,0.335036
53662,5.835917,1.530880,8.426898,-0.600996,0.998171,0.067771
53663,5.728579,0.599353,7.795474,-1.615793,1.125954,-0.054151
53664,5.687227,-1.072863,8.091593,-2.316308,1.173501,-0.061363
53665,6.302830,-2.587451,8.448387,-2.712717,1.186887,-0.037527
53666,6.307455,-5.014562,6.625055,-2.975061,1.188587,0.118420
53667,5.031747,-7.716844,5.341491,-2.668931,1.054801,0.414139
53668,4.149961,-9.608451,5.791331,-1.718598,0.813802,0.613974
53669,4.655316,-10.574201,6.875767,-0.210312,0.544675,0.706947
53670,5.933315,-9.578352,7.981654,1.408843,0.352718,0.761776
53671,6.202612,-6.763257,8.062555,2.591128,0.316676,0.869033
53672,5.361022,-3.732110,8.443975,3.045370,0.324089,0.994309
53673,4.639784,-1.401122,9.054073,2.888209,0.369117,1.005989
53674,4.119009,-0.121925,9.261858,2.363251,0.420450,0.910642
53675,4.389084,0.265202,9.230154,1.671332,0.518441,0.700411
53676,4.961640,0.413227,9.103327,0.923821,0.692974,0.493502
53677,5.144052,0.772506,8.709947,0.075565,0.905360,0.287575
53678,5.095625,0.754362,8.921342,-0.880704,1.105209,0.089881
53679,5.189454,-0.666616,8.795151,-1.874321,1.264366,-0.001364
53680,5.325600,-2.367426,9.103829,-2.574145,1.384478,-0.034597
53681,5.341556,-3.278002,9.605264,-3.101677,1.457575,-0.007313
53682,5.217597,-3.694317,8.887711,-3.749539,1.434049,0.143175
53683,4.392710,-4.843887,7.679530,-4.259477,1.360179,0.417783
53684,3.073070,-7.269305,6.410538,-4.340164,1.154484,0.649862
53685,2.634378,-10.957887,5.987149,-3.377567,0.797868,0.828714
53686,3.607445,-13.083525,6.868361,-1.684425,0.418598,0.882384
53687,5.021018,-13.089067,6.504825,0.079281,0.175742,0.938953
53688,4.706357,-10.776412,5.984543,1.498104,0.108208,1.003595
53689,3.757463,-7.229932,5.950792,2.289008,0.037221,1.015030
53690,3.442683,-4.940411,6.395971,2.468483,0.061641,0.956827
53691,3.628840,-4.096764,7.120648,2.373483,0.218648,0.783777
53692,3.969394,-3.117386,8.221356,2.185914,0.480697,0.571468
53693,4.065186,-1.560700,8.996238,1.734613,0.774580,0.400934
53694,4.023193,0.537071,9.984996,0.870182,1.104680,0.192815
53695,3.659347,1.116011,9.301801,-0.471258,1.372238,0.088740
53696,3.373997,-0.100234,9.337416,-1.713907,1.538507,0.030812
53697,3.637400,-2.027667,9.128955,-2.740926,1.621896,0.018257
53698,3.960906,-4.154804,8.375198,-3.372885,1.674757,0.048322
53699,3.975615,-6.035242,7.269723,-3.725144,1.676443,0.135671
53700,2.301097,-8.674491,4.338456,-3.660150,1.530368,0.309527
53701,0.425885,-11.906183,3.631816,-2.705363,1.169112,0.438225
53702,0.209462,-14.199616,4.469482,-1.045782,0.690183,0.482381
53703,1.530742,-14.041157,5.637816,0.837735,0.218997,0.492415
53704,3.096569,-11.427179,5.809665,2.362951,-0.053197,0.585620
53705,3.155141,-7.805891,6.005247,3.229064,-0.129109,0.676866
53706,2.669114,-4.426622,6.618231,3.418761,-0.126218,0.705474
53707,2.464909,-2.442369,6.996221,3.001335,-0.047137,0.678154
53708,2.407781,-2.241411,7.627942,2.334856,0.134284,0.596388
53709,2.537909,-2.569610,8.390731,1.678945,0.348834,0.486034
53710,2.671893,-2.236080,8.644011,1.020013,0.574850,0.352149
53711,2.610349,-1.169459,9.364909,0.387227,0.814879,0.209912
53712,2.599275,-0.001923,9.987497,-0.491572,1.040136,0.084043
53713,2.775827,-0.271390,9.605734,-1.574052,1.234292,0.063040
53714,2.634438,-2.060110,9.215288,-2.492874,1.384496,0.075005
53715,2.604416,-4.006815,8.447612,-3.073954,1.442467,0.105849
53716,2.228180,-6.496766,6.210202,-3.378451,1.462837,0.191826
53717,0.662396,-10.186665,4.691342,-2.925066,1.352810,0.312022
53718,-0.435945,-14.010747,4.546073,-1.594016,1.045446,0.390139
53719,-0.381580,-16.294197,5.180099,0.602889,0.568683,0.432700
53720,0.780305,-14.179190,5.586816,2.810666,0.099392,0.509647
53721,1.123980,-10.111853,4.931165,4.268716,-0.238272,0.711147
53722,1.060098,-7.176106,5.271827,4.990192,-0.409744,0.906277
53723,1.370245,-6.124754,6.069665,5.296890,-0.498353,1.064317
53724,1.948827,-4.834703,8.207348,5.488773,-0.513380,1.137231
53725,1.941446,-1.994893,9.931845,5.267327,-0.439010,1.164683
53726,1.565426,1.249706,10.669846,4.503512,-0.304681,1.119297
53727,1.339995,2.823707,9.849278,3.124611,-0.050682,0.983820
53728,1.373306,1.786594,8.406684,1.761823,0.250756,0.717498
53729,1.307323,0.579865,8.046105,0.908712,0.518762,0.395622
53730,0.942762,1.303956,9.353836,0.383457,0.717180,0.069694
53731,0.992132,3.276334,11.301294,-0.345443,0.934923,-0.206962
53732,1.654757,4.456889,11.804434,-1.562580,1.110105,-0.323682
53733,1.965229,3.342765,10.848300,-3.024241,1.361298,-0.313595
53734,1.903821,0.358304,9.695739,-4.149848,1.559601,-0.292372
53735,1.127534,-3.185004,7.881989,-4.845007,1.655905,-0.198948
53736,-0.735159,-7.897764,5.422901,-4.834218,1.567378,0.029396
53737,-2.396950,-12.481381,5.175972,-3.715870,1.238225,0.202886
53738,-2.789768,-15.218614,5.941611,-1.564584,0.696152,0.285365
53739,-1.620753,-13.527703,7.085473,0.749808,0.080631,0.349767
53740,-0.502304,-9.508956,6.803349,2.426056,-0.349068,0.524806
53741,-0.689304,-5.894873,7.165129,3.206568,-0.519712,0.646956
53742,-0.722956,-3.763102,8.517344,3.506494,-0.588648,0.686597
53743,-0.810247,-1.872085,9.532111,3.400138,-0.556484,0.620226
53744,-0.992403,0.929834,9.576744,2.865585,-0.588508,0.487611
53745,0.079822,2.004834,8.110876,1.717354,-0.484003,0.324679
53746,0.923473,0.978430,7.252266,0.570674,-0.157668,0.096765
53747,0.250126,0.606595,8.216476,-0.241927,0.149686,-0.202142
53748,-0.618871,1.268781,9.996421,-0.879295,0.389793,-0.554615
53749,-0.406739,2.913198,11.176729,-1.714416,0.546454,-0.854393
53750,0.008159,3.389593,10.415107,-3.004910,0.759530,-1.039436
53751,0.261675,1.135293,9.098966,-4.306792,0.926706,-1.100369
53752,0.453984,-1.916751,7.946354,-5.354083,1.018594,-1.079911
53753,0.381941,-5.773631,6.445166,-6.093067,1.039380,-0.914619
53754,-0.406502,-11.681218,5.473056,-5.890351,1.037937,-0.679617
53755,-1.093668,-18.651703,6.821347,-4.247131,0.938683,-0.489049
53756,-1.504901,-24.218634,6.701713,-0.921072,0.397024,-0.388321
53757,-0.019325,-20.901039,5.625075,3.100185,-0.366088,-0.233378
53758,1.381950,-11.543752,5.818570,5.636071,-0.674739,-0.016324
53759,1.406503,-4.749047,6.272735,6.169956,-0.596205,0.229233
53760,1.126832,-1.161094,7.912085,5.784715,-0.457409,0.457005
53761,0.497564,2.026505,9.481965,4.886801,-0.297941,0.507766
53762,0.042851,4.318247,9.846659,3.532301,-0.159918,0.493490
53763,-0.109783,5.463469,9.129485,1.614148,0.010727,0.522295
53764,0.086604,3.849263,7.038332,-0.537256,0.222857,0.486664
53765,1.564432,0.780406,6.526606,-2.130223,0.544812,0.298081
53766,1.271091,-1.452501,6.698787,-3.130802,0.940576,0.025048
53767,-0.739740,-1.679191,7.796404,-3.677331,1.086034,-0.115499
53768,-0.882864,-1.471100,8.401732,-4.428954,1.090512,-0.120361
53769,-0.065866,-3.047967,8.263397,-5.284742,1.146874,-0.005827
53770,0.003215,-6.327094,7.820377,-5.916912,1.288428,0.219386
53771,-1.455536,-12.678043,7.171160,-5.410111,1.295131,0.463163
53772,-2.600351,-19.016029,5.394545,-3.175177,0.831680,0.634084
53773,-2.344257,-19.801463,4.007096,0.507727,0.051974,0.659650
53774,-1.057419,-14.158280,3.719652,3.661568,-0.585838,0.764914
53775,-0.073110,-7.784665,4.489821,5.463944,-0.766450,0.815765
53776,-0.342145,-2.814818,6.045618,6.048876,-0.694280,0.813083
53777,-0.828979,3.171104,8.059905,5.504220,-0.692709,0.780815
53778,-0.941559,8.137349,8.483004,3.564225,-0.555371,0.716012
53779,-0.554358,7.298248,6.673706,0.870110,-0.186778,0.514910
53780,0.393275,3.423792,6.722188,-1.046220,0.239660,0.154121
53781,-0.277405,1.773316,7.195935,-2.160963,0.537021,-0.254724
53782,-1.246239,3.405483,8.240899,-3.121989,0.680441,-0.555857
53783,-0.456311,4.384422,9.256323,-4.594090,0.871534,-0.687035
53784,0.924731,2.070022,7.499256,-6.142271,1.111048,-0.692067
53785,1.186818,-1.581927,5.486100,-7.443557,1.357753,-0.627429
53786,-0.756670,-9.298034,1.148421,-7.903426,1.515019,-0.303732
53787,-3.945462,-19.062861,2.464255,-6.044310,1.341291,-0.103499
53788,-5.015351,-25.433593,3.435481,-2.281586,0.491623,-0.134908
53789,-2.103215,-21.734232,3.659687,2.291789,-0.548597,-0.094714
53790,-0.205675,-12.476277,3.781990,5.176097,-0.945944,0.069702
53791,-0.082109,-5.919206,4.585863,6.199905,-0.982353,0.240513
53792,-0.456083,-2.127863,5.167549,6.046003,-0.967566,0.362395
53793,-0.863456,1.240929,6.102884,5.215398,-0.950942,0.360685
53794,-0.589336,2.935197,7.709418,3.819070,-0.781660,0.263893
53795,-0.451309,1.743297,7.451882,2.209506,-0.518724,0.147312
53796,-0.692049,0.947921,8.396161,0.925374,-0.231475,-0.092402
53797,-0.777033,1.477670,9.499513,-0.293389,0.020559,-0.437923
53798,-0.696177,1.478574,8.774209,-1.639362,0.216915,-0.643222
53799,-0.784065,-0.250564,8.624826,-2.757298,0.375785,-0.740315
53800,0.162902,-2.992346,8.671039,-3.556428,0.469518,-0.787351
53801,1.129114,-5.368766,7.374309,-4.066368,0.512453,-0.718096
53802,-0.465607,-9.010234,4.952152,-4.036543,0.563721,-0.500846
53803,-2.355861,-14.050412,4.354430,-2.894748,0.366071,-0.320265
53804,-2.755007,-17.621058,4.212828,-0.503906,-0.134857,-0.254272
53805,-1.228729,-15.172439,5.659716,2.298023,-0.705076,-0.196586
53806,0.230607,-8.641151,6.742917,4.018889,-0.960915,-0.093509
53807,0.281975,-3.154678,7.326137,4.326243,-0.950759,0.016617
53808,-0.041689,-0.036458,7.937590,3.676744,-0.852896,0.069540
53809,-0.133732,0.379807,8.266954,2.558254,-0.717798,0.013573
53810,0.035195,-0.740663,8.143834,1.481093,-0.547906,-0.113433
53811,0.136319,-1.096422,8.732029,0.556960,-0.346293,-0.280009
53812,0.187607,-0.478028,8.705413,-0.439198,-0.169772,-0.472960
53813,-0.009900,-0.727326,8.565148,-1.485251,0.021844,-0.649799
53814,0.175396,-1.689564,8.963669,-2.360482,0.134489,-0.781175
53815,0.751040,-3.279844,8.232653,-3.156016,0.222852,-0.834918
53816,0.060331,-6.257369,5.859898,-3.681628,0.245088,-0.718434
53817,-1.876151,-10.419344,4.735778,-3.357744,0.117183,-0.576463
53818,-2.746608,-14.533082,5.309171,-1.910133,-0.204843,-0.524292
53819,-1.726514,-16.146055,6.554586,0.404461,-0.687080,-0.507055
53820,0.639375,-13.334850,7.287796,2.572780,-1.101450,-0.417969
53821,1.372024,-8.617284,6.719801,3.739180,-1.305602,-0.202076
53822,1.262033,-5.782709,6.157706,3.953941,-1.373930,0.036505
53823,0.898075,-4.868325,7.266982,3.815162,-1.345966,0.158790
53824,0.072646,-4.117146,9.063944,3.544536,-1.307135,0.176668
53825,0.047341,-2.277573,10.899553,3.119200,-1.264582,0.105158
53826,0.634149,-0.099240,11.704555,2.188273,-1.065710,-0.029568
53827,0.781311,0.618348,11.228850,0.987559,-0.711729,-0.186322
53828,0.808598,0.939892,10.904403,-0.175700,-0.359335,-0.453241
53829,0.814491,0.580663,9.785666,-1.296981,-0.053598,-0.729993
53830,0.629827,-0.492747,9.574024,-2.228997,0.194820,-0.896949
53831,0.476351,-2.570559,8.969810,-3.054646,0.321245,-0.969133
53832,-0.228787,-5.876125,7.370334,-3.497893,0.339288,-0.883395
53833,-1.152780,-9.714893,6.887900,-3.215649,0.182514,-0.810077
53834,-0.617770,-11.995572,7.750090,-2.196021,-0.115484,-0.789401
53835,0.436127,-12.369514,8.366933,-0.857995,-0.438642,-0.733447
53836,1.199688,-10.888814,8.445148,0.475664,-0.710969,-0.621706
53837,1.394520,-8.652600,8.340758,1.381704,-0.863309,-0.504952
53838,1.391406,-7.107733,7.740446,1.806399,-0.944418,-0.386839
53839,1.551831,-6.167415,7.207228,1.940229,-1.031051,-0.276460
53840,1.865315,-5.155939,7.854491,1.871472,-1.056116,-0.219121
53841,2.094693,-4.262600,8.551095,1.583645,-1.008650,-0.190533
53842,2.171046,-3.257496,9.044316,1.117667,-0.894215,-0.198574
53843,2.221536,-2.506710,9.075071,0.492322,-0.699765,-0.251837
53844,2.141796,-2.049646,8.597112,-0.210615,-0.464865,-0.353256
53845,2.059049,-2.453516,7.671113,-0.838388,-0.227425,-0.485890
53846,1.861420,-3.438040,7.410073,-1.271455,-0.018304,-0.630685
53847,1.953001,-4.573018,7.567833,-1.522039,0.083311,-0.736141
53848,1.955611,-5.449679,7.113882,-1.708877,0.090793,-0.743654
53849,1.384518,-6.373717,6.577254,-1.840721,0.017039,-0.682431
53850,0.797193,-7.515287,5.818724,-1.855700,-0.188037,-0.580875
53851,0.291904,-9.649561,5.390809,-1.458362,-0.444781,-0.475264
53852,1.037615,-11.296029,6.269180,-0.434627,-0.792711,-0.431492
53853,2.581435,-11.080529,6.815256,0.745757,-1.114669,-0.380566
53854,3.482251,-9.369373,6.808537,1.723563,-1.313825,-0.271111
53855,3.406434,-6.957984,7.659351,2.267966,-1.369797,-0.135882
53856,3.074843,-4.979335,8.501623,2.289793,-1.335527,-0.051636
53857,2.735485,-3.872535,8.589200,1.981560,-1.261016,-0.029997
53858,2.484579,-3.289787,8.546165,1.532317,-1.141883,-0.068901
53859,2.484820,-2.897106,8.624350,1.018133,-0.977560,-0.139988
53860,2.608029,-2.289606,8.680025,0.427246,-0.747805,-0.257200
53861,2.484995,-1.846418,8.564443,-0.217736,-0.504517,-0.415667
53862,2.338629,-2.041181,8.387246,-0.835730,-0.286461,-0.582429
53863,2.464733,-2.849211,8.455725,-1.343684,-0.131591,-0.724105
53864,3.023336,-3.851044,8.731845,-1.696970,-0.023480,-0.823174
53865,3.608240,-4.690505,8.588719,-2.006568,0.047733,-0.865167
53866,3.618235,-5.670040,7.360730,-2.307442,0.060775,-0.821906
53867,2.374503,-7.418196,5.008448,-2.460358,-0.061504,-0.673504
53868,1.289608,-9.620717,4.834675,-2.012673,-0.330962,-0.562884
53869,1.914499,-11.439729,5.778129,-1.032629,-0.672620,-0.530120
53870,3.247716,-11.575959,7.145148,0.264014,-0.988190,-0.485560
53871,4.230682,-9.909660,7.628873,1.364696,-1.217495,-0.389639
53872,4.633388,-7.513185,7.902162,2.069299,-1.322592,-0.254359
53873,4.566785,-5.214590,8.343547,2.229784,-1.301049,-0.137991
53874,3.961365,-3.649996,8.652717,2.006555,-1.211859,-0.088189
53875,3.495743,-3.102493,8.347035,1.545967,-1.146560,-0.115397
53876,3.591833,-2.976490,8.381924,1.109693,-1.033049,-0.188242
53877,3.857768,-2.562857,8.628924,0.611046,-0.832510,-0.301997
53878,4.062248,-1.940777,8.716226,0.054429,-0.626348,-0.461075
53879,3.958452,-1.578299,8.241162,-0.586716,-0.415133,-0.622467
53880,3.880900,-2.002651,8.114193,-1.168737,-0.238634,-0.761560
53881,4.172519,-3.017044,8.278791,-1.597892,-0.124828,-0.873408
53882,4.462077,-4.246389,7.756984,-1.920675,-0.064764,-0.911855
53883,3.563139,-6.244853,5.660530,-2.128568,-0.128414,-0.815635
53884,2.578662,-8.645562,4.763104,-1.807682,-0.346301,-0.701359
53885,2.479903,-11.612432,4.031863,-0.799070,-0.641684,-0.643330
53886,3.888257,-12.383012,6.226231,0.876294,-0.969117,-0.643059
53887,5.920971,-10.740877,7.575655,2.366607,-1.203980,-0.600895
53888,6.995178,-8.173083,7.164077,3.260349,-1.366613,-0.411916
53889,6.865476,-6.134929,6.301114,3.598816,-1.431135,-0.147841
53890,6.305450,-4.894282,5.865753,3.534885,-1.475641,0.067125
53891,6.046604,-3.822425,5.886929,3.364111,-1.566797,0.202360
53892,6.148240,-2.220227,7.261804,3.129474,-1.585649,0.237238
53893,6.315720,0.235730,9.666326,2.663505,-1.429698,0.185591
53894,5.585168,1.669194,10.289414,1.699947,-1.182580,0.139607
53895,5.086613,1.759003,10.096081,0.703927,-0.911244,-0.015070
53896,4.644284,1.322966,8.991063,-0.308818,-0.629250,-0.294333
53897,4.325704,0.819410,7.747578,-1.175600,-0.438027,-0.602869
53898,4.550198,0.379933,7.601881,-1.850368,-0.295364,-0.920629
53899,5.404748,-0.473749,7.813541,-2.384318,-0.189094,-1.162904
53900,5.957414,-2.271986,7.058976,-2.885141,-0.110190,-1.193087
53901,5.974849,-4.776330,6.408821,-3.039570,-0.135917,-1.099472
53902,5.815363,-7.356809,5.539345,-2.828360,-0.269156,-0.946191
53903,5.671029,-9.615849,5.067136,-2.081091,-0.496521,-0.778678
53904,5.907798,-10.802944,5.718382,-0.829854,-0.789794,-0.633365
53905,7.210958,-9.668388,7.740983,0.630125,-1.035822,-0.517058
53906,8.274597,-6.984127,8.887658,1.648427,-1.129726,-0.389449
53907,8.102452,-4.780372,8.172520,2.079388,-1.131888,-0.204807
53908,7.358570,-3.644439,7.158054,2.108376,-1.118218,-0.044153
53909,6.866968,-2.621572,7.175943,1.944505,-1.117877,0.024125
53910,6.598945,-1.974413,7.181612,1.569529,-1.095272,0.006630
53911,6.761132,-1.298857,7.889470,1.128499,-1.008545,-0.081774
53912,6.791944,-0.697299,8.314432,0.504651,-0.786053,-0.229686
53913,6.507024,-0.266157,8.066201,-0.222664,-0.541279,-0.417742
53914,5.962789,-0.169812,6.704305,-1.002066,-0.320681,-0.637865
53915,5.398154,-0.741197,5.733242,-1.656572,-0.175925,-0.863502
53916,5.783405,-2.380007,5.785801,-2.012427,-0.085940,-1.057592
53917,6.814550,-4.270907,6.271605,-2.040561,-0.016094,-1.174230
53918,7.673734,-5.490007,6.328314,-1.869924,0.010878,-1.176428
53919,7.874431,-6.294077,5.645390,-1.681463,-0.012374,-1.068228
53920,7.186971,-7.488627,3.704218,-1.556005,-0.137068,-0.824960
53921,6.100938,-9.677826,2.432526,-0.997899,-0.385701,-0.523514
53922,6.741122,-10.698267,3.970005,0.264286,-0.714825,-0.348440
53923,8.600949,-8.728694,7.121457,1.672997,-0.900383,-0.231917
53924,9.362009,-5.488613,8.151947,2.538607,-0.953684,-0.045426
53925,8.785853,-2.814739,7.499882,2.722472,-0.931295,0.202461
53926,7.785423,-1.339525,7.056926,2.503228,-0.843994,0.353933
53927,6.857567,-0.316089,7.176386,2.125120,-0.779131,0.334424
53928,6.163294,0.845189,7.167705,1.550518,-0.773014,0.187781
53929,5.779529,1.593907,6.786404,0.727126,-0.750188,0.015992
53930,5.937040,1.056604,6.255924,-0.272986,-0.668824,-0.220052
53931,6.064202,-0.176034,5.256966,-1.195708,-0.552248,-0.504979
53932,6.022487,-1.041608,4.716646,-1.742783,-0.501849,-0.812684
53933,6.231522,-1.224855,5.032536,-2.046599,-0.477616,-1.109364
53934,6.569268,-1.201240,5.343692,-2.265133,-0.472839,-1.302755
53935,6.962452,-0.103521,5.582706,-2.574102,-0.544088,-1.420968
53936,7.602656,0.007383,5.550312,-3.098459,-0.554190,-1.478232
53937,8.638396,-0.988701,5.600780,-3.612017,-0.475840,-1.518089
53938,9.198780,-2.598542,4.941146,-4.018787,-0.409933,-1.506294
53939,9.409786,-4.034904,3.561918,-4.331292,-0.397860,-1.421234
53940,9.010859,-6.088111,2.013495,-4.190427,-0.433808,-1.258203
53941,8.918861,-7.760342,2.320095,-3.433868,-0.543107,-1.143693
53942,9.296554,-9.078662,3.204297,-2.291718,-0.666140,-1.004731
53943,9.953018,-9.616822,4.173597,-0.791381,-0.773891,-0.891829
53944,10.006851,-8.503415,4.493991,0.612588,-0.849055,-0.758367
53945,9.420408,-6.771125,4.054414,1.676869,-0.906085,-0.598751
53946,8.506206,-5.508778,3.339764,2.439186,-0.947489,-0.487233
53947,8.021736,-4.246931,3.271353,2.962637,-1.007198,-0.442598
53948,8.083304,-2.749531,3.777743,3.200929,-1.049764,-0.435914
53949,8.480170,-0.671944,5.248750,3.183451,-1.005870,-0.502487
53950,8.663831,1.271590,6.323533,2.503291,-0.909125,-0.561151
53951,8.661887,1.652676,5.952267,1.380624,-0.786343,-0.576707
53952,8.544222,1.344423,5.181522,0.142832,-0.620200,-0.687367
53953,7.862613,1.006455,3.753964,-1.081157,-0.522394,-0.823207
53954,7.590949,0.652476,3.229154,-2.027154,-0.502397,-0.985222
53955,8.229960,-0.681375,3.387821,-2.591782,-0.470969,-1.107702
53956,8.849182,-3.221511,2.855599,-2.690338,-0.437717,-1.092046
53957,9.107799,-5.515045,3.156335,-2.206300,-0.509847,-0.980577
53958,9.107395,-7.786594,2.598772,-1.362804,-0.606611,-0.807749
53959,9.207144,-9.715899,3.447355,0.290028,-0.726265,-0.697660
53960,9.936118,-8.526273,5.464559,1.993325,-0.846126,-0.622951
53961,10.168108,-5.685793,5.026196,3.155807,-0.925469,-0.484318
53962,9.970344,-2.945565,4.295640,3.678194,-0.960345,-0.288936
53963,9.843187,-1.371238,3.885098,3.633639,-0.946403,-0.122195
53964,9.682909,-0.679480,3.669126,3.220067,-0.921574,-0.062725
53965,9.476130,0.100076,3.570441,2.699425,-0.905709,-0.130122
53966,9.441059,0.449638,4.012549,2.074287,-0.860603,-0.207724
53967,9.904943,0.865379,5.041941,1.518603,-0.759586,-0.284659
53968,10.041254,1.719093,5.662928,0.811855,-0.623207,-0.342020
53969,9.700608,1.631617,4.958609,-0.052020,-0.492423,-0.351333
53970,9.327045,0.515595,4.505691,-0.728454,-0.366203,-0.390692
53971,9.221973,-0.786535,4.086554,-1.075631,-0.282397,-0.459685
53972,9.059260,-1.591994,3.674962,-1.192502,-0.209287,-0.516599
53973,8.980875,-2.163764,3.520786,-1.141778,-0.196736,-0.523493
53974,9.099928,-2.646950,3.380593,-0.979057,-0.179221,-0.494411
53975,9.239118,-2.858415,3.481714,-0.694606,-0.174267,-0.484122
53976,9.540822,-2.825185,3.440808,-0.420194,-0.177258,-0.449482
53977,9.581867,-2.507419,3.491713,-0.188893,-0.168752,-0.387386
53978,9.628832,-2.186141,3.476584,-0.054220,-0.163981,-0.308286
53979,9.696774,-2.140388,3.354976,0.037813,-0.148984,-0.237848
53980,9.785819,-2.038085,3.365848,0.146098,-0.146150,-0.180649
53981,9.788692,-1.660923,3.497016,0.195608,-0.131645,-0.137282
53982,9.817223,-1.453722,3.484312,0.184435,-0.112471,-0.092320
53983,9.784019,-1.382233,3.400514,0.124445,-0.092209,-0.044150
53984,9.634827,-1.302769,3.220886,0.061717,-0.081627,-0.009486
53985,9.515236,-1.198763,3.096030,0.005663,-0.076596,0.007355
53986,9.323667,-1.073589,2.954570,-0.039859,-0.079187,0.011605
53987,9.194520,-0.976255,2.901248,-0.074772,-0.089751,-0.003734
53988,9.174069,-1.081284,2.916380,-0.087251,-0.102403,-0.019347
53989,9.163273,-1.181658,2.857753,-0.084222,-0.111506,-0.029423
53990,9.178179,-1.292957,2.965255,-0.066973,-0.116373,-0.035715
53991,9.215289,-1.432825,2.967182,-0.037151,-0.113769,-0.045804
53992,9.264064,-1.519120,2.957469,0.001100,-0.108536,-0.049179
53993,9.323043,-1.467050,2.956930,0.022111,-0.103992,-0.045270
53994,9.414989,-1.365647,2.955357,0.006384,-0.093613,-0.039556
53995,9.438634,-1.280021,2.978074,-0.051062,-0.084463,-0.024372
53996,9.555067,-1.237335,2.969356,-0.128923,-0.063005,-0.012323
53997,9.563722,-1.231590,3.061779,-0.229063,-0.046457,0.000543
53998,9.597886,-1.191264,3.053753,-0.328965,-0.019189,0.016527
53999,9.624900,-1.139403,3.063357,-0.454957,-0.004814,0.035670
54000,9.643424,-1.196477,3.066134,-0.575843,0.018697,0.058471
54001,9.562149,-1.301511,3.037685,-0.688255,0.034174,0.081540
54002,9.511008,-1.383893,3.063414,-0.780570,0.052780,0.104253
54003,9.533135,-1.473087,3.047373,-0.858530,0.059360,0.125135
54004,9.491879,-1.513022,3.060822,-0.930118,0.076573,0.157756
54005,9.477810,-1.576753,3.067090,-0.992369,0.083228,0.180962
54006,9.453929,-1.662696,3.085641,-1.046594,0.093548,0.197583
54007,9.447443,-1.715299,3.076705,-1.083650,0.097959,0.221101
54008,9.462089,-1.774298,3.077574,-1.116232,0.103447,0.239380
54009,9.448176,-1.817210,3.085301,-1.143292,0.108566,0.255483
54010,9.387238,-1.888770,3.065703,-1.163000,0.109638,0.269818
54011,9.341399,-1.957155,3.014145,-1.166598,0.106582,0.282921
54012,9.298157,-2.066941,2.996003,-1.145344,0.107796,0.282073
54013,9.276027,-2.180033,2.987118,-1.100270,0.107271,0.292243
54014,9.259513,-2.305650,2.958661,-1.028824,0.105097,0.285868
54015,9.218889,-2.383907,2.826960,-0.935354,0.103137,0.285864
54016,9.221266,-2.462758,2.776886,-0.830763,0.101937,0.280615
54017,9.211567,-2.509583,2.767132,-0.711841,0.102533,0.271599
54018,9.274586,-2.503468,2.748312,-0.590678,0.101976,0.257361
54019,9.269714,-2.386603,2.698227,-0.490595,0.104373,0.249636
54020,9.257448,-2.330035,2.693901,-0.413371,0.106380,0.235217
54021,9.308670,-2.242269,2.691435,-0.365055,0.107440,0.228189
54022,9.272058,-2.208614,2.671608,-0.328011,0.106991,0.217077
54023,9.272808,-2.170665,2.692883,-0.297056,0.104892,0.208704
54024,9.307339,-2.163637,2.685758,-0.280059,0.098010,0.198968
54025,9.325080,-2.117162,2.677888,-0.274186,0.099753,0.196259
54026,9.328672,-2.122777,2.670828,-0.265805,0.090020,0.191408
54027,9.342847,-2.108264,2.653249,-0.263991,0.087179,0.190331
54028,9.358748,-2.139341,2.606403,-0.250806,0.085213,0.187715
54029,9.331315,-2.157447,2.598237,-0.242652,0.075073,0.189816
54030,9.331255,-2.194165,2.580144,-0.228970,0.070262,0.185736
54031,9.340585,-2.164484,2.581501,-0.211407,0.062175,0.180953
54032,9.342225,-2.245308,2.533092,-0.193157,0.057281,0.180047
54033,9.305113,-2.279649,2.533604,-0.164637,0.052384,0.169528
54034,9.300074,-2.298708,2.534883,-0.120722,0.045334,0.162494
54035,9.290653,-2.302720,2.496723,-0.083903,0.043742,0.149167
54036,9.259316,-2.298384,2.508479,-0.040980,0.036153,0.139739
54037,9.297871,-2.278656,2.502068,-0.006302,0.032194,0.133545
54038,9.262298,-2.303596,2.504447,0.025999,0.028759,0.123287
54039,9.322698,-2.287090,2.509180,0.056416,0.023407,0.113178
54040,9.345386,-2.178202,2.533313,0.072867,0.019583,0.106942
54041,9.311252,-2.153323,2.506134,0.075702,0.017681,0.097598
54042,9.303075,-2.147180,2.528943,0.065641,0.013865,0.088620
54043,9.327846,-2.173113,2.521831,0.054997,0.007181,0.081454
54044,9.310033,-2.139583,2.523322,0.056969,0.006956,0.069170
54045,9.307786,-2.189878,2.555229,0.043894,0.011407,0.058542
54046,9.274462,-2.206809,2.556163,0.044710,0.001913,0.049685
54047,9.263114,-2.275052,2.537415,0.054575,0.001121,0.041366
54048,9.235599,-2.257063,2.547816,0.062734,-0.006866,0.026559
54049,9.224414,-2.276756,2.558508,0.075321,-0.007851,0.015337
54050,9.218665,-2.262603,2.579236,0.086681,-0.011023,0.007948
54051,9.176175,-2.292618,2.589260,0.094344,-0.016594,-0.011075
54052,9.203313,-2.262577,2.609871,0.100016,-0.025425,-0.018005
54053,9.200029,-2.244891,2.569840,0.095796,-0.021867,-0.033671
54054,9.164410,-2.284470,2.559463,0.092692,-0.024944,-0.047314
54055,9.144007,-2.270229,2.608425,0.092570,-0.029233,-0.058897
54056,9.205097,-2.268315,2.599031,0.093653,-0.031347,-0.074318
54057,9.218071,-2.284450,2.618427,0.086329,-0.035410,-0.086173
54058,9.263928,-2.332719,2.608752,0.081325,-0.032939,-0.093585
54059,9.267151,-2.321538,2.607280,0.073592,-0.037739,-0.104153
54060,9.249382,-2.303574,2.595180,0.074129,-0.034859,-0.105984
54061,9.326728,-2.336146,2.645333,0.060663,-0.034762,-0.115519
54062,9.288759,-2.357542,2.593491,0.058090,-0.032421,-0.113164
54063,9.297037,-2.357845,2.631872,0.058470,-0.035200,-0.114623
54064,9.285214,-2.352966,2.599872,0.052327,-0.034530,-0.112491
