// Start Time: Unknown
// Update Rate: 100.0Hz
// Filter Profile: human (46.1)
// Firmware Version: 4.3.5
PacketCounter,Acc_X,Acc_Y,Acc_Z,Gyr_X,Gyr_Y,Gyr_Z
42702,9.640081,-1.533529,1.581247,-0.014156,0.020279,-0.024950
42703,9.619125,-1.572556,1.554014,-0.002978,0.013926,-0.025971
42704,9.632050,-1.538774,1.604751,0.009620,0.013534,-0.025378
42705,9.610220,-1.555421,1.588008,0.019106,0.014837,-0.024959
42706,9.618725,-1.542527,1.569058,0.033306,0.011335,-0.024784
42707,9.650187,-1.532023,1.558212,0.040489,0.015318,-0.028938
42708,9.656823,-1.474350,1.560305,0.034385,0.012650,-0.030646
42709,9.665418,-1.460449,1.541632,0.032592,0.017495,-0.037814
42710,9.678406,-1.424462,1.593098,0.021920,0.018658,-0.049011
42711,9.688149,-1.431425,1.564036,0.001648,0.017964,-0.051240
42712,9.633351,-1.486255,1.630085,-0.015673,0.023141,-0.051604
42713,9.599291,-1.609839,1.613002,-0.023603,0.015143,-0.043730
42714,9.660151,-1.733775,1.546843,-0.011720,0.009254,-0.039743
42715,9.733582,-1.749714,1.480407,0.000420,-0.001389,-0.028846
42716,9.851924,-1.562618,1.501226,-0.006081,-0.023209,-0.030219
42717,9.865364,-1.451124,1.497877,-0.040014,-0.044658,-0.038049
42718,9.727492,-1.432440,1.674387,-0.077769,-0.064860,-0.051046
42719,9.574658,-1.773407,1.925628,-0.089045,-0.070915,-0.086241
42720,9.464542,-2.060512,2.074003,-0.056716,-0.058138,-0.123604
42721,9.400095,-2.358648,2.090652,0.021396,-0.035541,-0.158478
42722,9.285924,-2.613895,2.197116,0.128722,-0.012941,-0.188156
42723,9.158120,-2.851893,2.280755,0.263465,0.002901,-0.203401
42724,9.181244,-3.068523,2.468606,0.413971,0.037092,-0.208522
42725,9.285500,-3.201262,2.678635,0.549918,0.067341,-0.187017
42726,9.504524,-3.221262,2.966761,0.660090,0.103535,-0.146624
42727,9.786804,-3.093977,3.184632,0.703234,0.144430,-0.087117
42728,9.914829,-2.847145,3.347204,0.664523,0.192313,-0.004441
42729,9.902402,-2.763737,3.413962,0.550785,0.224213,0.089618
42730,9.935573,-2.834118,3.378686,0.410421,0.245472,0.190611
42731,9.900225,-3.108047,3.403428,0.283457,0.266148,0.287322
42732,9.940164,-3.603278,3.368972,0.207014,0.285306,0.375355
42733,10.018892,-4.039180,3.301491,0.200728,0.303119,0.468076
42734,10.128473,-4.256231,3.268319,0.247867,0.326915,0.545107
42735,10.246551,-4.302147,3.324067,0.303325,0.357748,0.610968
42736,10.300183,-4.315306,3.348735,0.336659,0.397153,0.668037
42737,10.389095,-4.416207,3.390036,0.348837,0.433605,0.718836
42738,10.444232,-4.620147,3.413536,0.358977,0.474673,0.771693
42739,10.354328,-4.931485,3.426891,0.401869,0.514890,0.826197
42740,10.303434,-5.182194,3.352797,0.457924,0.555699,0.885182
42741,10.331502,-5.177547,3.428252,0.534315,0.582740,0.965014
42742,10.407061,-5.090669,3.482767,0.592703,0.611868,1.038526
42743,10.403836,-5.031516,3.525668,0.625823,0.628815,1.107785
42744,10.444329,-5.115881,3.659456,0.643915,0.635745,1.176913
42745,10.485508,-5.425090,3.755135,0.678345,0.651834,1.237172
42746,10.470217,-5.759901,3.773059,0.755690,0.677156,1.297944
42747,10.459568,-5.750630,3.920673,0.861786,0.716397,1.333164
42748,10.416169,-5.673618,4.110482,0.936866,0.763851,1.380203
42749,10.286821,-5.531567,4.278905,0.973974,0.825047,1.429853
42750,10.276722,-5.312550,4.249509,0.962438,0.876863,1.473965
42751,10.485477,-4.997774,4.398769,0.868173,0.926468,1.517046
42752,10.623552,-4.791961,4.536112,0.699544,0.967308,1.561054
42753,10.627082,-5.000728,4.410515,0.496837,0.987894,1.611417
42754,10.446626,-5.737091,4.182176,0.383059,0.997935,1.664755
42755,10.260539,-6.733891,3.947937,0.454400,1.004196,1.718319
42756,10.401517,-7.432085,3.842499,0.691330,1.007707,1.775468
42757,10.604109,-7.558626,3.856934,0.993181,1.029790,1.838386
42758,10.787686,-7.147408,4.082116,1.232589,1.068201,1.896367
42759,10.938011,-6.416363,4.380236,1.329822,1.109308,1.960952
42760,10.978963,-5.784512,4.627110,1.271427,1.164980,2.012006
42761,10.875830,-5.395655,4.692036,1.126459,1.196095,2.063122
42762,10.771428,-5.243342,4.722134,0.952276,1.219638,2.104489
42763,10.529990,-5.440395,4.689187,0.801233,1.241151,2.147707
42764,10.336640,-5.877317,4.571940,0.693252,1.240258,2.195952
42765,10.176559,-6.277203,4.425031,0.665375,1.234166,2.246517
42766,10.036231,-6.583456,4.266082,0.720338,1.219644,2.291738
42767,9.949802,-6.825310,4.320839,0.840167,1.192094,2.334296
42768,9.965953,-6.878473,4.424890,0.963864,1.192196,2.374539
42769,9.921065,-6.729992,4.314246,1.085726,1.189674,2.410920
42770,9.834276,-6.459358,4.227777,1.181124,1.173474,2.451803
42771,9.634578,-6.196983,4.181881,1.215397,1.173169,2.491106
42772,9.349682,-5.992785,4.108127,1.199438,1.137373,2.530740
42773,9.145824,-5.926236,4.126448,1.147006,1.103965,2.575967
42774,8.773832,-6.011292,3.938406,1.116199,1.051796,2.625289
42775,8.565462,-6.345840,4.010247,1.191666,1.007572,2.644246
42776,8.255073,-6.528268,3.738052,1.267056,0.918597,2.682965
42777,8.245281,-6.221577,3.789257,1.379286,0.853574,2.705181
42778,8.019873,-6.050017,3.806150,1.439324,0.799893,2.719708
42779,7.763872,-5.949235,3.731046,1.480827,0.722576,2.759466
42780,7.655076,-6.126427,3.783225,1.520120,0.665367,2.807686
42781,7.556187,-6.386641,3.875097,1.596468,0.614755,2.853099
42782,7.404183,-6.521891,4.035315,1.698842,0.561138,2.904440
42783,7.160803,-6.138008,4.162450,1.774954,0.496690,2.954176
42784,6.963374,-5.792771,4.206019,1.771629,0.431459,3.007324
42785,6.787302,-5.754835,4.183253,1.715549,0.365719,3.060607
42786,6.606617,-5.785694,4.207585,1.694232,0.298476,3.111168
42787,6.480970,-5.885227,4.314316,1.668278,0.236205,3.160765
42788,6.211466,-5.957770,4.280438,1.656705,0.191239,3.217325
42789,6.070435,-5.837619,4.321131,1.648712,0.123633,3.262953
42790,5.877274,-5.716925,4.428630,1.623207,0.070905,3.305221
42791,5.622985,-5.746017,4.529402,1.597012,0.017979,3.335746
42792,5.422479,-5.941769,4.695726,1.613117,-0.034798,3.367776
42793,5.228392,-6.005543,4.889412,1.650653,-0.081098,3.392998
42794,5.027381,-5.888469,5.051028,1.679896,-0.118382,3.423166
42795,4.700890,-5.477402,5.278324,1.621463,-0.164562,3.460089
42796,4.422904,-4.782463,5.594135,1.411268,-0.222157,3.520705
42797,4.245209,-4.084344,5.731255,1.054610,-0.285348,3.588016
42798,4.024689,-3.855945,5.826367,0.643698,-0.354895,3.643686
42799,3.703921,-4.393083,5.824184,0.304591,-0.426337,3.673386
42800,3.371547,-5.660571,5.691274,0.227985,-0.480554,3.673379
42801,3.062327,-6.946405,5.535499,0.443508,-0.535915,3.646738
42802,2.970720,-7.598619,5.411065,0.945613,-0.549850,3.609067
42803,2.898764,-7.302896,5.523003,1.549991,-0.535235,3.566242
42804,2.852630,-6.168836,5.693000,2.041537,-0.512354,3.535086
42805,2.812887,-4.726683,5.825632,2.276519,-0.495004,3.527828
42806,2.792927,-3.403972,6.021030,2.240849,-0.488365,3.531734
42807,2.565361,-2.563341,6.284515,2.002370,-0.488205,3.533691
42808,2.191946,-2.085525,6.490079,1.693223,-0.519955,3.531431
42809,1.778406,-2.140482,6.723601,1.397908,-0.570205,3.514971
42810,1.554649,-2.432680,6.867638,1.190010,-0.640597,3.490428
42811,1.617129,-2.757339,6.880367,1.057043,-0.681376,3.464564
42812,1.753663,-2.828397,6.885169,0.966608,-0.716423,3.450421
42813,1.677746,-2.436558,6.826791,0.908753,-0.742523,3.424684
42814,1.411032,-1.997790,6.914639,0.801078,-0.805805,3.390041
42815,1.161108,-1.623558,7.003764,0.659630,-0.881097,3.352234
42816,0.948898,-1.467669,7.259050,0.507948,-0.949982,3.306217
42817,0.834860,-1.515070,7.481253,0.387771,-1.037247,3.250490
42818,0.811818,-1.440199,7.601467,0.257884,-1.086625,3.187346
42819,0.737926,-0.899468,7.438663,0.083001,-1.130514,3.131583
42820,0.605903,-0.035431,7.114014,-0.169907,-1.227599,3.057563
42821,0.677856,0.626796,7.036427,-0.513131,-1.330773,2.986922
42822,0.574356,0.513275,7.166822,-0.890167,-1.426726,2.912523
42823,0.344175,-0.421599,7.596772,-1.152665,-1.517595,2.828944
42824,0.190830,-1.818916,7.840470,-1.216183,-1.591865,2.725684
42825,0.342492,-3.094271,8.026825,-0.999463,-1.630218,2.631605
42826,0.746660,-4.026174,8.057036,-0.624568,-1.661331,2.528895
42827,1.270154,-4.166340,7.905080,-0.165742,-1.665628,2.451488
42828,1.621639,-3.870762,7.974860,0.260451,-1.622970,2.380526
42829,1.625596,-3.249403,8.156726,0.564513,-1.550683,2.319024
42830,1.522585,-2.284948,8.627536,0.749452,-1.469264,2.253222
42831,1.565328,-1.333157,9.351413,0.730859,-1.392066,2.189055
42832,1.783689,-0.669885,9.710300,0.564014,-1.303405,2.134018
42833,1.942494,-0.432576,9.967170,0.278472,-1.208067,2.076411
42834,1.942968,-0.752219,9.971815,-0.042273,-1.138591,2.035476
42835,1.826661,-1.231996,9.870440,-0.242260,-1.080099,1.981911
42836,1.645998,-1.795229,9.855990,-0.334797,-1.022013,1.916089
42837,1.522633,-2.473716,9.546830,-0.369396,-0.952390,1.863710
42838,1.516762,-3.024567,9.302627,-0.310251,-0.895681,1.813449
42839,1.515049,-3.157400,9.203971,-0.238378,-0.854544,1.765004
42840,1.521565,-2.798214,9.260903,-0.190222,-0.829201,1.711447
42841,1.323481,-2.440490,9.657429,-0.195401,-0.795436,1.653396
42842,1.097991,-2.446825,9.790994,-0.241950,-0.773270,1.613794
42843,0.857026,-2.589436,9.634672,-0.257083,-0.780878,1.562242
42844,0.765229,-2.546794,9.385674,-0.246803,-0.779179,1.497084
42845,0.614172,-2.197666,9.033388,-0.281172,-0.786241,1.429246
42846,0.400770,-1.477672,9.071027,-0.387781,-0.822372,1.341910
42847,0.381007,-0.928641,9.578029,-0.591987,-0.868197,1.247689
42848,0.578150,-1.081873,10.321364,-0.819826,-0.905112,1.148008
42849,0.847571,-1.813028,10.769418,-0.959787,-0.931024,1.046097
42850,1.006455,-2.681578,11.003183,-0.905167,-0.882841,0.946340
42851,0.927729,-3.144071,11.054586,-0.686366,-0.791436,0.809142
42852,0.820278,-2.747728,11.104243,-0.384154,-0.685947,0.652652
42853,0.958213,-1.577554,11.390300,-0.216501,-0.553728,0.473551
42854,1.224374,-0.617578,11.627005,-0.272904,-0.418593,0.309815
42855,1.459659,-0.091601,11.831252,-0.479592,-0.254640,0.141774
42856,1.444879,-0.439100,11.751256,-0.710584,-0.095096,-0.025331
42857,1.454459,-1.366572,11.417530,-0.795749,0.053168,-0.196449
42858,1.509352,-2.284027,11.114574,-0.640173,0.195555,-0.396066
42859,1.623577,-3.007059,10.992267,-0.289825,0.332734,-0.617015
42860,1.790634,-3.283759,10.795484,0.155649,0.455805,-0.834425
42861,1.922514,-2.663157,10.845594,0.577528,0.581743,-1.088030
42862,1.964074,-1.427705,11.044305,0.855489,0.693502,-1.368563
42863,2.073676,-0.320626,11.121210,0.929948,0.800005,-1.655335
42864,2.284379,0.432493,11.135721,0.871629,0.896259,-1.940818
42865,2.442122,0.781925,11.068980,0.763876,0.982844,-2.231765
42866,2.467686,1.080646,10.981683,0.654571,1.060200,-2.531686
42867,2.503086,1.204708,10.730120,0.577635,1.119841,-2.835057
42868,2.637086,1.050160,10.580754,0.565153,1.169616,-3.151927
42869,2.839006,0.717739,10.452141,0.642934,1.203973,-3.459252
42870,3.063262,0.311790,10.346851,0.824487,1.233750,-3.760753
42871,3.121651,0.109232,10.363841,1.077103,1.251263,-4.058599
42872,3.204640,0.341934,10.361366,1.302398,1.247706,-4.338140
42873,3.352637,0.919206,10.301091,1.428671,1.208501,-4.584917
42874,3.649080,1.684348,10.331991,1.381298,1.145032,-4.814389
42875,3.897940,2.323137,10.208707,1.175979,1.078141,-5.008308
42876,4.312220,2.468272,10.070650,0.888754,1.005406,-5.180418
42877,4.659424,2.022756,9.969243,0.586036,0.951169,-5.305661
42878,4.858289,1.413743,9.985383,0.339078,0.911238,-5.417224
42879,5.068848,0.833639,9.957826,0.165473,0.887611,-5.509111
42880,5.181503,0.408205,9.903118,0.047408,0.876479,-5.591024
42881,5.363547,0.051596,9.807602,-0.028082,0.868519,-5.655385
42882,5.500929,-0.313142,9.484336,-0.054260,0.851464,-5.714707
42883,5.623742,-0.724498,9.023505,0.008605,0.815826,-5.776273
42884,5.900026,-1.214267,9.015340,0.121779,0.786134,-5.805691
42885,6.102639,-1.783384,8.966198,0.270643,0.755589,-5.802824
42886,6.303905,-2.100215,9.236985,0.439240,0.740242,-5.811739
42887,6.484949,-2.192121,9.743927,0.547709,0.763160,-5.806554
42888,6.498784,-2.016537,10.157950,0.607800,0.779228,-5.779746
42889,6.546337,-1.507422,10.364220,0.580613,0.780713,-5.754828
42890,6.707465,-1.101858,10.711602,0.463258,0.811203,-5.729022
42891,6.814548,-0.613519,10.438258,0.301886,0.820037,-5.707604
42892,6.689075,-0.261420,9.488719,0.174726,0.808041,-5.713248
42893,6.708314,-0.350703,8.608773,0.079700,0.757307,-5.707340
42894,6.913975,-0.677200,8.291639,0.021037,0.714406,-5.674343
42895,7.252061,-1.140900,8.324804,-0.034700,0.683850,-5.624193
42896,7.727903,-2.066366,8.545245,-0.035454,0.691506,-5.560160
42897,7.911982,-2.849316,8.923233,0.105195,0.740433,-5.495942
42898,7.606371,-3.150115,9.389814,0.324008,0.797088,-5.433763
42899,7.370731,-2.598362,9.858094,0.513027,0.823596,-5.379856
42900,7.059166,-1.641564,10.098564,0.554046,0.838551,-5.317632
42901,6.878993,-0.606725,9.945129,0.410616,0.827120,-5.239902
42902,6.894354,-0.010929,9.744312,0.115389,0.803883,-5.177872
42903,6.991617,0.226406,9.509721,-0.237628,0.791912,-5.087464
42904,7.111311,0.114556,9.447687,-0.571902,0.797953,-4.995636
42905,6.905060,-0.021289,9.345248,-0.835373,0.829504,-4.922741
42906,6.589732,0.064432,9.279453,-0.997393,0.886029,-4.905530
42907,5.997934,0.358761,9.081418,-1.081378,0.957511,-4.964408
42908,5.579961,0.383901,8.956928,-1.132451,0.971645,-5.033375
42909,6.070527,-0.199644,9.210639,-1.142811,0.976993,-5.065746
42910,6.799617,-1.249085,9.195294,-1.097605,1.042608,-5.045809
42911,6.759520,-2.287425,8.481604,-0.954986,1.081119,-4.988468
42912,6.023107,-2.762642,7.971256,-0.690207,1.032004,-4.911708
42913,5.171528,-2.667988,7.762782,-0.421365,0.914983,-4.837488
42914,4.581920,-2.703781,7.491474,-0.240285,0.745041,-4.720091
42915,4.217322,-2.556219,7.615870,-0.082922,0.550797,-4.541975
42916,4.091262,-2.227815,8.123870,0.031809,0.372692,-4.361885
42917,4.167836,-2.188324,8.633169,0.027662,0.240462,-4.136792
42918,4.251792,-1.962919,8.889362,0.032262,0.145312,-3.915605
42919,4.207403,-1.951059,9.029969,-0.031301,0.098057,-3.723245
42920,3.924874,-2.187753,8.938753,-0.151140,0.059350,-3.494429
42921,3.496932,-2.289600,8.968828,-0.275547,0.030470,-3.266518
42922,2.970666,-2.561624,8.830015,-0.432155,-0.014183,-3.039842
42923,2.698457,-2.760236,8.987729,-0.536826,-0.070112,-2.822855
42924,2.812518,-3.053981,9.088271,-0.576820,-0.090255,-2.614388
42925,2.944734,-3.221086,8.895028,-0.540294,-0.094555,-2.453808
42926,2.985183,-3.077905,8.777745,-0.437267,-0.093472,-2.319013
42927,2.786393,-2.233776,8.598582,-0.381821,-0.100821,-2.221031
42928,2.612660,-1.383088,8.484222,-0.474588,-0.111316,-2.173142
42929,2.098431,-1.652532,8.462460,-0.724714,-0.147214,-2.103204
42930,1.905528,-2.873466,8.668802,-0.879682,-0.199060,-2.020038
42931,2.250579,-4.732956,8.826853,-0.864785,-0.211288,-1.953488
42932,2.593039,-6.373713,8.702744,-0.559950,-0.182944,-1.853424
42933,2.724556,-6.696475,8.592534,-0.085603,-0.177592,-1.748475
42934,2.501056,-5.528376,8.453491,0.302006,-0.199008,-1.634486
42935,2.130380,-3.412777,8.606905,0.449649,-0.255421,-1.547800
42936,2.069634,-1.632907,8.993559,0.243875,-0.324233,-1.504392
42937,2.032357,-0.866214,9.323926,-0.188519,-0.363713,-1.486410
42938,2.027612,-1.782052,9.556362,-0.677399,-0.384628,-1.465804
42939,1.940078,-4.139962,9.673191,-0.936127,-0.391838,-1.447918
42940,2.100796,-6.494765,9.787062,-0.858159,-0.366356,-1.391654
42941,2.325067,-7.444591,9.767563,-0.502547,-0.332798,-1.326708
42942,2.351983,-6.825656,9.840736,-0.120815,-0.305836,-1.240168
42943,2.206403,-5.295463,9.976877,0.054324,-0.282597,-1.146982
42944,1.730208,-4.444669,10.057670,-0.015511,-0.275089,-1.057026
42945,1.339389,-4.698887,10.187445,-0.163606,-0.281831,-0.963083
42946,1.464982,-5.570557,10.274453,-0.263797,-0.279447,-0.864806
42947,1.846786,-6.254684,10.417184,-0.243740,-0.264461,-0.757859
42948,2.029684,-6.404270,10.481053,-0.186076,-0.231017,-0.626162
42949,2.012857,-6.145645,10.552022,-0.174059,-0.208298,-0.484151
42950,1.881555,-5.973500,10.459712,-0.228860,-0.189382,-0.340146
42951,1.709371,-6.187035,10.305884,-0.304400,-0.186329,-0.203498
42952,1.633328,-6.620856,10.266262,-0.303822,-0.191780,-0.084878
42953,1.843874,-7.176083,10.238953,-0.225454,-0.185428,0.042175
42954,2.088297,-7.461542,10.310080,-0.074540,-0.170257,0.191914
42955,2.297049,-7.360154,10.403065,0.083991,-0.150325,0.342116
42956,2.257941,-6.994960,10.517746,0.208198,-0.119218,0.497243
42957,2.221621,-6.555575,10.649167,0.270583,-0.092588,0.644820
42958,2.242447,-6.228915,10.641653,0.289564,-0.053390,0.790183
42959,2.278495,-6.050525,10.513281,0.300657,-0.031543,0.926630
42960,2.371450,-5.993336,10.493151,0.347883,-0.011997,1.051080
42961,2.572565,-5.958972,10.353772,0.458130,0.024649,1.162342
42962,2.651893,-6.017194,10.206802,0.608665,0.074554,1.264877
42963,2.525772,-5.918246,10.011833,0.802618,0.090922,1.354489
42964,2.413131,-5.601211,9.901864,1.005401,0.110908,1.440241
42965,2.410558,-5.268466,9.849726,1.182762,0.121482,1.513527
42966,2.441128,-4.944083,9.897071,1.330885,0.144452,1.588841
42967,2.474198,-4.554120,9.924518,1.450571,0.173056,1.671385
42968,2.589008,-4.147723,9.927157,1.519145,0.204411,1.772594
42969,2.683694,-3.814818,9.966572,1.524634,0.234725,1.889883
42970,2.898760,-3.466551,10.054215,1.471899,0.283102,2.026058
42971,3.040149,-3.144755,10.105047,1.382133,0.331303,2.175808
42972,3.064417,-2.736357,10.092612,1.279374,0.372810,2.320002
42973,3.149119,-2.353275,10.121768,1.166269,0.414696,2.469796
42974,3.269470,-2.217140,10.148932,1.045984,0.451271,2.627512
42975,3.351128,-2.145481,10.148155,0.938669,0.487502,2.783878
42976,3.449618,-2.087281,10.196692,0.863278,0.512352,2.942055
42977,3.708067,-1.925597,10.349204,0.792776,0.547580,3.094234
42978,3.933108,-1.836424,10.404385,0.704339,0.598205,3.263410
42979,4.110038,-1.770691,10.383679,0.632899,0.645529,3.422219
42980,4.157718,-1.683757,10.325046,0.565223,0.681462,3.563279
42981,4.233545,-1.593542,10.241987,0.508955,0.700784,3.711405
42982,4.309129,-1.268499,10.280663,0.442921,0.725480,3.842243
42983,4.349348,-0.911907,10.404754,0.334214,0.749158,3.951571
42984,4.353801,-0.664828,10.431961,0.194460,0.768524,4.045631
42985,4.330973,-0.618107,10.401005,0.061655,0.791824,4.141186
42986,4.250490,-0.835139,10.344535,-0.056698,0.807396,4.234211
42987,4.253286,-1.128209,10.256917,-0.102927,0.810678,4.310241
42988,4.267999,-1.291435,10.129751,-0.097001,0.820739,4.377220
42989,4.160407,-1.338786,9.949266,-0.032622,0.825323,4.427992
42990,4.059947,-1.274367,9.779206,0.051492,0.819642,4.463869
42991,4.100044,-1.150358,9.740858,0.125337,0.816665,4.499561
42992,4.088626,-1.038209,9.647070,0.172513,0.817901,4.539336
42993,4.088071,-0.784065,9.629017,0.202339,0.830526,4.565701
42994,3.956786,-0.452914,9.651786,0.193200,0.833732,4.590372
42995,3.773984,-0.162681,9.593348,0.152953,0.818523,4.616717
42996,3.469295,0.075671,9.697409,0.081577,0.806792,4.645331
42997,3.250677,0.206237,9.851897,-0.036984,0.788007,4.678997
42998,3.109518,0.254904,9.901919,-0.162904,0.762450,4.706503
42999,3.057085,0.212029,10.002193,-0.275929,0.736358,4.724565
43000,2.998611,0.148391,9.877398,-0.350319,0.716343,4.732627
43001,2.942376,0.226925,9.771408,-0.392568,0.684693,4.746546
43002,2.804050,0.457333,9.697401,-0.425989,0.643515,4.760489
43003,2.674731,0.610224,9.638639,-0.487058,0.617518,4.771253
43004,2.539944,0.933572,9.592573,-0.575697,0.580443,4.760150
43005,2.301990,1.135165,9.686137,-0.680317,0.535441,4.748142
43006,2.234194,1.156869,9.632852,-0.814358,0.481909,4.733929
43007,2.268760,1.117752,9.624925,-0.940999,0.435746,4.716421
43008,2.344330,0.831161,9.616494,-1.033277,0.396081,4.691867
43009,2.430358,0.538389,9.455885,-1.058585,0.355155,4.669827
43010,2.393406,0.395017,9.454693,-1.008666,0.322198,4.649682
43011,2.238661,0.387575,9.495915,-0.952302,0.271899,4.621440
43012,2.075348,0.594040,9.230592,-0.891880,0.226515,4.579872
43013,1.947686,1.017686,9.210417,-0.868226,0.166671,4.538082
43014,1.981596,1.233464,9.286499,-0.933503,0.120792,4.504434
43015,2.005887,1.178474,9.330220,-1.045039,0.092269,4.468550
43016,2.029421,0.906307,9.328951,-1.188365,0.060412,4.439543
43017,2.035405,0.682408,9.390478,-1.264062,0.032168,4.389630
43018,1.983125,0.461834,9.519742,-1.308616,-0.021822,4.352739
43019,1.916118,0.450249,9.501185,-1.298131,-0.081538,4.315740
43020,1.747901,0.805103,9.499249,-1.269841,-0.132988,4.262821
43021,1.547073,1.367729,9.615475,-1.278763,-0.161975,4.194811
43022,1.259066,1.811917,9.683451,-1.412831,-0.197114,4.119133
43023,1.090534,2.011922,9.563767,-1.642130,-0.223688,4.042196
43024,0.937340,1.880712,9.396687,-1.943359,-0.267030,3.967263
43025,0.923940,1.446248,9.310994,-2.282192,-0.342542,3.872536
43026,0.815465,1.150564,9.095746,-2.574882,-0.432004,3.773783
43027,0.695864,1.036592,9.005404,-2.790451,-0.546923,3.644186
43028,0.407995,0.769188,8.812650,-2.927073,-0.671528,3.517499
43029,0.317134,0.119270,8.793358,-2.995043,-0.816376,3.358797
43030,0.584591,-0.816912,8.869820,-2.949042,-0.926643,3.232083
43031,0.783493,-1.437456,9.295618,-2.800836,-0.996980,3.096556
43032,0.886106,-1.683778,9.696239,-2.687746,-1.028194,2.960029
43033,0.865901,-1.841383,9.993797,-2.546831,-1.004651,2.822296
43034,0.776709,-2.257419,10.333643,-2.398991,-0.958601,2.666678
43035,0.689984,-2.414239,10.633368,-2.127812,-0.893867,2.461417
43036,0.642776,-1.947915,10.836731,-1.835209,-0.811392,2.231472
43037,0.781257,-0.779961,10.941809,-1.630489,-0.703004,1.978135
43038,0.744673,0.448189,10.965030,-1.661244,-0.568998,1.720785
43039,0.627683,1.127522,11.030239,-1.831406,-0.432372,1.449272
43040,0.658925,0.977545,11.101316,-2.012042,-0.278973,1.141498
43041,0.905952,0.288080,11.029634,-2.069581,-0.109427,0.811627
43042,1.158305,-0.374194,11.155653,-1.946388,0.121174,0.460284
43043,1.326040,-0.665443,11.317873,-1.691225,0.389995,0.100123
43044,1.306331,-0.613188,11.282262,-1.402865,0.661739,-0.270310
43045,1.400539,-0.595534,11.027005,-1.112586,0.927207,-0.640309
43046,1.488099,-0.772768,10.718517,-0.851890,1.188427,-1.004629
43047,1.428503,-1.128871,10.172729,-0.615281,1.428016,-1.349661
43048,1.309631,-1.520587,9.675944,-0.401450,1.631195,-1.664632
43049,1.083743,-1.808698,9.028594,-0.253343,1.796257,-1.936193
43050,0.788229,-1.778407,8.398175,-0.161291,1.930501,-2.177303
43051,0.429679,-1.677819,7.934322,-0.156698,2.028416,-2.396569
43052,0.251451,-1.561000,7.478545,-0.243148,2.090089,-2.590425
43053,0.243008,-1.414291,7.098908,-0.409257,2.128621,-2.761369
43054,0.337545,-1.569559,6.678006,-0.712255,2.143055,-2.900577
43055,0.480778,-2.198755,5.946625,-1.126770,2.135334,-2.944366
43056,0.388168,-2.891705,5.597593,-1.432653,2.114241,-2.987348
43057,0.112827,-3.951609,5.080959,-1.735701,2.068778,-3.001659
43058,-0.072751,-5.149390,4.660865,-1.884407,2.032659,-2.987013
43059,-0.296883,-6.022909,4.243717,-1.853492,1.994802,-2.984615
43060,-0.449978,-6.421631,4.227595,-1.694084,1.952697,-3.012951
43061,-0.566725,-6.573591,4.229912,-1.572347,1.919661,-3.038222
43062,-0.553297,-6.433225,3.819612,-1.487763,1.870680,-3.028364
43063,-0.325944,-5.840522,3.882229,-1.402513,1.843125,-3.067775
43064,-0.196127,-5.753184,3.756092,-1.467369,1.808419,-3.110722
43065,-0.167380,-5.885135,3.574323,-1.547306,1.770876,-3.125570
43066,-0.224758,-6.377138,3.367451,-1.650881,1.710245,-3.136541
43067,-0.310450,-7.190889,2.798410,-1.695534,1.625139,-3.128707
43068,-0.520028,-7.666566,2.459488,-1.547960,1.520935,-3.162630
43069,-0.802966,-7.479579,2.426229,-1.324500,1.399718,-3.274767
43070,-0.802764,-6.924988,2.730027,-1.132986,1.289593,-3.407153
43071,-0.506117,-6.446060,2.846135,-1.079764,1.168313,-3.493708
43072,0.173320,-6.041407,3.247104,-1.086227,1.067371,-3.565437
43073,0.918934,-6.521505,3.265118,-1.297339,0.967913,-3.566653
43074,1.369128,-7.323304,2.977447,-1.441800,0.881737,-3.527804
43075,1.473364,-8.053286,2.875970,-1.466304,0.779824,-3.518742
43076,1.568838,-8.944127,2.805232,-1.446623,0.660010,-3.508402
43077,1.588125,-9.158947,2.821640,-1.315467,0.557847,-3.498012
43078,1.691421,-8.457146,3.107739,-1.173719,0.455638,-3.526273
43079,1.789189,-7.699828,3.514108,-1.130173,0.359066,-3.551654
43080,1.904060,-7.583273,3.615676,-1.304979,0.262352,-3.535330
43081,2.338693,-8.202950,3.050565,-1.615628,0.189186,-3.461093
43082,2.997834,-9.141604,2.540184,-1.924781,0.119583,-3.383934
43083,3.808127,-10.231971,1.887962,-2.133999,0.050606,-3.280808
43084,4.138547,-10.738098,1.829499,-2.107999,0.015003,-3.245610
43085,4.310621,-10.832537,2.174804,-1.951355,-0.017083,-3.257910
43086,4.298161,-10.538610,2.628230,-1.651765,-0.027421,-3.261434
43087,4.330364,-10.162364,2.956367,-1.337186,-0.042386,-3.264040
43088,4.387028,-9.815864,3.085152,-1.076717,-0.049857,-3.257998
43089,4.693708,-10.036058,2.716140,-1.009776,-0.074899,-3.196927
43090,5.355543,-10.188176,2.353742,-0.973270,-0.100189,-3.103141
43091,5.965751,-9.917575,2.240098,-0.957730,-0.136786,-3.048068
43092,6.360449,-9.828644,2.276580,-0.952020,-0.153494,-2.983078
43093,6.491042,-9.607178,2.507062,-0.865486,-0.141894,-2.947537
43094,6.581794,-9.203045,2.889764,-0.763509,-0.150863,-2.931421
43095,6.713190,-8.667578,2.912172,-0.670873,-0.160561,-2.900978
43096,6.651749,-8.115750,3.016570,-0.608517,-0.134424,-2.887940
43097,6.529394,-7.815109,2.858226,-0.631462,-0.118698,-2.875824
43098,6.726724,-7.700345,2.762478,-0.614808,-0.134031,-2.903901
43099,7.233557,-7.684223,2.990472,-0.581521,-0.172610,-2.948431
43100,8.058781,-8.346994,3.042005,-0.611256,-0.214385,-2.912038
43101,8.949979,-9.377939,3.065393,-0.621622,-0.224834,-2.797575
43102,9.786306,-10.036281,3.222886,-0.551644,-0.203728,-2.671111
43103,10.151025,-10.066882,3.370044,-0.451905,-0.156413,-2.523127
43104,9.910372,-9.285185,3.322544,-0.385483,-0.103295,-2.381541
43105,9.394070,-8.249684,3.117175,-0.419579,-0.081350,-2.254802
43106,8.855215,-7.274190,2.844654,-0.583253,-0.089575,-2.157010
43107,8.744507,-6.666841,2.670127,-0.813186,-0.139547,-2.086966
43108,8.801528,-6.538805,2.540412,-1.026471,-0.210194,-2.038838
43109,8.806274,-6.767167,2.503213,-1.158834,-0.269533,-2.004823
43110,8.936578,-7.013156,2.747010,-1.166752,-0.321725,-1.995277
43111,9.149115,-7.238511,2.997195,-1.079394,-0.356960,-1.980340
43112,9.461278,-7.437931,3.103511,-0.876124,-0.357693,-1.958029
43113,9.605658,-7.458069,3.148693,-0.608978,-0.331615,-1.936760
43114,9.521175,-7.161067,3.085871,-0.341920,-0.300408,-1.906593
43115,9.573873,-6.443595,2.962432,-0.118069,-0.280261,-1.888342
43116,9.618154,-5.617896,2.916230,-0.003807,-0.261621,-1.859379
43117,9.672745,-4.909924,2.869910,-0.018151,-0.256643,-1.827086
43118,9.899485,-4.379128,2.801850,-0.135264,-0.255893,-1.789670
43119,10.479787,-4.102411,2.694894,-0.302659,-0.235518,-1.756201
43120,11.107141,-3.898598,2.705047,-0.470015,-0.190399,-1.707363
43121,11.463773,-3.720466,2.648459,-0.649638,-0.150495,-1.636198
43122,11.392623,-3.474818,2.591118,-0.819385,-0.095562,-1.558262
43123,10.972377,-3.476746,2.513976,-0.976805,-0.064878,-1.477935
43124,10.579153,-3.607016,2.355502,-1.061647,-0.056740,-1.405816
43125,10.279106,-3.676712,2.294725,-1.091591,-0.058445,-1.326540
43126,10.062380,-3.832303,2.246141,-1.068731,-0.080318,-1.241339
43127,9.887396,-3.931653,2.210758,-0.988130,-0.105404,-1.163870
43128,9.679040,-3.859523,2.317166,-0.876790,-0.135338,-1.110089
43129,9.606600,-3.844430,2.387455,-0.743704,-0.165306,-1.050713
43130,9.675873,-3.848518,2.641013,-0.610958,-0.184249,-1.005619
43131,9.833186,-3.797380,2.702793,-0.507193,-0.200338,-0.940833
43132,10.068846,-3.786973,2.670365,-0.399678,-0.210561,-0.882362
43133,10.219927,-3.811460,2.555056,-0.298751,-0.205721,-0.831781
43134,10.185418,-3.786612,2.467958,-0.187227,-0.206973,-0.771149
43135,10.170543,-3.658039,2.387653,-0.068027,-0.205692,-0.723080
43136,10.071529,-3.339763,2.425197,0.032358,-0.196414,-0.689916
43137,10.019235,-3.154830,2.397842,0.102605,-0.195601,-0.659974
43138,10.090010,-3.051501,2.420122,0.148990,-0.185608,-0.635861
43139,10.180969,-3.018588,2.420825,0.182512,-0.164204,-0.616474
43140,10.194478,-2.786514,2.517075,0.200785,-0.127996,-0.588703
43141,10.094301,-2.548223,2.485455,0.170482,-0.094839,-0.566049
43142,9.985715,-2.423146,2.343793,0.133726,-0.057102,-0.541969
43143,9.842005,-2.198870,2.269589,0.085518,-0.026673,-0.526446
43144,9.733346,-2.061786,2.201388,0.037069,-0.008831,-0.512215
43145,9.723642,-2.141083,2.130188,-0.009764,-0.001838,-0.500130
43146,9.809282,-2.368212,2.027275,-0.034150,-0.002319,-0.472872
43147,9.932545,-2.447767,1.954609,-0.023253,0.010650,-0.453561
43148,9.851081,-2.491667,1.962384,0.006526,0.024031,-0.424346
43149,9.768920,-2.439713,1.933974,0.042125,0.033138,-0.383929
43150,9.719936,-2.372918,1.814708,0.083161,0.044509,-0.346787
43151,9.683491,-2.222511,1.687758,0.141888,0.053151,-0.319789
43152,9.715917,-1.907316,1.789158,0.188357,0.064682,-0.303913
43153,9.743367,-1.472171,1.862289,0.164651,0.067433,-0.278969
43154,9.826036,-1.265745,1.846377,0.076330,0.076408,-0.256417
43155,9.837205,-1.253113,1.823789,-0.044682,0.089632,-0.237268
43156,9.812927,-1.416454,1.701510,-0.156159,0.095965,-0.210019
43157,9.771098,-1.581866,1.629810,-0.223502,0.107956,-0.189337
43158,9.709647,-1.791457,1.528312,-0.241517,0.111613,-0.169512
43159,9.672690,-1.819935,1.557520,-0.223038,0.116335,-0.149115
43160,9.688636,-1.702073,1.625768,-0.209660,0.114791,-0.135872
43161,9.719138,-1.607528,1.572805,-0.216472,0.113602,-0.116701
43162,9.739245,-1.503133,1.551515,-0.225823,0.121123,-0.100721
43163,9.682065,-1.403238,1.526380,-0.254141,0.118836,-0.103317
43164,9.619761,-1.358239,1.499811,-0.282415,0.117769,-0.097659
43165,9.668739,-1.521249,1.467983,-0.295551,0.112888,-0.096491
43166,9.647843,-1.655487,1.420885,-0.277244,0.107203,-0.092849
43167,9.654307,-1.794386,1.440828,-0.245946,0.102784,-0.081677
43168,9.668056,-1.844814,1.393381,-0.205954,0.098683,-0.065589
43169,9.670769,-1.765294,1.412417,-0.160907,0.096903,-0.059145
43170,9.692389,-1.644832,1.462560,-0.125544,0.091826,-0.052129
43171,9.657566,-1.549993,1.445720,-0.103805,0.087778,-0.049021
43172,9.664609,-1.415899,1.467798,-0.087936,0.081740,-0.057105
43173,9.704058,-1.351352,1.524519,-0.106795,0.082297,-0.058948
43174,9.674290,-1.377944,1.530968,-0.129552,0.074013,-0.057349
43175,9.678475,-1.635018,1.453403,-0.130331,0.072563,-0.045063
43176,9.636337,-1.630746,1.501188,-0.096968,0.070595,-0.043986
43177,9.625700,-1.658302,1.455154,-0.075967,0.058657,-0.028571
43178,9.629261,-1.700351,1.437025,-0.042218,0.051365,-0.012740
43179,9.678804,-1.650137,1.460556,-0.000958,0.040707,-0.002713
43180,9.639715,-1.514789,1.463938,0.024916,0.040977,-0.004079
43181,9.673060,-1.428931,1.470355,0.039944,0.035373,-0.007407
43182,9.712619,-1.269397,1.549619,0.030782,0.031694,-0.018101
43183,9.726620,-1.280304,1.581363,0.005460,0.031041,-0.027944
43184,9.690712,-1.340646,1.593269,-0.017397,0.031012,-0.033956
43185,9.681808,-1.446296,1.590912,-0.026546,0.028442,-0.036368
43186,9.646982,-1.449336,1.545024,-0.022753,0.027124,-0.031166
43187,9.653494,-1.414562,1.538109,-0.025296,0.017425,-0.018094
43188,9.732579,-1.333165,1.559094,-0.025149,0.021919,-0.010526
43189,9.665791,-1.209428,1.630925,-0.026913,0.019010,-0.018007
43190,9.632070,-1.293340,1.629725,-0.042109,0.014820,-0.013998
43191,9.710085,-1.367118,1.682103,-0.043309,0.013755,-0.016101
43192,9.697129,-1.431716,1.700173,-0.047390,0.014714,-0.019850
43193,9.682818,-1.514762,1.647429,-0.032553,0.014753,-0.013766
43194,9.666544,-1.478546,1.631280,-0.001607,0.012185,-0.016438
43195,9.634100,-1.406623,1.597822,0.016606,0.004945,-0.019556
43196,9.654155,-1.344976,1.700397,0.035945,0.000282,-0.020200
43197,9.741979,-1.348245,1.675556,0.041850,-0.000376,-0.017623
43198,9.725003,-1.368332,1.716133,0.044731,0.004005,-0.015955
43199,9.710975,-1.352526,1.688748,0.062027,0.003580,-0.014317
43200,9.676317,-1.258376,1.666851,0.076647,0.007055,-0.015413
43201,9.659210,-1.179984,1.733572,0.081492,0.014014,-0.023927
43202,9.630089,-1.109241,1.760546,0.060043,0.010492,-0.028966
43203,9.644322,-1.021042,1.815544,0.023342,0.015949,-0.037895
43204,9.692221,-1.141017,1.798210,-0.029875,0.013843,-0.035917
43205,9.755297,-1.315272,1.727179,-0.047459,0.020289,-0.036095
43206,9.757928,-1.529404,1.668003,-0.027853,0.023537,-0.029878
43207,9.676984,-1.585766,1.661865,0.026212,0.021481,-0.027929
43208,9.615007,-1.445472,1.654579,0.077468,0.013542,-0.028006
43209,9.624977,-1.411100,1.707920,0.111838,0.009767,-0.031902
43210,9.645037,-1.443656,1.787475,0.129255,0.006373,-0.030981
43211,9.728859,-1.498286,1.762762,0.152628,0.007243,-0.027835
43212,9.766718,-1.450857,1.746178,0.172035,0.018846,-0.029177
43213,9.823777,-1.402873,1.679601,0.190170,0.025625,-0.023975
43214,9.852224,-1.268995,1.708639,0.191019,0.032784,-0.020435
43215,9.805913,-1.162251,1.720769,0.172638,0.036627,-0.016652
43216,9.807173,-1.082025,1.739138,0.131940,0.043670,-0.013220
43217,9.722866,-1.018983,1.771333,0.061231,0.047821,-0.011542
43218,9.649938,-1.065795,1.748396,0.005369,0.044538,-0.012015
43219,9.631737,-1.204144,1.698584,-0.033999,0.043555,-0.015122
43220,9.613641,-1.342670,1.648433,-0.043341,0.045454,-0.016476
43221,9.633377,-1.439000,1.577696,-0.027530,0.042501,-0.023713
43222,9.620586,-1.347964,1.565723,-0.010007,0.048924,-0.023510
43223,9.557486,-1.364083,1.592322,-0.002889,0.036591,-0.018755
43224,9.633145,-1.377203,1.531394,-0.001579,0.035820,-0.009091
43225,9.631104,-1.452924,1.521721,0.007625,0.025303,0.001321
43226,9.708426,-1.391445,1.472258,0.025397,0.015546,0.008802
43227,9.759092,-1.265117,1.506124,0.041398,0.015630,0.008761
43228,9.827984,-1.096188,1.569943,0.034199,0.004549,-0.011369
43229,9.858564,-1.141418,1.617291,0.005546,0.003792,-0.028371
43230,9.862734,-1.237432,1.654062,0.000411,0.006171,-0.051186
43231,9.738119,-1.385056,1.605873,0.013793,0.007799,-0.070555
43232,9.711578,-1.486041,1.654972,0.068606,0.012294,-0.081098
43233,9.688513,-1.550742,1.636155,0.134442,0.006620,-0.082381
43234,9.676112,-1.507821,1.681102,0.198359,0.008279,-0.074254
43235,9.583133,-1.350726,1.754093,0.244627,0.006224,-0.057704
43236,9.579512,-1.242292,1.720670,0.255817,-0.001135,-0.033327
43237,9.560231,-1.061002,1.808442,0.231829,-0.006797,-0.017017
43238,9.621964,-0.940002,1.809181,0.184545,-0.013487,-0.003905
43239,9.660274,-0.874885,1.858574,0.113523,-0.013359,-0.000182
43240,9.683182,-0.874772,1.867199,0.042922,-0.004343,-0.007026
43241,9.712167,-1.017031,1.832936,-0.015877,0.002295,-0.016922
43242,9.713488,-1.113580,1.811485,-0.048655,0.016204,-0.029586
43243,9.689043,-1.206530,1.722417,-0.062866,0.027942,-0.039142
43244,9.665109,-1.278541,1.704309,-0.058575,0.033838,-0.036896
43245,9.632517,-1.361736,1.706528,-0.049201,0.031703,-0.027589
