// Start Time: Unknown
// Update Rate: 100.0Hz
// Filter Profile: human (46.1)
// Firmware Version: 4.3.5
PacketCounter,Acc_X,Acc_Y,Acc_Z,Gyr_X,Gyr_Y,Gyr_Z
49485,9.698265,-1.451965,1.581396,0.008198,0.016724,-0.035000
49486,9.642663,-1.436302,1.600896,-0.002364,0.020145,-0.037569
49487,9.625968,-1.522308,1.610692,-0.009133,0.022876,-0.035494
49488,9.638291,-1.557709,1.576239,-0.009759,0.021819,-0.037872
49489,9.638519,-1.632131,1.529868,-0.000678,0.020626,-0.027974
49490,9.662959,-1.636953,1.580292,0.024772,0.018835,-0.014135
49491,9.689523,-1.613430,1.584777,0.047473,0.019567,-0.009187
49492,9.674793,-1.594950,1.596955,0.051872,0.012737,-0.006567
49493,9.686701,-1.555054,1.610895,0.047394,0.014604,-0.000455
49494,9.691193,-1.503457,1.593362,0.039204,0.017308,-0.004197
49495,9.654644,-1.541149,1.608394,0.030318,0.018792,-0.005109
49496,9.623001,-1.612682,1.628631,0.022223,0.024049,-0.006124
49497,9.644842,-1.725346,1.677849,0.025312,0.022155,0.001355
49498,9.581402,-1.785754,1.691201,0.039475,0.020181,0.007522
49499,9.566642,-1.937948,1.753556,0.064448,0.020081,0.016519
49500,9.587788,-1.967340,1.779015,0.097584,0.022110,0.025712
49501,9.577111,-1.991658,1.871076,0.131405,0.020564,0.035608
49502,9.544287,-1.993778,2.014777,0.154655,0.022435,0.042904
49503,9.482132,-2.033237,2.057872,0.166467,0.028608,0.049364
49504,9.453459,-2.232023,2.186429,0.166949,0.039276,0.069183
49505,9.457792,-2.421355,2.350569,0.184446,0.052979,0.078610
49506,9.463779,-2.576193,2.397852,0.213240,0.071899,0.086915
49507,9.553094,-2.790349,2.558201,0.240490,0.090809,0.113964
49508,9.630471,-3.100473,2.690904,0.271204,0.118247,0.134673
49509,9.724791,-3.384048,2.871269,0.303558,0.129616,0.162538
49510,9.862922,-3.614109,3.028327,0.351946,0.154707,0.193920
49511,9.829092,-3.817596,3.070700,0.424707,0.193342,0.210632
49512,9.789706,-4.121666,3.049991,0.540804,0.221566,0.235792
49513,9.859693,-4.293546,3.098199,0.670086,0.252395,0.269902
49514,9.882932,-4.333746,3.228268,0.772172,0.288546,0.325349
49515,9.894985,-4.208751,3.494993,0.814518,0.330632,0.390328
49516,9.871880,-4.151787,3.639803,0.811132,0.373636,0.459452
49517,9.897567,-4.277110,3.686498,0.786071,0.413941,0.536790
49518,9.965527,-4.301027,3.725517,0.780402,0.449121,0.593057
49519,10.076293,-4.281681,3.811191,0.755886,0.483425,0.648680
49520,10.120162,-4.417539,3.905191,0.723087,0.516918,0.712753
49521,10.152693,-4.667134,3.939052,0.705329,0.548624,0.774529
49522,10.124222,-5.014760,3.783315,0.737622,0.581653,0.830790
49523,10.071624,-5.289370,3.734257,0.850702,0.609363,0.877621
49524,10.138261,-5.420079,3.808894,1.003001,0.644529,0.923882
49525,10.213822,-5.421120,3.911166,1.155389,0.694001,0.971905
49526,10.312844,-5.246968,4.010061,1.272612,0.730092,1.028170
49527,10.450601,-4.913965,4.057216,1.320946,0.775762,1.085322
49528,10.494670,-4.666842,4.149949,1.285776,0.827021,1.144803
49529,10.455090,-4.583475,4.163801,1.203823,0.869689,1.210491
49530,10.559373,-4.520423,4.215496,1.092036,0.900834,1.276376
49531,10.611513,-4.555058,4.238211,0.996010,0.942418,1.339754
49532,10.688593,-4.794393,4.300336,0.919575,0.976221,1.393270
49533,10.745160,-5.083506,4.224215,0.902335,1.002179,1.457019
49534,10.663319,-5.397365,4.141886,0.931431,1.035810,1.523950
49535,10.500950,-5.621236,4.100554,1.016703,1.045386,1.591233
49536,10.521327,-5.736592,4.168089,1.135088,1.047789,1.659584
49537,10.638923,-5.670028,4.234189,1.238950,1.069756,1.723123
49538,10.716289,-5.591322,4.466615,1.341133,1.092465,1.789339
49539,10.704359,-5.618719,4.450849,1.424505,1.106722,1.851073
49540,10.640993,-5.567509,4.393694,1.506820,1.134845,1.908800
49541,10.580193,-5.502021,4.462768,1.567906,1.162088,1.968494
49542,10.556603,-5.324894,4.470590,1.595669,1.179539,2.030469
49543,10.476893,-5.050575,4.557656,1.593737,1.203126,2.077229
49544,10.270097,-4.722441,4.724276,1.534418,1.218902,2.111565
49545,10.155125,-4.681902,4.799965,1.414628,1.227088,2.150626
49546,10.050960,-4.830131,4.788031,1.324184,1.243525,2.173053
49547,9.889213,-5.018143,4.856312,1.272922,1.248134,2.190047
49548,9.673941,-5.134913,4.753055,1.255453,1.220413,2.218236
49549,9.586964,-5.284767,4.809114,1.249708,1.222663,2.252918
49550,9.476174,-5.487087,4.710777,1.281021,1.220413,2.284324
49551,9.448377,-5.637196,4.573026,1.342245,1.207246,2.318032
49552,9.308865,-5.659140,4.454740,1.430682,1.190820,2.344282
49553,9.104705,-5.696072,4.449880,1.529620,1.174346,2.368281
49554,8.840699,-5.685467,4.566866,1.614074,1.151698,2.389399
49555,8.635072,-5.550675,4.614405,1.682396,1.120084,2.417509
49556,8.574734,-5.430138,4.777783,1.718561,1.088229,2.445022
49557,8.562598,-5.388039,4.927271,1.726773,1.077019,2.480441
49558,8.509039,-5.496254,4.901935,1.743023,1.065233,2.512278
49559,8.389760,-5.637670,4.778888,1.777120,1.053657,2.554769
49560,8.231734,-5.729756,4.668973,1.829702,1.038710,2.594883
49561,8.057775,-5.703698,4.775934,1.890257,1.010890,2.642800
49562,8.111396,-5.676009,4.973119,1.902911,0.985157,2.701615
49563,8.321135,-5.769910,5.158115,1.876500,0.974964,2.785949
49564,8.429445,-5.793167,5.264253,1.851631,0.976332,2.891169
49565,8.416409,-5.812793,5.232008,1.829106,0.982733,3.001216
49566,8.109429,-5.847416,5.143677,1.842969,0.991290,3.111498
49567,7.606733,-5.775654,5.085031,1.886458,0.980472,3.206154
49568,7.067791,-5.611402,5.080715,1.947211,0.941101,3.277683
49569,6.696105,-5.275042,5.250897,1.991038,0.903519,3.335132
49570,6.423395,-4.997102,5.547978,1.980261,0.865361,3.393681
49571,6.107679,-4.730906,5.723169,1.928936,0.835217,3.432424
49572,5.824620,-4.585740,5.933122,1.869452,0.803228,3.467061
49573,5.509656,-4.482725,6.051436,1.804824,0.778691,3.493627
49574,5.126035,-4.388780,6.093730,1.758636,0.757569,3.501098
49575,4.660902,-4.326564,6.104792,1.741395,0.729676,3.502164
49576,4.262294,-4.323136,6.206784,1.744557,0.696872,3.492508
49577,3.982623,-4.329047,6.298137,1.758569,0.669241,3.490464
49578,3.667479,-4.120811,6.480338,1.769166,0.637205,3.488216
49579,3.386838,-3.697351,6.653683,1.743247,0.601579,3.476806
49580,3.166015,-3.243100,6.814203,1.649938,0.568074,3.472384
49581,2.890479,-2.834653,6.930798,1.510457,0.529948,3.478686
49582,2.716853,-2.565804,7.129479,1.331190,0.495515,3.476507
49583,2.460884,-2.599126,7.291366,1.144486,0.466663,3.470305
49584,2.302144,-2.843670,7.367914,1.004897,0.429569,3.476062
49585,2.095003,-2.992779,7.420276,0.939675,0.393022,3.470074
49586,1.934574,-2.972787,7.383052,0.915804,0.353802,3.460977
49587,1.779613,-2.873135,7.390184,0.919424,0.327464,3.456266
49588,1.625655,-2.723855,7.451152,0.881705,0.289984,3.451630
49589,1.469768,-2.370614,7.491650,0.832355,0.260451,3.455417
49590,1.318079,-1.876732,7.638717,0.720052,0.207992,3.446403
49591,1.087227,-1.360642,7.788518,0.545790,0.161104,3.441524
49592,0.943724,-1.359108,7.937094,0.312320,0.107998,3.449666
49593,0.917879,-1.516450,7.902237,0.118435,0.054500,3.448594
49594,0.800759,-1.645040,7.830964,-0.003106,-0.006223,3.433868
49595,0.719017,-1.944987,7.793117,-0.080380,-0.067628,3.428865
49596,0.522817,-1.878470,7.676459,-0.087128,-0.129944,3.413545
49597,0.441290,-1.713732,7.815146,-0.140764,-0.207362,3.405798
49598,0.433157,-1.375565,7.811428,-0.196896,-0.267884,3.390038
49599,0.300691,-0.990200,7.881943,-0.336928,-0.334659,3.364541
49600,0.106900,-0.528537,8.024298,-0.473610,-0.408202,3.329113
49601,-0.096547,-0.436078,8.242224,-0.664564,-0.480815,3.293215
49602,-0.134047,-0.675707,8.134040,-0.808603,-0.552095,3.247676
49603,-0.169964,-0.799072,8.097924,-0.828938,-0.617124,3.167894
49604,-0.110124,-1.030965,8.270101,-0.797199,-0.681647,3.081185
49605,-0.018447,-1.208013,8.218977,-0.759728,-0.716682,3.019551
49606,-0.029415,-0.757889,8.376746,-0.649776,-0.740280,2.914601
49607,-0.088071,-0.069264,8.517321,-0.653221,-0.764934,2.793836
49608,-0.087008,0.591924,8.617676,-0.695664,-0.771658,2.658629
49609,-0.249006,0.971620,8.827194,-0.835586,-0.772513,2.518203
49610,-0.263801,0.850041,8.924440,-1.036297,-0.789101,2.378404
49611,-0.146828,0.463034,9.012252,-1.234063,-0.794876,2.256953
49612,-0.101109,0.029534,9.308908,-1.344773,-0.788215,2.113631
49613,0.011613,-0.841671,9.331933,-1.471764,-0.761944,1.990532
49614,0.180981,-1.453944,9.276423,-1.440923,-0.715912,1.862482
49615,0.102022,-1.860425,9.249035,-1.354562,-0.673318,1.730425
49616,-0.039224,-2.216642,9.004678,-1.219739,-0.615101,1.616472
49617,-0.163718,-2.215895,9.044956,-1.069923,-0.557802,1.492954
49618,-0.166841,-2.018222,8.951200,-0.996358,-0.517137,1.397997
49619,-0.185531,-1.364592,9.183497,-0.997620,-0.467919,1.278917
49620,-0.335796,-0.881765,9.391451,-1.120900,-0.432372,1.180865
49621,-0.610893,-0.795788,9.574533,-1.320189,-0.393706,1.081863
49622,-0.779127,-0.963203,9.539302,-1.516710,-0.372562,0.970142
49623,-0.739388,-1.467822,9.443808,-1.664674,-0.343008,0.854915
49624,-0.706876,-2.032096,9.286693,-1.717141,-0.298850,0.733327
49625,-0.739326,-2.678247,9.230905,-1.660765,-0.260770,0.608935
49626,-0.748847,-3.218033,9.184231,-1.510022,-0.221383,0.487522
49627,-0.817046,-3.509439,9.234880,-1.308313,-0.177339,0.382129
49628,-0.989519,-3.313220,9.471013,-1.089128,-0.130832,0.253625
49629,-1.084091,-2.955488,9.766227,-0.934703,-0.099379,0.134226
49630,-1.137230,-2.577279,9.936591,-0.856279,-0.063675,0.001479
49631,-1.158698,-2.310043,10.176118,-0.813401,-0.024512,-0.134799
49632,-1.082744,-2.053293,10.409150,-0.747978,0.031498,-0.313878
49633,-0.984413,-1.894358,10.601110,-0.648574,0.091128,-0.517408
49634,-0.795894,-1.986962,10.688345,-0.510046,0.160492,-0.752837
49635,-0.554706,-2.078040,10.796128,-0.305832,0.229522,-1.011679
49636,-0.213236,-2.115954,11.053563,-0.074252,0.315722,-1.284574
49637,0.052092,-1.920028,11.339894,0.144117,0.417169,-1.561015
49638,0.275548,-1.572933,11.613195,0.312203,0.510485,-1.845086
49639,0.495856,-1.092020,11.652201,0.425024,0.611730,-2.125584
49640,0.682964,-0.689642,11.641640,0.482978,0.714772,-2.418582
49641,0.981937,-0.409585,11.618141,0.489108,0.818561,-2.711943
49642,1.324198,-0.375259,11.503699,0.488873,0.928439,-3.009989
49643,1.616598,-0.680616,11.444636,0.536155,1.029649,-3.295844
49644,1.872847,-1.256529,11.211031,0.647730,1.124116,-3.582741
49645,2.141583,-1.635356,10.985831,0.849541,1.202200,-3.855050
49646,2.267688,-1.696844,10.825701,1.078240,1.260833,-4.123036
49647,2.444744,-1.431652,10.743805,1.264039,1.285824,-4.367095
49648,2.734349,-1.001034,10.657146,1.365271,1.292633,-4.597881
49649,3.081729,-0.640649,10.621094,1.358253,1.286134,-4.799131
49650,3.416287,-0.529872,10.605971,1.273230,1.282658,-4.960671
49651,3.581044,-0.656205,10.430701,1.155191,1.261876,-5.117191
49652,3.804812,-0.860799,10.121616,1.062695,1.235717,-5.257174
49653,4.068970,-1.393581,9.922220,0.995745,1.214314,-5.366695
49654,4.299026,-1.976457,9.732649,0.999181,1.185889,-5.461204
49655,4.515438,-2.358269,9.539040,1.071272,1.157769,-5.547874
49656,4.676791,-2.449517,9.602214,1.147792,1.121825,-5.616197
49657,4.881851,-2.220998,9.629426,1.187426,1.083294,-5.667332
49658,5.124458,-1.814382,9.585195,1.146874,1.034245,-5.707615
49659,5.432634,-1.621664,9.534637,1.021450,0.992341,-5.724284
49660,5.768865,-1.824028,9.269384,0.876571,0.957864,-5.730344
49661,6.102672,-2.393516,9.238500,0.826632,0.953636,-5.734853
49662,6.363154,-2.969297,9.259587,0.847549,0.959534,-5.711954
49663,6.465589,-3.261946,9.291136,0.933523,0.981321,-5.684107
49664,6.495946,-2.978085,9.510288,0.972757,1.019837,-5.654146
49665,6.490902,-2.421830,9.720215,0.917546,1.050347,-5.629872
49666,6.589176,-1.796252,9.771872,0.725761,1.068840,-5.594779
49667,6.588686,-1.144862,9.432777,0.442107,1.071908,-5.569044
49668,6.881054,-1.197655,9.094977,0.140363,1.061961,-5.534446
49669,7.272759,-1.902052,8.941274,-0.090461,1.093707,-5.485764
49670,7.513715,-2.645389,8.903028,-0.162252,1.131908,-5.442447
49671,7.845923,-3.187146,9.095253,-0.128599,1.181937,-5.395212
49672,7.876098,-3.451438,9.415980,-0.072137,1.259759,-5.318435
49673,7.601116,-3.282297,9.686221,-0.055797,1.312878,-5.242748
49674,7.369547,-2.697332,9.778326,-0.117912,1.319735,-5.168695
49675,7.334831,-2.135356,9.837162,-0.295884,1.313649,-5.080528
49676,7.308846,-1.830577,9.707350,-0.535304,1.294300,-4.981392
49677,7.228136,-1.649559,9.120126,-0.733208,1.283543,-4.907099
49678,6.995485,-2.116434,8.627735,-0.873161,1.258646,-4.819073
49679,6.888212,-2.758181,8.460205,-0.911775,1.228507,-4.691902
49680,6.740593,-3.105243,8.487410,-0.872648,1.192999,-4.583096
49681,6.567147,-3.180706,8.557305,-0.849811,1.154483,-4.474621
49682,6.352874,-3.265843,8.687946,-0.830665,1.122145,-4.362680
49683,6.078135,-3.348304,8.809419,-0.792353,1.072492,-4.242957
49684,5.800208,-3.373090,8.983821,-0.754992,1.054064,-4.133921
49685,5.532243,-3.520033,8.863283,-0.723655,1.027403,-4.019166
49686,5.136367,-3.506612,8.525421,-0.659230,0.991644,-3.908122
49687,4.888481,-3.502122,8.400679,-0.579173,0.932676,-3.799607
49688,4.674675,-3.643137,8.446912,-0.485252,0.880473,-3.683546
49689,4.532877,-3.930573,8.258315,-0.380389,0.830285,-3.551908
49690,4.233928,-4.190912,8.156898,-0.206068,0.765972,-3.442402
49691,3.934582,-4.482931,8.082064,0.007674,0.715474,-3.327124
49692,3.561456,-4.564116,7.940313,0.258140,0.642389,-3.216995
49693,3.002217,-4.458607,7.811101,0.494153,0.558605,-3.100506
49694,2.528133,-4.126698,7.986633,0.708794,0.457770,-2.987764
49695,2.497321,-3.478756,8.232467,0.839672,0.348416,-2.901539
49696,2.814747,-2.690389,8.590274,0.835733,0.279490,-2.829166
49697,3.144185,-1.906753,8.765113,0.669266,0.237005,-2.758406
49698,3.099702,-1.236702,8.658913,0.371517,0.193045,-2.688713
49699,2.721078,-0.927250,8.476987,-0.023800,0.135832,-2.646011
49700,2.563200,-1.113881,8.500687,-0.417392,0.069577,-2.593169
49701,2.690115,-1.827511,8.414456,-0.754882,0.035792,-2.551886
49702,2.837652,-2.744464,8.445308,-0.953488,0.018962,-2.502047
49703,2.937975,-3.668593,8.549140,-1.004750,0.011949,-2.432788
49704,2.966346,-4.319091,8.560355,-0.944988,0.014576,-2.361365
49705,3.004542,-4.716094,8.552816,-0.807751,0.005071,-2.287905
49706,3.083889,-4.628648,8.571724,-0.659372,0.008496,-2.207213
49707,2.740305,-4.347765,8.359269,-0.578125,-0.014857,-2.125208
49708,2.213599,-4.221999,8.420960,-0.564276,-0.061262,-2.045925
49709,1.966382,-4.459952,8.581932,-0.603524,-0.116324,-1.956255
49710,2.343524,-5.092866,8.713120,-0.613455,-0.144417,-1.864227
49711,2.716832,-5.772947,8.776137,-0.530847,-0.135883,-1.748833
49712,2.855850,-6.135575,8.693233,-0.352018,-0.138138,-1.634153
49713,2.678657,-5.938079,8.382768,-0.185957,-0.159011,-1.519172
49714,1.933910,-5.578651,8.065501,-0.070551,-0.201382,-1.406813
49715,1.289759,-5.544579,7.927856,-0.025929,-0.284241,-1.299349
49716,1.315533,-5.989381,8.032768,0.018314,-0.370496,-1.197053
49717,1.807779,-6.839016,8.447735,0.127189,-0.431589,-1.082713
49718,2.344244,-7.562498,8.684856,0.341056,-0.439136,-0.969629
49719,2.754788,-7.509205,8.847900,0.654322,-0.425197,-0.868616
49720,2.614262,-6.748273,8.968795,0.921858,-0.422480,-0.771662
49721,2.425814,-5.739587,9.305516,1.031873,-0.431549,-0.670882
49722,2.130147,-4.892572,9.785216,0.937806,-0.431657,-0.557077
49723,2.051057,-4.434391,10.396899,0.681024,-0.415163,-0.431012
49724,2.189422,-4.628194,10.861909,0.371385,-0.404479,-0.284783
49725,2.392187,-5.309234,11.036288,0.112252,-0.365933,-0.115481
49726,2.570119,-6.003399,10.946584,-0.017741,-0.330069,0.056869
49727,2.572577,-6.549622,10.757754,-0.020104,-0.298205,0.231242
49728,2.583690,-6.788885,10.720026,0.058985,-0.269053,0.393219
49729,2.701765,-6.809292,10.838646,0.176803,-0.239972,0.544075
49730,2.808781,-6.744350,11.012904,0.287958,-0.209810,0.702311
49731,2.872682,-6.522637,11.162832,0.388724,-0.169601,0.853055
49732,2.884710,-6.366635,11.225119,0.477596,-0.125270,1.012864
49733,3.042417,-6.083406,11.324742,0.547517,-0.083951,1.180080
49734,3.160526,-5.807171,11.411431,0.583803,-0.038631,1.344391
49735,3.318312,-5.562682,11.442203,0.579808,0.012577,1.511629
49736,3.410669,-5.364405,11.395657,0.563383,0.072668,1.678019
49737,3.499057,-5.205678,11.300893,0.542900,0.134271,1.837842
49738,3.603503,-5.080941,11.194899,0.527622,0.199967,2.007992
49739,3.687797,-4.965540,10.945567,0.512996,0.245224,2.179988
49740,3.847907,-4.874478,10.848138,0.509414,0.291908,2.357441
49741,4.010018,-4.651225,10.803051,0.503332,0.341989,2.538556
49742,4.167810,-4.375968,10.765476,0.492042,0.385838,2.714025
49743,4.344058,-4.095960,10.699010,0.473290,0.425471,2.892723
49744,4.480333,-3.812762,10.573611,0.437104,0.459386,3.074565
49745,4.540114,-3.683763,10.448125,0.396951,0.477986,3.248779
49746,4.584873,-3.620698,10.272547,0.366334,0.501357,3.412331
49747,4.685307,-3.699148,10.109940,0.357726,0.519826,3.565008
49748,4.822231,-3.661331,10.030165,0.395082,0.525760,3.706869
49749,4.973947,-3.550679,9.893320,0.443939,0.543078,3.834209
49750,5.115245,-3.344075,9.815516,0.494668,0.561988,3.952824
49751,5.165304,-3.223729,9.753407,0.539609,0.577249,4.068959
49752,5.135247,-2.999275,9.598407,0.563057,0.591924,4.167420
49753,5.142090,-2.815689,9.578422,0.580069,0.598878,4.264186
49754,5.160891,-2.595887,9.498894,0.575499,0.607203,4.357481
49755,5.128542,-2.362066,9.490331,0.557095,0.614857,4.434580
49756,5.195187,-2.295850,9.446475,0.520667,0.620059,4.519703
49757,5.249607,-2.256897,9.398288,0.489126,0.637544,4.600633
49758,5.254503,-2.242213,9.394928,0.458345,0.658894,4.673724
49759,5.183234,-2.095428,9.214223,0.436820,0.683483,4.734747
49760,5.075918,-1.859807,9.041640,0.419388,0.684459,4.783306
49761,5.111849,-1.667024,8.826671,0.378899,0.686195,4.827505
49762,5.186550,-1.628739,8.676651,0.335754,0.681856,4.875383
49763,5.269103,-1.469397,8.603545,0.270281,0.662408,4.922267
49764,5.161189,-1.171368,8.679987,0.184210,0.640201,4.986582
49765,4.644977,-0.716863,8.727444,0.068287,0.613968,5.043213
49766,4.133050,-0.489540,8.769964,-0.082256,0.565456,5.084276
49767,3.844650,-0.400496,8.821155,-0.225529,0.525437,5.112968
49768,3.644850,-0.441361,8.945815,-0.339064,0.486704,5.136824
49769,3.466485,-0.530783,9.047284,-0.411070,0.429561,5.160561
49770,3.236432,-0.422333,9.069357,-0.460919,0.369835,5.170001
49771,3.025393,-0.289700,9.233785,-0.531828,0.317193,5.179920
49772,2.690470,-0.204134,9.214431,-0.608678,0.256665,5.177480
49773,2.581348,-0.152314,9.205635,-0.693729,0.199743,5.170450
49774,2.436026,-0.104439,9.359862,-0.763149,0.145673,5.150274
49775,2.420828,-0.211415,9.476206,-0.859675,0.104339,5.138561
49776,2.293742,0.064259,9.374517,-0.894581,0.064279,5.112048
49777,1.978478,0.302344,9.397149,-0.971694,0.012644,5.082105
49778,1.724987,0.379186,9.524571,-1.066205,-0.047759,5.056000
49779,1.558926,0.318471,9.513934,-1.206503,-0.107130,5.034025
49780,1.591527,0.354721,9.679897,-1.273587,-0.170081,4.981069
49781,1.838188,0.101850,9.792080,-1.394295,-0.251079,4.947564
49782,2.034289,-0.229620,9.792737,-1.425716,-0.296139,4.909306
49783,2.064426,-0.468368,9.604253,-1.449872,-0.337435,4.876632
49784,1.945895,-0.186005,9.480196,-1.433552,-0.384914,4.823894
49785,1.657924,0.377393,9.236635,-1.494207,-0.430914,4.771498
49786,1.292966,0.720470,9.100833,-1.653620,-0.520811,4.701299
49787,1.399363,0.739089,9.142998,-1.867125,-0.645016,4.618235
49788,1.893337,0.210973,9.471885,-2.101959,-0.762030,4.561372
49789,2.044515,-0.511147,9.572297,-2.273707,-0.846266,4.515888
49790,1.936658,-0.921729,9.526678,-2.334151,-0.942760,4.451291
49791,1.788789,-0.930397,9.486260,-2.347687,-1.012519,4.376730
49792,1.581369,-0.712641,9.636288,-2.418139,-1.040467,4.311613
49793,1.035592,-0.357123,9.268897,-2.600984,-1.072544,4.253177
49794,0.751020,0.054638,9.494107,-2.780261,-1.139970,4.131228
49795,0.920876,0.227440,9.567923,-2.992164,-1.223225,3.959527
49796,1.126228,0.197887,9.855354,-3.115977,-1.245709,3.759141
49797,1.067467,-0.057761,10.043164,-3.170679,-1.272683,3.537446
49798,1.263153,-0.216931,10.244194,-3.157979,-1.275589,3.303894
49799,1.312990,0.087090,10.261173,-3.185195,-1.209773,3.073588
49800,0.663936,0.783649,10.438687,-3.184911,-1.072263,2.804976
49801,-0.324286,0.860440,10.092323,-3.293018,-0.979958,2.501754
49802,-0.423803,0.290068,9.907174,-3.396975,-0.936847,2.151229
49803,0.320159,-0.880741,9.764952,-3.459199,-0.869167,1.816116
49804,0.882730,-1.592894,9.685420,-3.364868,-0.702298,1.473143
49805,0.897719,-1.702800,9.658605,-3.223547,-0.498251,1.123586
49806,0.815400,-1.685781,9.609547,-3.037240,-0.266784,0.767777
49807,0.807587,-1.907814,9.616909,-2.783323,-0.022460,0.427176
49808,0.692712,-2.421561,9.523204,-2.435128,0.246703,0.084623
49809,0.633764,-3.022283,9.161624,-2.070093,0.512762,-0.240031
49810,0.700828,-3.308469,8.659393,-1.661813,0.777136,-0.553125
49811,0.729496,-2.935745,8.198937,-1.357763,1.036674,-0.865793
49812,0.776080,-2.332493,7.573975,-1.283290,1.276305,-1.148465
49813,0.830102,-2.263851,6.721108,-1.383695,1.473983,-1.373067
49814,0.719958,-2.532835,5.904307,-1.522319,1.639877,-1.563588
49815,0.420920,-2.818179,5.186617,-1.640636,1.769497,-1.741487
49816,0.155207,-3.051520,4.815479,-1.731517,1.845851,-1.910984
49817,-0.087110,-3.268241,4.524479,-1.861108,1.881109,-2.048854
49818,-0.186661,-3.691913,4.147138,-1.999855,1.898860,-2.158200
49819,-0.244246,-4.109941,3.862412,-2.043554,1.935999,-2.286105
49820,-0.336338,-4.636088,3.743721,-2.022517,1.977786,-2.426300
49821,-0.317771,-5.258268,3.475617,-1.987518,2.007984,-2.536568
49822,-0.076073,-5.805241,3.136239,-1.889135,2.034524,-2.635469
49823,0.183803,-6.540438,2.799554,-1.856938,2.044722,-2.713218
49824,0.406273,-7.345903,2.476051,-1.774585,2.044311,-2.755474
49825,0.228761,-7.655270,2.212084,-1.637847,2.031746,-2.810211
49826,0.008938,-7.139418,2.468283,-1.441602,2.020332,-2.917509
49827,-0.253107,-6.163311,2.729879,-1.351312,1.994872,-3.055844
49828,-0.157501,-5.280556,3.167255,-1.373874,1.967515,-3.210494
49829,0.144745,-5.670264,2.994544,-1.573297,1.927944,-3.327712
49830,0.811406,-7.131518,2.301428,-1.754815,1.890061,-3.395792
49831,1.567299,-8.970347,1.939699,-1.747011,1.882711,-3.481285
49832,2.031431,-10.859565,1.226954,-1.569684,1.861856,-3.537196
49833,2.151084,-11.426312,1.099623,-1.072856,1.824747,-3.608753
49834,2.075211,-10.260636,1.537043,-0.599549,1.743977,-3.720158
49835,2.119457,-8.126551,2.434161,-0.303119,1.653756,-3.876517
49836,2.310267,-6.213477,3.305977,-0.321040,1.533110,-4.008985
49837,2.855127,-5.716313,3.760381,-0.628111,1.405172,-4.080462
49838,3.429169,-7.052918,3.560264,-1.080250,1.298531,-4.053276
49839,3.912398,-9.286261,3.089510,-1.388915,1.221703,-4.005911
49840,4.344816,-11.340300,2.720359,-1.568552,1.150939,-3.945675
49841,4.739001,-12.490907,2.395373,-1.527357,1.070897,-3.849797
49842,4.945502,-12.199842,2.253493,-1.353819,0.970087,-3.771591
49843,5.042364,-10.596587,2.801428,-1.195470,0.863361,-3.764017
49844,4.989261,-8.977447,3.286843,-1.196070,0.766163,-3.750700
49845,4.928723,-7.986484,3.361310,-1.317774,0.680890,-3.726600
49846,5.009779,-8.131184,3.137582,-1.454661,0.618166,-3.710697
49847,5.503210,-9.840167,2.638065,-1.522491,0.573939,-3.653731
49848,6.326937,-11.668124,2.034795,-1.398085,0.573557,-3.558774
49849,6.976382,-12.522124,1.704642,-1.129698,0.549882,-3.456742
49850,7.625600,-12.564502,1.527732,-0.860533,0.494885,-3.323487
49851,7.949057,-11.732917,1.697869,-0.638173,0.435337,-3.169271
49852,7.957076,-10.482594,2.212448,-0.560777,0.362250,-3.000888
49853,7.826621,-9.337980,2.587564,-0.621951,0.291598,-2.841923
49854,7.712542,-8.518762,2.829580,-0.786018,0.216488,-2.704935
49855,7.702239,-8.185970,2.870336,-0.976213,0.163038,-2.588284
49856,7.509506,-8.230217,2.676869,-1.149671,0.133911,-2.489349
49857,7.392980,-8.644117,2.321010,-1.227550,0.121012,-2.423524
49858,7.562244,-9.436478,1.961798,-1.181349,0.113380,-2.398438
49859,8.186408,-9.919369,1.800781,-0.990274,0.099173,-2.400626
49860,8.848091,-9.820500,1.895139,-0.735022,0.094320,-2.381095
49861,9.161521,-9.217369,2.232412,-0.522784,0.095982,-2.330336
49862,9.224958,-8.387945,2.490241,-0.406290,0.099802,-2.252423
49863,9.113992,-7.655650,2.609497,-0.420681,0.099936,-2.162923
49864,9.013708,-7.052676,2.563030,-0.519386,0.100664,-2.067905
49865,8.932644,-6.624314,2.565460,-0.675049,0.104782,-1.979401
49866,8.776277,-6.315296,2.403075,-0.844777,0.117730,-1.903195
49867,8.676193,-6.262237,2.229609,-0.979599,0.126756,-1.845495
49868,8.690709,-6.342033,2.028977,-1.077240,0.147070,-1.801501
49869,8.638745,-6.425745,1.864493,-1.093673,0.171784,-1.776938
49870,8.687568,-6.269795,1.769070,-1.065215,0.196962,-1.766509
49871,8.835623,-6.022247,1.926827,-1.031517,0.223670,-1.761987
49872,9.126319,-5.679401,2.105169,-1.021105,0.268544,-1.749413
49873,9.335624,-5.401045,2.263482,-1.043950,0.301490,-1.726747
49874,9.413679,-5.142891,2.272429,-1.080489,0.334324,-1.695803
49875,9.322329,-4.851031,2.240297,-1.126303,0.344584,-1.653096
49876,9.295357,-4.617927,2.277808,-1.189506,0.340624,-1.618713
49877,9.375009,-4.617110,2.139578,-1.258610,0.316115,-1.568035
49878,9.469343,-4.824101,1.960924,-1.282927,0.276449,-1.519007
49879,9.618325,-5.103507,1.870445,-1.226594,0.233007,-1.469960
49880,9.665499,-5.229890,1.839225,-1.105399,0.192399,-1.420140
49881,9.745790,-5.149040,1.898370,-0.961046,0.136840,-1.368714
49882,9.898991,-5.026974,1.949423,-0.831735,0.097164,-1.317080
49883,10.004005,-4.809913,1.934300,-0.739313,0.054211,-1.246703
49884,10.144388,-4.599387,1.914920,-0.668779,0.022006,-1.197310
49885,10.189205,-4.376405,1.952337,-0.609570,-0.010355,-1.143855
49886,10.238497,-4.211092,1.987323,-0.566950,-0.028760,-1.101273
49887,10.265756,-4.147096,1.948948,-0.517478,-0.044601,-1.058607
49888,10.267842,-4.143180,1.872606,-0.446870,-0.060841,-1.019857
49889,10.244793,-4.171568,1.827034,-0.349267,-0.069135,-0.990474
49890,10.222337,-4.098597,1.771633,-0.232697,-0.057020,-0.969517
49891,10.167438,-3.730655,1.850124,-0.128274,-0.052157,-0.948856
49892,10.110577,-3.418600,1.796396,-0.086479,-0.046857,-0.919413
49893,10.095538,-3.234496,1.854943,-0.084807,-0.049120,-0.876695
49894,10.097845,-3.113977,1.866686,-0.108413,-0.047874,-0.819718
49895,10.022181,-2.959779,1.945673,-0.139672,-0.056610,-0.754994
49896,10.004458,-2.926283,1.946148,-0.189122,-0.069469,-0.681027
49897,9.931377,-2.876575,1.888970,-0.216895,-0.076344,-0.606945
49898,9.905576,-2.791025,1.877421,-0.233452,-0.087109,-0.545589
49899,9.925509,-2.722735,1.888890,-0.241376,-0.096574,-0.497931
49900,9.914516,-2.635559,1.819876,-0.245405,-0.105108,-0.460693
49901,9.864666,-2.677719,1.742637,-0.240636,-0.111403,-0.424518
49902,9.843475,-2.847559,1.625161,-0.218299,-0.115136,-0.389483
49903,9.895582,-2.976112,1.530597,-0.166948,-0.114019,-0.359237
49904,9.814465,-2.956898,1.472165,-0.082496,-0.112835,-0.332293
49905,9.712897,-2.798185,1.442911,0.002476,-0.111032,-0.320844
49906,9.675731,-2.536910,1.503710,0.071925,-0.111183,-0.308999
49907,9.637094,-2.330553,1.541695,0.106025,-0.120043,-0.310230
49908,9.642415,-2.265480,1.529204,0.119847,-0.113165,-0.295580
49909,9.675458,-2.345755,1.449568,0.123528,-0.115888,-0.290070
49910,9.670839,-2.455593,1.309390,0.146535,-0.114917,-0.272480
49911,9.737725,-2.466524,1.215617,0.186575,-0.111571,-0.254785
49912,9.757478,-2.338675,1.172847,0.217795,-0.111078,-0.225598
49913,9.813358,-2.137588,1.286823,0.219699,-0.100568,-0.199969
49914,9.782056,-1.968048,1.389251,0.194509,-0.097676,-0.162420
49915,9.750089,-1.848823,1.395032,0.151226,-0.099157,-0.134813
49916,9.697727,-1.813582,1.333420,0.103568,-0.096331,-0.112428
49917,9.672961,-1.815360,1.250622,0.062072,-0.097418,-0.094483
49918,9.616134,-1.993293,1.065610,0.044153,-0.108421,-0.090991
49919,9.518633,-2.371394,0.865726,0.081683,-0.134915,-0.089021
49920,9.394064,-2.958224,0.569344,0.206548,-0.175109,-0.090623
49921,9.290601,-3.564648,0.511945,0.454154,-0.237358,-0.086491
49922,9.490891,-3.678134,0.698912,0.797977,-0.272675,-0.082857
49923,9.791713,-3.247675,1.001421,1.128817,-0.271734,-0.082624
49924,9.927164,-2.312843,1.223254,1.356169,-0.250090,-0.086694
49925,9.952714,-1.175656,1.408834,1.388839,-0.214065,-0.091471
49926,9.944788,-0.354788,1.486109,1.203716,-0.179764,-0.098247
49927,9.873601,-0.041625,1.454528,0.879984,-0.152843,-0.096055
49928,9.772103,-0.170011,1.308656,0.516130,-0.130506,-0.095392
49929,9.748370,-0.622696,1.382017,0.193455,-0.108539,-0.090521
49930,9.787457,-1.046741,1.489778,-0.034011,-0.077289,-0.076420
49931,9.758540,-1.362813,1.408235,-0.152309,-0.058980,-0.078607
49932,9.778904,-1.603580,1.319350,-0.181876,-0.038963,-0.068045
49933,9.778165,-1.762539,1.300134,-0.168867,-0.018925,-0.065817
49934,9.731532,-1.891898,1.285206,-0.119033,-0.006380,-0.058994
49935,9.655137,-1.845896,1.279222,-0.054900,-0.002326,-0.057137
49936,9.637563,-1.872784,1.310766,0.016724,-0.001930,-0.048798
49937,9.687436,-1.791034,1.304279,0.071764,-0.001695,-0.042565
49938,9.718146,-1.658205,1.301038,0.112035,-0.000844,-0.034120
49939,9.745518,-1.520620,1.411976,0.123969,-0.008530,-0.027530
49940,9.747256,-1.270490,1.396359,0.091797,-0.007201,-0.025648
49941,9.783822,-1.229677,1.380048,0.042916,-0.008713,-0.023299
49942,9.825730,-1.305944,1.399944,-0.009611,-0.007110,-0.022848
49943,9.822823,-1.438610,1.264835,-0.039808,0.002219,-0.033230
49944,9.808540,-1.555054,1.212523,-0.044485,0.008311,-0.044894
49945,9.810563,-1.607833,1.195034,-0.031773,0.018387,-0.049481
49946,9.779393,-1.590861,1.190422,-0.015103,0.030558,-0.062456
49947,9.698002,-1.593257,1.211975,-0.001169,0.026264,-0.059267
49948,9.739887,-1.445983,1.266801,-0.005342,0.030891,-0.060855
49949,9.709595,-1.265356,1.276431,-0.034855,0.031991,-0.061618
49950,9.691576,-1.183200,1.233211,-0.090901,0.034593,-0.062027
49951,9.657629,-1.273103,1.232852,-0.142629,0.030522,-0.064976
49952,9.647432,-1.502304,1.144090,-0.166199,0.027802,-0.059879
49953,9.693440,-1.690958,1.127401,-0.152643,0.027665,-0.053717
49954,9.674973,-1.773611,1.067847,-0.112667,0.023387,-0.045332
49955,9.702228,-1.748437,1.068600,-0.065242,0.024827,-0.042940
49956,9.717384,-1.599373,1.075125,-0.039967,0.016388,-0.039089
49957,9.729697,-1.420062,1.147948,-0.059549,0.015731,-0.037167
49958,9.714889,-1.426406,1.205389,-0.098208,0.012920,-0.033661
49959,9.737420,-1.505926,1.135487,-0.129750,0.010601,-0.031102
49960,9.729278,-1.657199,1.087254,-0.135424,0.010356,-0.029630
49961,9.766592,-1.701060,1.099353,-0.109886,0.011846,-0.024076
49962,9.735059,-1.687840,1.092520,-0.081211,0.016434,-0.030317
49963,9.761182,-1.690457,1.141007,-0.052008,0.019462,-0.026463
49964,9.728416,-1.593268,1.107026,-0.040069,0.021179,-0.032319
49965,9.687390,-1.484989,1.041154,-0.043351,0.015563,-0.038821
49966,9.725748,-1.499961,1.007019,-0.054285,0.010953,-0.044071
49967,9.710880,-1.558725,0.972164,-0.060965,0.013656,-0.041915
49968,9.708428,-1.525536,1.039317,-0.067461,0.014292,-0.038664
49969,9.713255,-1.583001,1.093540,-0.077787,0.015428,-0.034788
49970,9.659396,-1.704572,1.048454,-0.078308,0.016836,-0.024039
