// Start Time: Unknown
// Update Rate: 100.0Hz
// Filter Profile: human (46.1)
// Firmware Version: 4.3.5
PacketCounter,Acc_X,Acc_Y,Acc_Z,Gyr_X,Gyr_Y,Gyr_Z
39920,9.296351,-2.474369,2.189907,-0.295196,0.078746,-0.036627
39921,9.287071,-2.804092,2.171510,-0.319445,0.082408,-0.048005
39922,9.297933,-2.982585,2.188928,-0.286492,0.080140,-0.049120
39923,9.308768,-3.029834,2.224470,-0.243555,0.074769,-0.054808
39924,9.276527,-3.058227,2.165033,-0.189529,0.065645,-0.045540
39925,9.245243,-2.901139,2.128626,-0.141640,0.057926,-0.046345
39926,9.274180,-2.812958,2.133419,-0.121942,0.048551,-0.047656
39927,9.263418,-2.764920,2.098523,-0.119678,0.048051,-0.041339
39928,9.251549,-2.809081,2.127400,-0.122014,0.047944,-0.041086
39929,9.271353,-2.749931,2.080972,-0.122066,0.048532,-0.047382
39930,9.294650,-2.749049,2.090329,-0.130475,0.051801,-0.051728
39931,9.289347,-2.796916,2.027942,-0.136863,0.050025,-0.054032
39932,9.288726,-2.849174,2.024611,-0.147023,0.051120,-0.054708
39933,9.265146,-2.862167,1.945566,-0.139412,0.047941,-0.058912
39934,9.188541,-2.922472,1.936579,-0.126549,0.038930,-0.066213
39935,9.218246,-2.978124,1.848993,-0.113794,0.026734,-0.066082
39936,9.229770,-3.037065,1.811789,-0.095508,0.013241,-0.064870
39937,9.214226,-3.089624,1.706191,-0.067781,-0.001832,-0.065294
39938,9.247431,-3.219026,1.599804,-0.023174,-0.027401,-0.063177
39939,9.265253,-3.227144,1.624328,0.037485,-0.048870,-0.049713
39940,9.231724,-3.174950,1.727487,0.097389,-0.077360,-0.043708
39941,9.348278,-2.774814,2.106783,0.117424,-0.097687,-0.025771
39942,9.670427,-1.363665,3.049647,-0.066626,-0.078222,0.009395
39943,10.329313,0.205097,4.236490,-0.555346,0.029791,0.012121
39944,10.909883,1.376679,4.444333,-1.374133,0.316031,-0.006370
39945,10.068991,1.632364,3.026812,-2.403708,0.572058,0.047974
39946,9.224801,0.915331,1.932929,-3.242173,0.718009,0.062900
39947,8.826407,-0.709686,1.608957,-3.772957,0.771928,0.058516
39948,8.826273,-2.824337,1.653023,-3.927009,0.745021,0.081202
39949,8.962495,-4.429110,2.350322,-3.747047,0.716096,0.108412
39950,9.171019,-5.295054,2.702050,-3.374240,0.658219,0.139205
39951,9.174843,-5.964403,2.383401,-2.806647,0.597473,0.142992
39952,9.156928,-6.233282,2.067818,-2.091374,0.514050,0.113578
39953,9.212270,-6.365710,1.585782,-1.360358,0.450021,0.078585
39954,9.037766,-6.735601,0.894791,-0.597971,0.386296,0.042092
39955,8.761062,-6.691754,0.280500,0.166205,0.288847,0.024822
39956,8.590689,-6.308589,-0.082511,0.840318,0.173179,0.021728
39957,8.435005,-5.880887,-0.438447,1.351557,0.040126,0.029901
39958,8.492237,-5.518478,-0.292319,1.762105,-0.109276,0.074435
39959,8.951652,-4.892590,0.321330,2.022425,-0.215305,0.109836
39960,9.086859,-4.274450,0.329240,2.075191,-0.314226,0.217247
39961,9.008923,-4.145635,0.270241,2.025390,-0.445626,0.345231
39962,8.928570,-4.642588,-0.270436,1.977616,-0.597202,0.457023
39963,8.698944,-5.283109,-0.376371,2.054457,-0.759006,0.567827
39964,8.664380,-5.754572,0.002156,2.279561,-0.953524,0.660476
39965,9.134731,-5.937088,0.670071,2.594330,-1.117557,0.766520
39966,9.908922,-5.599130,1.756207,2.909834,-1.207359,0.867912
39967,11.044445,-4.163761,4.232267,3.123064,-1.147304,0.968875
39968,12.022220,-2.080772,5.528706,2.783606,-0.878501,1.047601
39969,11.788261,-0.379358,5.289839,2.066501,-0.497187,1.131121
39970,10.626126,1.407407,4.647885,1.058135,-0.135940,1.152298
39971,9.757421,3.033890,4.907044,-0.081350,0.198810,1.088200
39972,9.295505,3.446160,4.833969,-1.489508,0.595785,0.976912
39973,8.517667,1.737207,4.174054,-2.768396,0.945823,0.878764
39974,7.808112,-1.211317,3.639340,-3.528614,1.134106,0.806144
39975,7.548294,-3.983413,3.309613,-3.703028,1.204656,0.722355
39976,7.664907,-6.123512,2.785663,-3.451186,1.210105,0.638036
39977,7.140214,-6.994315,1.230067,-3.125491,1.115152,0.607014
39978,6.024215,-8.665361,-0.024062,-2.440040,0.889125,0.585484
39979,5.491582,-10.402912,0.130964,-1.401301,0.468127,0.545818
39980,5.350926,-13.207290,-0.374676,0.085396,-0.028485,0.571694
39981,7.315085,-13.713854,2.544886,2.016017,-0.598947,0.551968
39982,10.220359,-11.927827,2.946002,3.273551,-0.900656,0.746510
39983,11.172873,-8.883577,2.355667,3.746090,-1.016028,1.024983
39984,10.929183,-5.697938,1.837658,3.629833,-1.056100,1.263564
39985,10.701564,-3.222401,2.228406,3.086597,-0.974730,1.391454
39986,10.671064,-1.618839,3.914497,2.411694,-0.751803,1.462245
39987,10.115054,-0.905285,4.624782,1.461464,-0.363161,1.482508
39988,8.904801,-1.763730,3.373853,0.454110,0.040139,1.473718
39989,8.136596,-3.478180,2.539402,-0.348334,0.416378,1.419660
39990,7.555100,-4.637723,1.303726,-0.898559,0.795945,1.296249
39991,6.848308,-4.134467,1.035795,-1.205840,1.090254,1.122537
39992,6.281726,-3.192638,1.634584,-1.566057,1.290771,0.984629
39993,6.157512,-2.848743,2.272607,-2.040515,1.368636,0.911532
39994,6.281221,-4.231297,1.339120,-2.564491,1.375918,0.903808
39995,5.620522,-6.945389,-0.354568,-2.539109,1.239319,0.860202
39996,4.602492,-10.303550,-1.328976,-1.677637,0.775180,0.821417
39997,4.691133,-12.845265,-1.644056,-0.198448,0.129358,0.733944
39998,6.457897,-13.118808,-0.369282,1.541393,-0.559720,0.669062
39999,9.080130,-10.854058,0.982751,2.894112,-0.991479,0.685425
40000,9.945162,-7.294757,1.801927,3.525184,-1.149523,0.720442
40001,9.839247,-4.181012,3.342758,3.520274,-1.123495,0.750875
40002,9.696372,-1.668249,4.919254,3.014428,-0.929591,0.719822
40003,9.435617,-0.773276,5.104773,2.118096,-0.522654,0.681286
40004,8.723145,-1.110648,4.441561,1.224094,-0.037729,0.609661
40005,8.100741,-2.134754,4.240420,0.544675,0.446205,0.530583
40006,7.567671,-2.060616,3.909734,0.039739,0.880221,0.433986
40007,6.842641,-1.461171,4.530170,-0.488775,1.292126,0.316589
40008,6.497876,-2.016989,5.520288,-1.082100,1.607161,0.248364
40009,7.011866,-2.989324,6.289468,-1.667467,1.839389,0.173787
40010,7.971783,-3.832866,5.768133,-2.187265,1.989078,0.114690
40011,7.731046,-4.935053,1.244908,-2.792191,1.997418,0.139333
40012,5.237000,-7.741946,-2.464624,-2.670147,1.723002,0.213691
40013,3.479813,-10.572303,-1.996723,-1.838149,1.074955,0.183563
40014,3.913313,-13.221720,-1.869352,-0.479717,0.251376,0.132842
40015,5.234912,-14.257830,-0.496441,1.210669,-0.484522,0.107578
40016,7.809273,-12.696524,1.043015,2.777031,-1.063324,0.172007
40017,9.101858,-8.365309,1.250716,3.532124,-1.277823,0.246884
40018,8.739965,-4.273464,1.837540,3.491982,-1.291860,0.309411
40019,8.434580,-2.192728,2.812212,2.895076,-1.127864,0.351845
40020,8.158787,-1.863115,3.651907,1.990407,-0.751275,0.360082
40021,7.685252,-2.477039,3.915438,1.056234,-0.280574,0.352021
40022,7.280829,-2.630743,4.848338,0.341197,0.273942,0.270916
40023,6.691267,-1.885148,4.783017,-0.421610,0.791937,0.154110
40024,6.003722,-1.373525,4.500356,-1.272990,1.138548,0.103498
40025,6.184893,-1.680445,5.227893,-2.210568,1.342116,0.070995
40026,7.107186,-3.403574,5.024792,-3.088209,1.462462,0.097180
40027,7.904391,-5.071797,4.002966,-3.665323,1.568219,0.127327
40028,6.359955,-6.915586,-0.566584,-3.921423,1.488793,0.217761
40029,3.058447,-10.721900,-4.027451,-3.176420,1.066462,0.278352
40030,1.805206,-14.234324,-3.002636,-1.407056,0.276048,0.144603
40031,3.784910,-15.000217,-1.427222,0.694056,-0.518904,-0.000321
40032,6.622649,-12.942648,0.307535,2.417827,-1.032420,-0.062994
40033,8.740941,-9.227056,1.631982,3.355575,-1.294236,-0.008589
40034,9.175121,-5.408284,2.201088,3.360482,-1.321934,0.106168
40035,8.489454,-3.170049,2.438343,2.930682,-1.161414,0.198404
40036,7.229998,-2.570627,3.042616,2.273571,-0.891069,0.239109
40037,6.420859,-2.467097,4.012281,1.500287,-0.583590,0.226752
40038,6.608400,-2.705459,6.263025,0.800406,-0.183865,0.175775
40039,6.865549,-2.361157,6.830097,-0.172689,0.308126,0.112992
40040,6.268674,-2.388757,6.157988,-1.143878,0.727641,0.062897
40041,5.990317,-3.325072,6.193466,-2.101672,1.062787,0.012613
40042,6.095537,-4.413032,5.439056,-2.984025,1.294658,-0.022327
40043,6.534161,-5.240843,4.454814,-3.732179,1.432690,-0.022878
40044,6.877798,-6.119276,3.388128,-4.435480,1.518915,0.034070
40045,6.014348,-7.069286,-0.460604,-5.150784,1.410955,0.187113
40046,3.539356,-11.008435,-3.664225,-4.803103,1.041732,0.300532
40047,2.565498,-15.456243,-3.573974,-3.406818,0.336458,0.262687
40048,2.845175,-17.942629,-3.052718,-1.232856,-0.527942,0.179782
40049,5.003692,-17.209565,-0.960716,1.174320,-1.352276,0.158773
40050,7.775579,-13.750769,0.867131,2.924032,-1.807143,0.257775
40051,9.050152,-8.859218,2.761600,3.773225,-1.893885,0.364065
40052,9.043197,-4.895208,4.578542,3.666356,-1.640843,0.500114
40053,8.422433,-2.238279,5.149303,2.776728,-1.161388,0.586082
40054,7.305245,-1.632322,4.082741,1.506026,-0.595605,0.622885
40055,6.928432,-2.145574,4.891517,0.362839,-0.083368,0.564870
40056,7.379543,-1.823095,5.757904,-0.899321,0.448449,0.475077
40057,6.795110,-1.683932,5.538830,-2.273346,0.921755,0.427322
40058,6.460923,-2.659339,6.037777,-3.486308,1.225575,0.417407
40059,6.968814,-4.894952,5.277209,-4.334962,1.404177,0.421571
40060,6.792083,-7.810222,3.000137,-4.635151,1.490525,0.463718
40061,4.693702,-11.092760,-2.909864,-4.154832,1.264863,0.498414
40062,1.951322,-15.201277,-3.546479,-2.366653,0.717702,0.369615
40063,1.854849,-17.366595,-2.577338,-0.018761,-0.130712,0.212303
40064,3.557603,-16.784705,-1.755304,2.451753,-0.875489,0.099973
40065,5.936615,-13.280943,-0.138974,4.362300,-1.423189,0.138588
40066,7.849336,-8.644183,0.526457,5.103784,-1.674703,0.247697
40067,8.517774,-4.118814,2.109050,4.974635,-1.609472,0.373204
40068,8.462888,-1.448639,3.804076,3.985690,-1.335784,0.519606
40069,8.115808,-0.693036,4.795443,2.640799,-0.870794,0.547496
40070,7.166160,-1.568075,4.266689,1.243282,-0.376291,0.531164
40071,6.955345,-2.432860,5.384844,0.202239,0.071574,0.431939
40072,7.217696,-2.050432,6.313544,-0.840918,0.531076,0.325845
40073,6.782918,-1.660046,5.706673,-1.937937,0.933039,0.234610
40074,5.962101,-2.676982,5.000585,-2.984654,1.238012,0.169944
40075,4.720188,-6.329588,0.945056,-3.578686,1.318972,0.136993
40076,2.260665,-10.612249,-1.650125,-3.089091,1.090402,0.086553
40077,0.086453,-14.594924,-1.614779,-1.599081,0.538847,-0.069792
40078,0.524259,-16.765284,-0.255775,0.685320,-0.274211,-0.254053
40079,3.598818,-15.781411,0.496897,3.031345,-1.031055,-0.302750
40080,6.752777,-11.813431,0.770697,4.633836,-1.462755,-0.210422
40081,7.899694,-6.447465,1.197618,5.050794,-1.574980,-0.087312
40082,8.356679,-2.206615,2.617763,4.505462,-1.411650,0.019989
40083,8.516057,-0.116278,4.941898,3.165662,-0.967556,0.060277
40084,7.992580,-1.179715,5.429531,1.517647,-0.443929,0.078747
40085,7.339767,-2.909377,6.111298,0.254027,0.067753,-0.001457
40086,6.938097,-3.109097,5.353914,-0.878396,0.497611,-0.076349
40087,6.216102,-2.471143,4.695960,-2.058191,0.806050,-0.109295
40088,6.084750,-3.667681,5.169997,-3.209270,1.021362,-0.088441
40089,5.718620,-8.065761,2.166474,-3.780718,1.102276,-0.026937
40090,3.493012,-12.968999,-0.058082,-3.095980,0.936828,0.025208
40091,1.097921,-16.143612,-0.523659,-1.401055,0.379406,-0.005043
40092,1.913608,-15.542043,0.481482,0.527520,-0.319261,-0.024397
40093,4.500862,-12.709525,1.003327,1.836957,-0.775623,0.039642
40094,6.657447,-8.948334,1.864795,2.361321,-0.978885,0.116698
40095,7.768214,-5.512298,2.463375,2.050683,-0.912455,0.193016
40096,7.046462,-4.116028,2.862735,1.197192,-0.649889,0.242642
40097,5.869435,-5.116082,3.382373,0.396296,-0.425497,0.222406
40098,5.332925,-6.960242,4.064360,-0.020186,-0.257068,0.182629
40099,4.831574,-8.010967,4.342570,-0.001802,-0.223170,0.143339
40100,5.019071,-7.307243,4.236886,0.089391,-0.235233,0.108611
40101,5.212795,-6.177973,3.721341,-0.000836,-0.244626,0.071338
40102,5.261463,-5.602878,3.308831,-0.215973,-0.217799,-0.007308
40103,5.362903,-5.925116,2.608300,-0.394117,-0.214792,-0.090219
40104,5.361167,-7.002346,2.182225,-0.339841,-0.223332,-0.163050
40105,5.908121,-7.794363,2.209530,-0.046884,-0.242850,-0.215278
40106,6.562760,-7.527206,2.584689,0.215444,-0.267590,-0.212351
40107,7.247858,-6.785109,2.768661,0.286634,-0.285635,-0.189668
40108,7.722202,-6.693210,2.611755,0.161031,-0.280308,-0.148322
40109,7.491886,-7.009709,2.002661,0.076660,-0.288806,-0.108422
40110,6.664550,-7.430167,1.519450,0.060960,-0.359233,-0.071322
40111,6.463910,-7.753322,1.234227,0.265006,-0.516283,-0.031500
40112,6.123234,-7.975004,1.587160,0.554383,-0.676714,-0.017503
40113,7.007847,-7.861658,1.936671,0.864675,-0.828756,-0.006045
40114,7.617348,-7.395328,2.436516,1.072030,-0.915808,0.023482
40115,7.948416,-5.277142,3.607244,1.116593,-0.945182,0.024755
40116,8.623959,-3.873204,4.828446,0.726086,-0.778448,0.034534
40117,8.688983,-5.016034,4.885467,0.373177,-0.649365,0.068935
40118,8.886578,-6.616268,5.602008,0.276982,-0.505639,0.142952
40119,8.597263,-6.619661,4.508153,0.310947,-0.332590,0.140288
40120,8.118060,-4.529820,4.974941,0.051449,-0.083026,0.160701
40121,8.796627,-4.510328,4.561456,-0.569527,0.256564,0.195748
40122,8.353174,-5.445446,3.875340,-1.045044,0.532224,0.213631
40123,8.196001,-5.890162,3.834267,-1.371522,0.658354,0.254698
40124,7.729630,-5.906035,3.404099,-1.692420,0.729848,0.303520
40125,7.133869,-6.358733,2.671847,-1.929795,0.735045,0.344729
40126,6.222612,-7.628206,1.757938,-1.961580,0.609245,0.394052
40127,5.165498,-9.511363,0.572529,-1.437613,0.326196,0.388109
40128,5.104172,-10.937337,0.805871,-0.370438,-0.106620,0.342013
40129,6.714319,-10.845241,2.229325,0.836281,-0.445388,0.324799
40130,7.644269,-9.346218,3.457400,1.755210,-0.561166,0.343423
40131,7.365880,-7.301757,4.300817,2.147532,-0.544844,0.395436
40132,7.224028,-5.752015,4.230280,1.975328,-0.412700,0.429232
40133,6.986943,-6.095878,3.554844,1.454557,-0.220282,0.496085
40134,6.626060,-6.687363,3.182521,0.916617,-0.043162,0.500491
40135,6.644699,-6.097498,3.848274,0.431617,0.127500,0.473619
40136,7.369172,-5.189129,4.656772,-0.201970,0.378237,0.456611
40137,6.919695,-5.644236,3.969906,-0.884200,0.654408,0.441197
40138,5.534403,-7.339785,2.025065,-1.275288,0.710792,0.445006
40139,4.660978,-8.334479,1.585018,-1.262789,0.558481,0.455758
40140,4.859892,-9.079837,1.524030,-0.989197,0.314154,0.458978
40141,4.743285,-10.425101,1.602540,-0.371616,0.038631,0.457186
40142,5.380696,-10.659382,2.272278,0.518215,-0.314995,0.465313
40143,6.347584,-9.866465,2.300957,1.285358,-0.529683,0.461778
40144,6.866883,-8.411979,2.608203,1.699941,-0.671932,0.530627
40145,7.204963,-7.644806,2.926727,1.741577,-0.666394,0.596604
40146,6.970106,-7.362678,3.137527,1.568848,-0.553926,0.677548
40147,6.600709,-7.396606,3.075385,1.296738,-0.406938,0.721703
40148,6.367075,-7.077650,3.950644,1.023804,-0.223572,0.736054
40149,6.338528,-6.222373,4.914926,0.592296,-0.017581,0.738476
40150,6.503423,-6.063755,5.239817,0.007747,0.207250,0.736601
40151,6.064091,-6.811218,4.907538,-0.491524,0.427463,0.721145
40152,5.704183,-7.512889,3.480600,-0.858848,0.554333,0.710711
40153,4.167928,-8.528512,1.759148,-0.979930,0.499187,0.735995
40154,3.155164,-10.163896,0.986323,-0.723108,0.230077,0.752682
40155,3.598246,-11.070551,1.537175,-0.103360,-0.118259,0.746453
40156,4.266300,-10.729042,2.199961,0.625357,-0.437730,0.755727
40157,4.599429,-10.223557,1.839592,1.179796,-0.703599,0.762611
40158,4.673689,-9.709164,1.296672,1.544767,-0.954772,0.797378
40159,4.853255,-9.507313,0.887821,1.654247,-1.189507,0.866764
40160,5.417769,-8.589093,2.435228,1.652549,-1.312166,0.933922
40161,5.820532,-7.998165,4.207769,1.430703,-1.227807,1.008600
40162,5.596944,-8.405192,4.854175,1.240248,-0.998287,1.041760
40163,5.064323,-8.088994,5.350257,1.128987,-0.734626,1.054069
40164,4.473363,-7.432136,5.426195,0.900953,-0.434201,1.034444
40165,4.123248,-7.044862,5.232646,0.545664,-0.174981,1.012778
40166,3.712429,-7.044123,5.112357,0.165971,0.042628,0.969022
40167,3.450494,-7.346276,4.845894,-0.189723,0.194212,0.939632
40168,3.590169,-7.521885,4.636837,-0.501889,0.277837,0.938185
40169,3.434788,-7.942647,3.679120,-0.814581,0.308694,0.952330
40170,2.501026,-9.143514,1.976330,-0.913764,0.184026,0.977140
40171,1.920667,-10.403880,0.956035,-0.655857,-0.125884,1.003756
40172,2.349717,-11.158183,1.028567,-0.081883,-0.514082,1.009785
40173,3.288531,-11.182930,2.193408,0.624801,-0.871662,1.021752
40174,3.924331,-10.372797,3.660141,1.218881,-1.076511,1.047018
40175,4.238232,-9.479776,4.814114,1.576371,-1.082907,1.090771
40176,4.333317,-8.939187,5.122379,1.647321,-0.950788,1.134721
40177,3.951729,-7.806706,5.901894,1.498064,-0.690718,1.166150
40178,3.632882,-6.720524,7.321445,1.129626,-0.345047,1.159547
40179,3.730747,-6.801271,8.398660,0.703879,0.110920,1.137205
40180,3.525053,-7.418078,8.728087,0.449308,0.607492,1.058715
40181,3.222136,-7.639317,8.398949,0.251676,1.043042,1.010619
40182,3.173671,-7.484749,7.977847,0.025432,1.388763,0.959233
40183,3.378766,-7.395119,7.427008,-0.283718,1.667550,0.923847
40184,3.436929,-7.740660,6.262254,-0.625501,1.875146,0.918001
40185,2.282793,-8.545617,3.921657,-0.911387,1.911608,0.966652
40186,0.670983,-9.453398,2.354015,-0.967564,1.703999,1.054818
40187,-0.207814,-10.346604,1.575688,-0.796961,1.297457,1.139547
40188,0.038119,-11.405729,1.949184,-0.383928,0.812970,1.203883
40189,0.824535,-12.027357,2.473105,0.235009,0.340005,1.256679
40190,1.525673,-11.397798,2.835135,0.817255,-0.048732,1.297662
40191,1.889567,-10.689945,3.513494,1.172065,-0.292138,1.372057
40192,2.173605,-10.795563,3.581736,1.328284,-0.388190,1.442755
40193,2.166094,-10.491689,4.369840,1.459585,-0.365385,1.490468
40194,2.484135,-9.617700,5.810782,1.377288,-0.222715,1.574903
40195,2.329132,-8.581602,6.935961,1.096901,0.078515,1.622941
40196,1.930675,-8.361520,7.657742,0.787098,0.424971,1.651991
40197,1.573930,-8.440322,7.523682,0.518032,0.806289,1.674314
40198,1.001240,-8.204499,6.846920,0.321153,1.151781,1.690317
40199,0.002034,-8.308793,5.755391,0.150961,1.433960,1.693722
40200,-0.876563,-8.640036,4.842595,0.067463,1.593061,1.718755
40201,-1.663150,-8.902293,3.764720,-0.041591,1.621481,1.791239
40202,-2.790926,-9.208826,2.896252,-0.147423,1.494456,1.890733
40203,-3.522322,-9.896522,1.863173,-0.269146,1.228656,2.003240
40204,-3.995764,-10.497482,1.092728,-0.292579,0.861036,2.127017
40205,-3.932196,-10.809112,0.901508,-0.220797,0.434794,2.211214
40206,-3.268439,-10.944160,1.125051,-0.084562,0.015727,2.299998
40207,-2.703918,-10.904711,1.416509,0.048616,-0.330156,2.404876
40208,-2.367622,-10.579833,2.006082,0.212416,-0.606660,2.498436
40209,-1.903705,-10.016186,3.126684,0.380644,-0.784029,2.583296
40210,-1.520435,-9.066604,4.461573,0.537214,-0.836711,2.639581
40211,-1.507373,-8.171778,5.759381,0.706423,-0.763254,2.641963
40212,-1.435467,-7.414024,6.662342,0.854780,-0.584257,2.621709
40213,-1.352589,-6.868769,7.279623,0.985901,-0.325186,2.580958
40214,-1.337289,-6.216383,7.661145,1.116073,-0.028531,2.512601
40215,-1.281282,-5.742715,8.000851,1.173780,0.307146,2.428792
40216,-1.283389,-5.823565,7.838387,1.056590,0.644331,2.380735
40217,-1.658592,-5.117919,7.651605,0.785847,0.962887,2.339836
40218,-2.284128,-4.725840,6.987265,0.281763,1.216538,2.323501
40219,-3.316886,-4.750861,5.386923,-0.336524,1.359283,2.366503
40220,-4.642773,-5.527486,3.825071,-0.894306,1.331557,2.455615
40221,-5.486257,-7.195563,3.038886,-1.141162,1.155079,2.546353
40222,-5.647724,-9.108702,3.014107,-1.015479,0.907346,2.621268
40223,-5.344278,-10.747831,2.997721,-0.593412,0.593835,2.716830
40224,-5.175406,-10.785317,3.078026,0.009122,0.270125,2.791254
40225,-5.127985,-9.873568,3.348366,0.510730,-0.038955,2.867086
40226,-4.964569,-8.279820,3.571484,0.830156,-0.318727,2.932015
40227,-5.229609,-7.234395,4.020206,1.055924,-0.515406,2.959595
40228,-4.827888,-7.270210,4.778644,1.373177,-0.653707,2.962120
40229,-4.505931,-6.603906,6.029629,1.802298,-0.685178,2.933429
40230,-4.233112,-5.849513,7.273570,2.151479,-0.580063,2.898634
40231,-3.896490,-5.057873,8.043381,2.448945,-0.389274,2.838897
40232,-3.983410,-3.906788,8.260327,2.685063,-0.149942,2.759791
40233,-4.114723,-2.551374,8.315388,2.793056,0.112965,2.653579
40234,-4.152291,-1.904320,8.218938,2.728688,0.395709,2.539475
40235,-4.318897,-1.389459,7.835928,2.629599,0.674727,2.386543
40236,-4.524655,-1.166439,7.621114,2.501436,0.941777,2.221104
40237,-4.501399,-1.081577,7.404033,2.355079,1.200965,2.057102
40238,-4.738332,-1.235267,6.724560,2.116646,1.445599,1.931068
40239,-5.494367,-1.311016,5.033413,1.797724,1.580828,1.860786
40240,-6.614050,-1.213065,3.591976,1.444598,1.634684,1.844611
40241,-7.655704,-1.615217,2.462448,1.101229,1.554261,1.858167
40242,-8.239317,-1.922882,2.099957,0.874516,1.345003,1.911954
40243,-8.231556,-2.331340,2.120964,0.720667,1.074072,1.973728
40244,-8.021017,-2.545042,2.125740,0.730669,0.779400,2.020918
40245,-7.818216,-1.527381,2.577175,0.849972,0.442041,2.054552
40246,-7.418272,-0.649718,2.956422,0.927964,0.209723,2.041841
40247,-7.029739,-0.211319,3.427193,1.027655,0.039865,1.965086
40248,-6.688007,0.594908,4.308778,1.112242,-0.054225,1.853843
40249,-6.130075,1.542963,5.624716,1.156831,-0.056149,1.696201
40250,-5.742464,2.561142,6.965662,1.127634,0.024469,1.499280
40251,-5.420305,2.884888,7.913150,1.000926,0.189816,1.296417
40252,-5.520249,2.929254,8.048071,0.864976,0.407418,1.073428
40253,-5.998699,2.708762,7.578014,0.781028,0.643164,0.825613
40254,-6.433409,2.314703,6.577683,0.697612,0.841311,0.597950
40255,-7.075212,2.263652,4.666680,0.570284,0.954775,0.426325
40256,-7.699008,2.513466,3.405462,0.408185,0.993105,0.299187
40257,-8.254002,1.765050,2.605287,0.271113,0.945448,0.196554
40258,-8.449904,0.228343,1.957617,0.291237,0.804235,0.137449
40259,-8.615499,-0.723907,1.998120,0.458214,0.611638,0.107176
40260,-8.426849,-0.726538,2.548037,0.579369,0.376877,0.095101
40261,-8.058635,-0.393952,2.786499,0.504040,0.154838,0.111334
40262,-7.933325,-0.491556,3.159884,0.266255,-0.015853,0.139748
40263,-7.600882,-0.433404,3.485251,0.017328,-0.198874,0.188489
40264,-7.406286,0.179892,4.216052,-0.176052,-0.347042,0.217134
40265,-6.881583,0.406542,5.446385,-0.254325,-0.431103,0.224854
40266,-6.552407,0.283110,6.246107,-0.212165,-0.439475,0.221585
40267,-6.512703,0.210720,7.008861,-0.030717,-0.359185,0.171926
40268,-6.528874,0.775848,7.549171,0.186041,-0.220169,0.064230
40269,-6.547874,1.809359,7.931070,0.327257,-0.016590,-0.080706
40270,-6.471408,2.342473,7.951144,0.318145,0.235143,-0.255405
40271,-6.790093,2.510025,6.715443,0.213883,0.483324,-0.424564
40272,-7.539050,2.643660,5.272608,0.086357,0.657494,-0.576532
40273,-8.370206,2.439147,3.865146,-0.109458,0.751924,-0.690693
40274,-9.333794,1.401951,2.306110,-0.280567,0.728049,-0.747476
40275,-9.987108,0.245652,1.499691,-0.343361,0.577195,-0.777915
40276,-9.921581,-0.505219,1.225993,-0.383420,0.309311,-0.788028
40277,-9.515631,-0.825745,1.256514,-0.498956,-0.012260,-0.744997
40278,-9.183250,-1.107814,1.343015,-0.680097,-0.351856,-0.683022
40279,-8.738810,-1.295757,1.536127,-0.814390,-0.709677,-0.601129
40280,-8.383344,-1.033413,2.252293,-0.865534,-1.028434,-0.539013
40281,-7.836140,-0.684446,3.473723,-0.883961,-1.280733,-0.505400
40282,-7.012662,-0.602143,5.533464,-0.753185,-1.372430,-0.504155
40283,-6.452630,-0.402866,7.425348,-0.535017,-1.325196,-0.537536
40284,-6.469512,-0.004042,8.429620,-0.321266,-1.159682,-0.606765
40285,-6.675934,0.338218,8.734541,-0.135241,-0.916727,-0.699736
40286,-6.583733,1.176470,9.123681,-0.023557,-0.631204,-0.828773
40287,-6.509814,1.859984,9.247925,-0.063006,-0.314498,-0.968356
40288,-6.543954,1.500445,8.747031,-0.164261,0.030279,-1.121247
40289,-6.849361,0.713154,7.784269,-0.221949,0.326411,-1.275116
40290,-7.303669,0.248971,6.483338,-0.300893,0.549849,-1.394409
40291,-8.140735,-0.025851,4.902068,-0.495078,0.681804,-1.469317
40292,-8.983979,-0.473245,3.360044,-0.691741,0.677657,-1.499364
40293,-9.419139,-1.112446,2.156348,-0.875929,0.538801,-1.506321
40294,-9.362004,-1.744704,1.441285,-0.970892,0.277009,-1.479788
40295,-9.036894,-2.442726,1.446923,-0.982264,-0.038518,-1.443896
40296,-8.611762,-3.148656,1.961048,-0.888005,-0.378031,-1.382687
40297,-8.341378,-3.008836,2.711503,-0.674504,-0.707586,-1.342405
40298,-7.761107,-2.721198,4.094487,-0.434277,-0.972127,-1.294194
40299,-7.403456,-2.273515,5.334048,-0.173295,-1.117396,-1.266306
40300,-7.186540,-1.700145,6.870195,0.087355,-1.142187,-1.274985
40301,-6.790892,-1.613831,8.606512,0.325711,-1.035937,-1.286033
40302,-6.695449,-1.731081,9.378369,0.537634,-0.818279,-1.318301
40303,-6.913064,-1.203968,9.454551,0.697006,-0.550380,-1.379699
40304,-7.202276,-0.310398,9.187239,0.675282,-0.243521,-1.468303
40305,-7.566400,-0.110054,8.686891,0.461954,0.120459,-1.584393
40306,-7.947127,-0.734808,7.415878,0.211644,0.407833,-1.701948
40307,-8.011944,-1.209598,6.514972,-0.121232,0.611202,-1.738346
40308,-8.066679,-1.896013,5.338526,-0.548940,0.661060,-1.730935
40309,-7.937090,-2.734718,3.977738,-0.950432,0.572839,-1.667754
40310,-7.886208,-3.921237,3.031239,-1.212724,0.361049,-1.558713
40311,-7.515426,-5.825398,2.278493,-1.222681,0.029744,-1.439183
40312,-6.789284,-7.185186,1.929980,-0.928413,-0.389106,-1.320600
40313,-6.353666,-7.269817,2.502270,-0.517880,-0.762955,-1.240416
40314,-6.101817,-6.580952,3.181184,-0.178344,-1.086651,-1.164437
40315,-6.075105,-5.608312,4.253877,0.051778,-1.258937,-1.102355
40316,-5.723636,-4.924998,5.659872,0.229611,-1.321296,-1.091255
40317,-5.299583,-4.270107,6.964757,0.369174,-1.269131,-1.113516
40318,-5.038245,-3.754430,8.314426,0.368600,-1.076339,-1.151465
40319,-4.668462,-3.409968,9.271810,0.286459,-0.796209,-1.226636
40320,-4.413370,-2.918795,9.625792,0.137342,-0.432906,-1.330950
40321,-4.590198,-2.893710,9.668372,-0.097940,-0.004508,-1.432872
40322,-4.918525,-3.342723,9.251125,-0.344262,0.397013,-1.530765
40323,-5.315243,-3.513558,7.535632,-0.641337,0.696502,-1.600466
40324,-5.882893,-3.644260,5.393494,-0.968930,0.831519,-1.620742
40325,-6.466446,-4.234154,4.062349,-1.267739,0.794551,-1.577770
40326,-6.847451,-5.558413,3.050024,-1.390868,0.548660,-1.492399
40327,-7.135612,-6.950596,2.468894,-1.247842,0.169793,-1.399813
40328,-6.942507,-7.906560,2.444432,-0.872863,-0.305740,-1.323422
40329,-6.317414,-7.949299,2.612675,-0.407357,-0.801910,-1.239900
40330,-6.011735,-7.166932,3.143543,-0.035983,-1.183822,-1.191434
40331,-5.642001,-6.425697,4.450018,0.244636,-1.397866,-1.164354
40332,-5.042517,-5.396455,5.601676,0.380249,-1.479311,-1.145899
40333,-4.777737,-4.525751,6.758956,0.304336,-1.367686,-1.147147
40334,-4.431494,-4.565898,8.060045,0.143652,-1.122451,-1.165535
40335,-4.410833,-4.638195,9.176680,0.004157,-0.761183,-1.219588
40336,-4.290235,-4.156804,9.830808,-0.115793,-0.377818,-1.280905
40337,-4.464057,-3.972454,9.812459,-0.419178,0.085930,-1.327272
40338,-4.787188,-4.511645,8.551651,-0.654454,0.483528,-1.403981
40339,-5.173280,-4.726116,7.329633,-0.859427,0.765097,-1.442164
40340,-5.642568,-5.225003,5.780490,-1.106384,0.882621,-1.443222
40341,-5.740837,-6.067551,4.279942,-1.240665,0.787338,-1.425916
40342,-5.701292,-7.117993,3.213823,-1.172023,0.524265,-1.386416
40343,-5.616581,-8.111076,2.626619,-0.882876,0.145022,-1.336415
40344,-5.222904,-8.518100,2.378905,-0.420749,-0.330998,-1.290109
40345,-4.930520,-8.109912,2.169063,-0.021703,-0.806114,-1.252810
40346,-4.688625,-7.465327,2.449349,0.210659,-1.214989,-1.219570
40347,-4.072930,-6.705754,3.980412,0.346820,-1.489529,-1.214442
40348,-3.095466,-6.194392,5.597569,0.343821,-1.570523,-1.218367
40349,-2.916037,-5.810451,6.722979,0.310767,-1.484855,-1.236207
40350,-3.106352,-4.675980,8.265817,0.149463,-1.297126,-1.261386
40351,-2.882890,-4.003482,9.584927,-0.288749,-0.990879,-1.281044
40352,-2.611133,-4.222946,10.349235,-0.880904,-0.599440,-1.292624
40353,-2.601062,-4.805920,9.988074,-1.458190,-0.186172,-1.303967
40354,-2.848908,-6.465332,8.730232,-1.850184,0.254704,-1.305982
40355,-3.505614,-8.486932,7.161533,-1.814902,0.557222,-1.317715
40356,-3.481245,-9.945679,5.879551,-1.389267,0.725420,-1.337010
40357,-3.521045,-9.953996,5.013067,-0.969739,0.780060,-1.326262
40358,-3.961934,-10.026642,3.745147,-0.607665,0.637822,-1.278077
40359,-4.015011,-9.804860,3.677194,-0.280001,0.349327,-1.231323
40360,-3.763601,-9.824437,3.247052,0.001803,-0.047310,-1.162877
40361,-3.387540,-9.462298,2.972474,0.190739,-0.494312,-1.076101
40362,-2.920164,-8.729705,2.826272,0.281233,-0.907083,-1.016845
40363,-2.428840,-8.500009,3.026823,0.389653,-1.239057,-1.000130
40364,-1.676097,-8.539298,3.697695,0.580079,-1.451111,-0.985008
40365,-1.184491,-7.895331,4.543266,0.797607,-1.490849,-1.016853
40366,-0.784643,-7.205557,5.920608,0.908704,-1.375549,-1.030002
40367,-0.773476,-6.304953,6.856856,0.838034,-1.116750,-1.076647
40368,-1.011088,-5.092522,7.318540,0.590374,-0.821482,-1.134222
40369,-0.961745,-4.181969,7.647131,0.115052,-0.482004,-1.231032
40370,-0.765297,-4.229052,7.091325,-0.433907,-0.131517,-1.323053
40371,-0.550109,-6.399430,5.948895,-0.588229,0.209603,-1.485785
40372,-0.308711,-8.113213,5.080252,-0.223679,0.413605,-1.651279
40373,0.179819,-8.567209,4.435672,0.319775,0.491594,-1.788422
40374,0.707374,-8.333537,3.754318,0.531654,0.448704,-1.800746
40375,1.025225,-8.543407,2.926943,0.412429,0.315151,-1.732342
40376,0.794556,-9.281242,2.134393,0.453490,-0.028189,-1.658095
40377,0.751430,-10.481357,1.709495,0.663441,-0.439006,-1.567920
40378,0.924375,-11.303307,1.179145,1.005639,-0.922817,-1.451160
40379,1.341854,-10.256883,1.856067,1.346803,-1.371811,-1.346219
40380,1.897630,-8.524985,3.405249,1.502714,-1.668708,-1.274520
40381,2.543878,-7.502997,5.028114,1.425586,-1.769257,-1.178465
40382,2.428760,-6.701426,6.505956,1.160648,-1.660320,-1.119016
40383,2.096585,-6.148299,7.609126,0.791373,-1.417299,-1.091109
40384,1.920412,-5.381561,9.023488,0.381295,-1.090299,-1.107764
40385,1.959392,-4.347298,10.729383,-0.213218,-0.664820,-1.163645
40386,1.614423,-4.507976,10.000708,-1.014157,-0.210168,-1.214967
40387,0.615505,-5.937319,8.091689,-1.585639,0.167939,-1.284709
40388,0.135854,-6.869232,7.267159,-1.715642,0.385290,-1.388031
40389,0.920660,-7.859936,7.415283,-1.577192,0.577021,-1.497072
40390,1.411145,-8.897923,6.588300,-1.450239,0.726650,-1.556951
40391,1.158240,-10.177966,4.610443,-1.283973,0.726139,-1.556680
40392,0.414882,-10.272126,3.326794,-1.116013,0.478950,-1.480648
40393,0.365399,-10.264442,2.705282,-0.987205,0.036893,-1.360344
40394,0.903192,-11.104878,2.620777,-0.566482,-0.509899,-1.235439
40395,1.391900,-11.754920,2.562625,0.198913,-1.054553,-1.109312
40396,2.379630,-10.917537,3.210012,1.061247,-1.548495,-1.004315
40397,3.458823,-8.769270,4.946088,1.606728,-1.795580,-0.939102
40398,4.279846,-7.429524,6.277216,1.675453,-1.818234,-0.858799
40399,4.352767,-6.403923,7.513757,1.435087,-1.634953,-0.808713
40400,4.123403,-5.191269,8.284325,0.911565,-1.315291,-0.814091
40401,4.084155,-3.939107,9.409079,0.148300,-0.882697,-0.863693
40402,4.002878,-3.407824,9.626087,-0.840311,-0.431215,-0.928833
40403,3.624505,-3.827182,8.574854,-1.903345,0.040396,-0.992582
40404,3.104233,-4.895215,7.405230,-2.766843,0.380901,-1.048440
40405,3.135235,-7.062512,5.950012,-3.175025,0.602865,-1.103026
40406,3.617161,-9.322054,4.899900,-2.920222,0.714394,-1.169817
40407,4.323045,-10.197004,4.608495,-2.409620,0.758417,-1.219605
40408,5.040180,-10.116594,3.927433,-2.106676,0.773799,-1.200411
40409,4.267530,-9.913885,2.168587,-2.004776,0.669608,-1.117705
40410,3.227663,-10.171143,1.286718,-1.873618,0.362131,-1.002641
40411,2.855228,-11.386447,1.313633,-1.400799,-0.047360,-0.883670
40412,3.212258,-11.668905,2.310267,-0.544575,-0.469618,-0.825409
40413,3.759700,-11.109960,2.865680,0.399811,-0.798556,-0.801279
40414,4.028522,-9.510063,3.660810,1.115417,-0.980991,-0.793884
40415,4.533356,-7.210653,4.824308,1.316439,-1.030605,-0.770987
40416,5.355654,-6.730688,5.593176,1.021661,-0.890327,-0.740457
40417,4.826617,-6.731822,5.739966,0.674333,-0.634815,-0.745485
40418,4.738268,-6.148551,6.401733,0.362974,-0.399422,-0.774723
40419,5.265492,-5.670509,6.842411,-0.014000,-0.090916,-0.832109
40420,5.472733,-5.259450,7.671077,-0.369119,0.265209,-0.915495
40421,5.195555,-5.234477,6.892632,-0.880320,0.600141,-0.995481
40422,5.224492,-5.904921,6.358371,-1.341308,0.836314,-1.053073
40423,6.125236,-7.216435,5.607924,-1.648984,1.036248,-1.123504
40424,6.978205,-8.159767,4.774104,-1.723284,1.184539,-1.187727
40425,7.340246,-8.833181,3.423847,-1.747683,1.253415,-1.175391
40426,5.978243,-9.548373,0.928627,-1.795389,1.136514,-1.007644
40427,4.582544,-9.475093,0.672658,-1.765423,0.727118,-0.777312
40428,4.415322,-10.911171,-0.093012,-1.461248,0.264617,-0.565913
40429,3.971289,-13.138221,-0.160137,-0.306538,-0.308480,-0.452726
40430,5.495907,-12.863913,1.099339,1.372299,-0.882901,-0.386294
40431,7.250513,-10.240870,2.595037,2.655786,-1.171947,-0.318094
40432,7.918038,-7.841201,3.927441,3.090594,-1.118386,-0.227888
40433,7.340744,-5.328704,5.294454,2.884516,-0.908819,-0.155167
40434,6.802429,-3.416976,5.888317,1.902543,-0.547301,-0.120289
40435,6.151185,-3.539662,5.720027,0.792871,-0.188826,-0.154310
40436,6.152537,-3.926300,5.952354,-0.112506,0.064605,-0.218456
40437,5.976327,-5.122362,5.510539,-0.760813,0.287459,-0.306683
40438,5.111836,-5.666472,5.397453,-0.971918,0.333502,-0.414669
40439,5.685108,-5.096850,5.589549,-1.257317,0.354834,-0.475328
40440,5.977101,-6.115588,4.722054,-1.428389,0.363614,-0.511841
40441,5.866391,-8.559251,3.009362,-1.167228,0.314321,-0.531853
40442,5.890076,-9.348577,2.546370,-0.350081,0.128075,-0.564575
40443,6.252731,-8.141497,3.008314,0.303534,-0.021715,-0.549884
40444,6.392141,-7.007230,3.367167,0.623970,-0.160022,-0.496806
40445,6.843505,-6.641081,3.369747,0.669525,-0.288376,-0.446072
40446,7.316097,-6.738974,3.510318,0.649435,-0.375092,-0.384498
40447,7.191060,-6.577888,3.657516,0.609837,-0.415747,-0.339979
40448,6.994648,-6.334849,3.783805,0.543970,-0.427419,-0.308353
40449,6.915305,-6.509220,4.080100,0.536287,-0.418725,-0.291600
40450,6.891923,-6.517395,3.845685,0.585730,-0.419096,-0.258904
40451,7.046359,-7.242561,4.935272,0.486279,-0.331210,-0.188981
40452,6.771481,-6.567058,4.935763,0.689816,-0.334530,-0.243253
40453,6.935877,-4.549966,5.857941,0.607148,-0.298313,-0.211515
40454,7.471111,-4.812389,5.921528,0.216558,-0.127261,-0.236873
40455,7.882399,-5.098553,5.673565,0.041475,0.031812,-0.274927
40456,7.817891,-5.323053,5.442398,-0.104799,0.169535,-0.256123
40457,7.793871,-5.534054,5.721613,-0.117117,0.276653,-0.249355
40458,8.116211,-5.359137,6.110395,-0.156819,0.351184,-0.185520
40459,8.529246,-5.545091,6.265124,-0.249193,0.449582,-0.121078
40460,9.011532,-5.535096,6.392645,-0.347770,0.618647,-0.095564
40461,9.381257,-4.751818,5.980961,-0.581704,0.818989,-0.077561
40462,9.030573,-3.424515,5.001939,-1.051145,0.997938,-0.069351
40463,7.865298,-4.171975,3.350287,-1.593790,1.133459,-0.062091
40464,6.868324,-6.403126,2.319994,-1.693163,1.094294,-0.076388
40465,5.483151,-8.257628,0.722515,-1.390039,0.904904,-0.070261
40466,4.271851,-9.653100,0.594047,-0.737797,0.512461,-0.038863
40467,4.867884,-10.103193,0.320765,-0.011512,0.075587,-0.017273
40468,4.694774,-10.322225,-0.555401,0.705918,-0.318668,0.015679
40469,4.732554,-9.861728,-0.677758,1.330756,-0.761545,0.090348
40470,5.018249,-9.101242,-0.727015,1.758694,-1.187772,0.202356
40471,5.118915,-8.713994,-0.055968,2.131496,-1.598350,0.330290
40472,5.975483,-8.720063,1.591496,2.634919,-1.906280,0.420418
40473,6.924498,-7.520998,4.106977,3.153285,-1.974800,0.435770
40474,7.460849,-4.752030,6.675211,3.307367,-1.748087,0.356232
40475,7.033754,-1.512138,8.577502,2.811640,-1.261425,0.171285
40476,6.230966,1.205972,9.686592,1.516209,-0.640753,-0.070141
40477,5.629047,1.910837,9.795808,-0.181256,-0.040943,-0.322490
40478,5.713445,0.495059,9.097810,-1.850876,0.459966,-0.554482
40479,5.390374,-2.368698,7.274520,-3.050759,0.779645,-0.700158
40480,5.186592,-5.671785,5.511023,-3.486057,0.866129,-0.766868
40481,5.820885,-8.342141,4.254216,-3.126649,0.804344,-0.812894
40482,6.567089,-9.482129,3.408455,-2.323442,0.692332,-0.854289
40483,6.507278,-9.554503,1.724308,-1.541251,0.540454,-0.841350
40484,5.654240,-9.235826,0.837745,-0.864736,0.286970,-0.768605
40485,5.650135,-8.834491,0.804930,-0.404587,-0.033938,-0.664564
40486,6.000180,-9.124710,1.037054,0.040936,-0.354436,-0.551295
40487,6.620430,-9.294912,1.559349,0.577251,-0.665906,-0.445631
40488,7.176702,-8.996612,1.212456,1.067958,-0.910493,-0.363438
40489,7.446151,-8.250436,0.723383,1.485058,-1.162765,-0.287702
40490,7.546814,-7.005405,0.896451,1.678502,-1.365183,-0.206911
40491,7.679568,-6.090189,1.654423,1.661211,-1.528304,-0.137574
40492,8.061745,-5.423724,3.701629,1.629700,-1.566031,-0.106227
40493,8.316632,-4.426655,5.511806,1.484747,-1.389561,-0.134629
40494,8.086024,-3.195554,6.469383,1.227424,-1.055246,-0.246251
40495,7.413913,-1.690738,6.345328,0.626074,-0.617303,-0.417732
40496,6.543753,-0.117616,6.174475,-0.283953,-0.200339,-0.629164
40497,6.405032,0.348767,5.708691,-1.476612,0.168165,-0.832991
40498,6.490929,-0.239959,4.946371,-2.694190,0.431073,-0.998207
40499,6.923114,-1.396849,4.363231,-3.669411,0.572785,-1.092184
40500,7.477898,-3.165784,3.352970,-4.287962,0.669182,-1.159409
40501,7.390361,-6.191471,0.441389,-4.276768,0.648590,-1.213076
40502,6.900936,-8.080250,-0.697357,-3.506584,0.466933,-1.255754
40503,6.931657,-8.571833,-1.010663,-2.519395,0.165430,-1.290962
40504,7.146160,-9.593268,-1.449446,-1.384770,-0.223104,-1.307131
40505,7.884063,-9.610126,-0.110203,-0.174193,-0.583771,-1.287785
40506,9.158961,-9.255153,0.929263,0.819919,-0.890975,-1.228971
40507,9.885019,-8.469984,1.357599,1.503384,-1.082111,-1.129369
40508,9.898098,-7.406217,1.406012,1.902540,-1.247967,-0.997138
40509,9.525638,-6.437400,1.602239,2.012472,-1.342769,-0.875762
40510,9.227667,-5.602938,1.654576,1.909299,-1.407558,-0.794631
40511,8.797418,-4.981358,1.744476,1.683276,-1.447420,-0.733951
40512,8.410538,-4.833455,1.830774,1.431085,-1.451840,-0.706200
40513,8.463300,-4.978999,3.021257,1.320909,-1.409153,-0.692558
40514,9.254438,-4.549173,5.290467,1.189431,-1.197383,-0.714580
40515,9.415676,-3.776088,6.350321,0.918112,-0.808420,-0.757799
40516,9.309851,-2.274492,7.112949,0.358347,-0.316791,-0.843948
40517,8.605377,-1.016196,5.822501,-0.613210,0.226011,-0.934850
40518,7.535950,-0.509423,4.663035,-1.743333,0.662303,-1.037765
40519,7.497841,-1.117246,4.594966,-2.837032,0.973783,-1.162958
40520,8.551067,-2.854268,4.288201,-3.792000,1.219705,-1.263602
40521,8.754438,-5.272061,2.355351,-4.445389,1.373242,-1.269988
40522,7.890254,-8.609397,-0.856002,-4.428556,1.291646,-1.225805
40523,6.542481,-11.347042,-2.594805,-3.588935,0.971895,-1.174987
40524,5.812462,-13.208235,-2.336438,-2.056176,0.435543,-1.149474
40525,6.990462,-14.358221,-0.011334,-0.164418,-0.186880,-1.069465
40526,9.200710,-14.357022,2.015435,1.655540,-0.636795,-0.870328
40527,9.867986,-12.513282,1.913765,3.033898,-0.892592,-0.565364
40528,9.135149,-8.938638,1.339476,3.693789,-1.081047,-0.215409
40529,8.668286,-5.684356,0.484228,3.594039,-1.202999,0.082812
40530,8.518406,-4.437956,-0.041428,3.144173,-1.191135,0.245548
40531,8.550828,-3.997492,1.730966,2.737971,-1.053412,0.267663
40532,8.725189,-2.485450,4.793134,2.307142,-0.735289,0.183825
40533,8.595779,-0.202793,6.810259,1.572245,-0.291538,0.046853
40534,8.054786,1.959258,7.285878,0.465756,0.207736,-0.141508
40535,6.955846,2.708883,5.755172,-0.983386,0.682535,-0.330154
40536,5.841216,2.059552,4.555227,-2.377624,1.005008,-0.526814
40537,5.789485,0.572920,4.132278,-3.552971,1.201858,-0.703798
40538,6.645818,-1.374400,3.754846,-4.273261,1.325443,-0.817144
40539,7.471981,-3.673213,2.497676,-4.572226,1.366110,-0.850751
40540,7.464211,-6.524441,0.045351,-4.184559,1.198306,-0.820891
40541,7.149852,-8.594657,-1.507756,-3.231500,0.861010,-0.778262
40542,6.731733,-10.480149,-2.340906,-1.759558,0.346440,-0.723873
40543,7.764568,-11.704324,-1.054830,0.088794,-0.238466,-0.668403
40544,9.933159,-11.960934,0.869610,1.975649,-0.750211,-0.529818
40545,11.488878,-10.986078,0.799753,3.582616,-1.114901,-0.284823
40546,11.556990,-9.058486,-0.116873,4.828431,-1.406048,0.000646
40547,11.324209,-6.746210,-0.534438,5.460231,-1.575206,0.310675
40548,11.095077,-5.079651,-0.336334,5.541940,-1.635582,0.592406
40549,11.088970,-3.889506,0.099830,5.304705,-1.627838,0.804218
40550,10.959395,-2.608797,0.883024,4.875519,-1.546365,0.960451
40551,10.611569,-1.089663,2.961442,4.329814,-1.333653,1.004463
40552,9.737331,1.202413,5.464641,3.518461,-0.905583,0.883381
40553,7.446794,2.544155,6.230345,2.286539,-0.397774,0.673812
40554,5.645735,2.082588,5.877940,1.114789,-0.059976,0.384799
40555,5.662228,0.713062,5.619257,0.175360,0.143363,0.068630
40556,6.682310,-0.264852,5.291701,-0.630451,0.325933,-0.187133
40557,7.050803,-1.380612,4.285716,-1.251474,0.464674,-0.374894
40558,6.990875,-1.733615,3.784076,-1.648390,0.548294,-0.542881
40559,6.893428,-1.620875,3.850087,-1.956395,0.672106,-0.700098
40560,7.360154,-1.535678,3.732342,-2.277008,0.792295,-0.841610
40561,8.482207,-2.129125,3.130260,-2.596654,0.840440,-0.877976
40562,9.210465,-4.179624,1.227371,-2.721338,0.829253,-0.838036
40563,8.588702,-7.472124,-1.000132,-2.184939,0.682315,-0.788453
40564,7.897257,-9.712552,-1.499350,-0.950514,0.367094,-0.742672
40565,8.419704,-9.708274,-0.167625,0.501496,-0.025980,-0.710788
40566,9.897108,-7.854595,1.446265,1.716818,-0.295202,-0.665991
40567,10.812935,-5.809575,2.448153,2.517441,-0.407800,-0.577774
40568,11.004907,-4.111242,3.156294,2.911673,-0.421823,-0.433642
40569,10.648308,-2.593874,3.846149,2.942811,-0.350361,-0.307280
40570,10.208243,-1.239301,4.214401,2.573497,-0.203061,-0.225618
40571,9.553301,-0.179393,4.222947,1.954497,-0.040745,-0.215659
40572,8.940670,0.468460,3.836721,1.119505,0.103558,-0.248664
40573,8.437927,0.262811,3.018951,0.240878,0.195539,-0.302095
40574,8.187023,-0.546306,2.383113,-0.497992,0.251728,-0.379647
40575,8.184901,-1.261919,2.174011,-1.054788,0.292671,-0.478996
40576,8.443797,-1.794483,2.329693,-1.426840,0.332701,-0.585806
40577,8.739009,-1.808569,2.155820,-1.690909,0.383651,-0.695866
40578,8.799188,-1.374817,1.939386,-1.923753,0.436988,-0.794681
40579,8.708859,-1.118677,1.290085,-2.214326,0.445177,-0.866467
40580,8.679927,-1.234450,0.461022,-2.454040,0.431705,-0.915551
40581,8.801886,-1.841506,0.026700,-2.587690,0.391161,-0.957979
40582,9.057694,-2.442034,0.163230,-2.653254,0.329950,-0.956999
40583,9.377665,-2.943486,0.738607,-2.685202,0.271290,-0.904266
40584,9.806617,-3.345965,1.404398,-2.683981,0.220152,-0.810354
40585,10.039453,-3.530261,1.843594,-2.662220,0.185252,-0.694085
40586,10.185229,-3.520263,2.330629,-2.599410,0.165243,-0.561574
40587,10.289020,-3.547737,2.571031,-2.498514,0.144978,-0.432409
40588,10.402274,-3.539300,2.703782,-2.361975,0.134122,-0.318686
40589,10.290061,-3.590565,2.672550,-2.182538,0.137371,-0.209235
40590,9.981895,-3.660337,2.534633,-1.973299,0.115172,-0.103500
40591,9.694209,-3.818481,2.410178,-1.735824,0.073835,-0.012334
40592,9.609678,-4.061345,2.367246,-1.455240,0.032073,0.046919
40593,9.523756,-4.213303,2.326666,-1.129558,-0.004279,0.087290
40594,9.444969,-4.211821,2.342381,-0.802663,-0.032802,0.108876
40595,9.400562,-4.169375,2.282155,-0.496348,-0.046173,0.119127
40596,9.350926,-4.057873,2.182224,-0.218150,-0.051437,0.114929
40597,9.294322,-3.953633,2.111949,0.022408,-0.047771,0.107756
40598,9.188104,-3.735474,2.048034,0.207534,-0.040204,0.100339
40599,9.167784,-3.540495,1.971502,0.334567,-0.035921,0.089907
40600,9.106726,-3.174213,1.942004,0.394036,-0.028408,0.076238
40601,9.132061,-2.875791,1.958178,0.382468,-0.023578,0.074014
40602,9.170649,-2.814663,1.931767,0.329957,-0.016247,0.075290
40603,9.223814,-2.856539,1.931286,0.278524,-0.009634,0.071492
40604,9.286963,-2.852208,1.905075,0.229880,-0.003679,0.077780
40605,9.340372,-2.809137,1.903353,0.177082,0.004440,0.087550
40606,9.310168,-2.794397,1.912053,0.120679,0.010752,0.098908
40607,9.354062,-2.816479,1.861614,0.065617,0.016197,0.109621
40608,9.312890,-2.914158,1.756050,0.024360,0.017507,0.121247
40609,9.297061,-3.020341,1.717792,0.011059,0.013668,0.131860
40610,9.227771,-3.140054,1.680117,0.026262,0.000663,0.139562
40611,9.209686,-3.193254,1.646635,0.047992,-0.015054,0.149710
40612,9.253853,-3.172808,1.658218,0.088962,-0.024992,0.147458
40613,9.258958,-3.123970,1.704896,0.109678,-0.038513,0.150079
40614,9.223315,-3.094547,1.720765,0.131381,-0.050977,0.153143
40615,9.188029,-3.064513,1.736160,0.153398,-0.062157,0.148070
40616,9.217052,-3.054552,1.855812,0.165181,-0.072462,0.142309
40617,9.216447,-2.976279,1.853188,0.164313,-0.074856,0.134950
40618,9.223773,-2.924262,1.897103,0.152722,-0.072347,0.128735
40619,9.151251,-2.862624,1.945677,0.124901,-0.072758,0.118369
40620,9.183250,-2.824756,1.924890,0.100019,-0.075106,0.111147
40621,9.204266,-2.873093,1.995828,0.084979,-0.069206,0.104510
40622,9.247666,-2.866762,2.080980,0.074423,-0.066811,0.087004
40623,9.275606,-2.791634,2.143751,0.052658,-0.056154,0.078762
40624,9.293446,-2.777330,2.160900,0.027753,-0.050602,0.064064
40625,9.247692,-2.835552,2.134536,0.010640,-0.039644,0.055442
40626,9.262805,-2.907933,2.153743,0.004481,-0.035637,0.044728
40627,9.209173,-2.922887,2.152749,0.011756,-0.033278,0.029720
40628,9.216614,-2.951537,2.197500,0.027323,-0.030209,0.025195
40629,9.239473,-2.953086,2.204788,0.049908,-0.023465,0.012870
40630,9.224549,-2.939064,2.176345,0.062984,-0.025031,0.004282
40631,9.217369,-2.950458,2.195777,0.082306,-0.017598,-0.002994
40632,9.164571,-2.959642,2.199065,0.090079,-0.010860,-0.009435
40633,9.199717,-2.964691,2.178090,0.098695,-0.007551,-0.019712
40634,9.188769,-2.913539,2.145584,0.095605,-0.001019,-0.022975
40635,9.190083,-2.924063,2.076900,0.088587,0.007054,-0.036135
40636,9.198630,-2.905803,2.061042,0.072775,0.017065,-0.045374
40637,9.189091,-2.961747,2.019491,0.062254,0.018097,-0.050435
40638,9.232993,-3.005827,1.975746,0.049176,0.020990,-0.054411
40639,9.250797,-3.082512,1.930675,0.051806,0.022355,-0.062782
40640,9.305654,-3.063650,1.932165,0.051703,0.020424,-0.067993
40641,9.254102,-3.068118,1.937752,0.045196,0.023151,-0.070482
40642,9.297928,-3.056573,1.898993,0.042195,0.021858,-0.066369
40643,9.330804,-3.091608,1.886417,0.030236,0.018637,-0.068843
40644,9.295312,-3.125559,1.847301,0.032969,0.011543,-0.063530
40645,9.281735,-3.105998,1.821575,0.034402,0.015122,-0.059843
40646,9.252835,-3.112725,1.834375,0.036127,0.006313,-0.048658
40647,9.292239,-3.121387,1.872705,0.040654,0.003382,-0.041652
40648,9.263691,-3.145354,1.813486,0.045266,0.002389,-0.029415
40649,9.206956,-3.133536,1.829298,0.053463,0.000616,-0.017872
40650,9.211709,-3.151976,1.818788,0.066026,-0.007956,-0.009791
