// Start Time: Unknown
// Update Rate: 100.0Hz
// Filter Profile: human (46.1)
// Firmware Version: 4.3.5
PacketCounter,Acc_X,Acc_Y,Acc_Z,Gyr_X,Gyr_Y,Gyr_Z
26295,9.895287,0.176031,0.821430,-0.058157,0.003050,0.030743
26296,9.754163,0.131829,1.038164,-0.049933,-0.000172,0.007642
26297,9.793923,-0.040108,1.135368,-0.041256,-0.002172,-0.013133
26298,9.803693,-0.314299,1.231014,0.009292,-0.000901,-0.041609
26299,9.880451,-0.477689,1.230534,0.072879,-0.019722,-0.072427
26300,9.956713,-0.567610,1.132207,0.161600,-0.024426,-0.099388
26301,9.976581,-0.501300,0.935462,0.257906,-0.039096,-0.114675
26302,10.003204,-0.243741,0.812169,0.308277,-0.028715,-0.120892
26303,9.996723,-0.023434,0.663631,0.313201,-0.015490,-0.102070
26304,9.918274,0.190991,0.636033,0.288609,0.002366,-0.077812
26305,9.789057,0.382585,0.583747,0.234455,0.018542,-0.055134
26306,9.719080,0.418701,0.534568,0.170901,0.025318,-0.033826
26307,9.688280,0.351622,0.512106,0.126614,0.024553,-0.029693
26308,9.728966,0.218916,0.540759,0.120071,0.019796,-0.022796
26309,9.782612,0.173422,0.568598,0.150205,0.019765,-0.029308
26310,9.808384,0.318087,0.641799,0.170105,0.017327,-0.031296
26311,9.853897,0.412479,0.715957,0.179453,0.023518,-0.033443
26312,9.913309,0.560050,0.814452,0.171357,0.035744,-0.027774
26313,9.924520,0.652093,0.865085,0.151165,0.049455,-0.025780
26314,9.941999,0.639197,0.870704,0.109897,0.065602,-0.020687
26315,9.924933,0.623577,0.877158,0.067206,0.075090,-0.014461
26316,9.861751,0.549986,0.762778,0.033200,0.082933,-0.012738
26317,9.901566,0.481834,0.675690,0.018969,0.082184,-0.008333
26318,9.885793,0.430541,0.709317,0.006174,0.088140,-0.005111
26319,9.836730,0.376574,0.694253,-0.001167,0.101656,-0.015716
26320,9.823171,0.291662,0.706774,0.002127,0.118676,-0.028456
26321,9.756938,0.222173,0.718338,0.018248,0.121263,-0.033919
26322,9.750123,0.296317,0.801321,0.030278,0.116482,-0.033627
26323,9.848306,0.341298,0.888295,0.020735,0.122088,-0.026887
26324,9.851617,0.274312,0.877747,0.000446,0.123652,-0.022663
26325,9.819501,0.238563,0.841230,-0.001894,0.130122,-0.013473
26326,9.838263,0.222359,0.806042,0.002183,0.125752,-0.012173
26327,9.841771,0.187121,0.745883,0.004762,0.120692,-0.007437
26328,9.804569,0.220236,0.755249,0.006588,0.113671,-0.002711
26329,9.820969,0.237832,0.741905,-0.001554,0.107842,0.002925
26330,9.788667,0.233682,0.677673,-0.010116,0.100778,0.006237
26331,9.687840,0.258897,0.559528,-0.024779,0.077475,0.004835
26332,9.638099,0.303576,0.440724,-0.040364,0.055766,0.018411
26333,9.694458,0.251246,0.399375,-0.059459,0.024442,0.024988
26334,9.639826,0.263593,0.447564,-0.084111,0.012028,0.034821
26335,9.638912,0.259841,0.472092,-0.118831,-0.014599,0.044450
26336,9.707578,0.191088,0.572126,-0.146209,-0.031019,0.055406
26337,9.720718,0.137115,0.741565,-0.160436,-0.037837,0.057436
26338,9.737970,0.080963,0.812635,-0.152437,-0.044300,0.054222
26339,9.749129,0.129183,0.904673,-0.120267,-0.066470,0.044626
26340,9.825200,0.286351,0.972072,-0.069836,-0.069770,0.008808
26341,10.046233,0.543355,1.190951,-0.078059,-0.057247,-0.028357
26342,10.174913,0.362735,1.243362,-0.143630,-0.030060,-0.041314
26343,10.242309,-0.186385,1.129533,-0.187652,0.008827,-0.041000
26344,10.222525,-1.016898,0.968035,-0.131560,0.040670,-0.037369
26345,10.059803,-1.524301,0.946193,0.060853,0.048885,-0.021679
26346,10.002493,-1.437540,0.974160,0.289718,0.031692,-0.005143
26347,10.016066,-1.018942,0.952599,0.487591,0.027203,0.012286
26348,9.873113,-0.523736,0.846880,0.606240,0.017412,0.017961
26349,9.699948,-0.034249,0.635185,0.645224,-0.006974,0.026707
26350,9.497121,0.282326,0.075956,0.601283,-0.057045,0.044031
26351,9.016278,0.774886,-0.730875,0.509235,-0.142369,0.055803
26352,8.718706,1.224902,-1.370563,0.341640,-0.278851,0.080151
26353,8.883205,1.323697,-1.427405,0.133599,-0.410738,0.124545
26354,9.313360,1.290376,-0.866757,-0.105195,-0.475433,0.166535
26355,9.511020,1.410235,-0.053587,-0.358113,-0.476864,0.173241
26356,9.598241,1.196391,0.504295,-0.574577,-0.455963,0.176711
26357,9.755548,0.713161,0.878557,-0.721857,-0.406853,0.156460
26358,9.911399,0.262864,1.347411,-0.762905,-0.352896,0.119678
26359,10.011392,-0.071098,1.908689,-0.691890,-0.308160,0.088747
26360,10.372752,-0.013142,2.687332,-0.528402,-0.240369,0.032275
26361,10.821190,0.035788,3.695871,-0.342092,-0.102191,-0.045881
26362,11.325115,-0.092112,4.649657,-0.085860,0.090790,-0.135871
26363,11.599386,0.166762,4.720784,0.113309,0.298185,-0.235053
26364,10.598177,0.115234,3.020969,0.285879,0.425799,-0.312695
26365,9.997519,-0.060192,1.154064,0.608411,0.391434,-0.362597
26366,10.920909,-0.755023,0.760227,0.819844,0.422337,-0.318585
26367,11.110594,-0.618000,1.358955,0.906350,0.554541,-0.324389
26368,10.771456,0.252927,1.684799,0.889621,0.633121,-0.358926
26369,10.518987,0.739628,1.357945,0.810055,0.664325,-0.346118
26370,9.753629,0.550188,0.252108,0.698592,0.646458,-0.309941
26371,8.212247,0.400995,-1.496890,0.601372,0.479502,-0.306020
26372,7.343761,0.456320,-3.307700,0.536037,0.159171,-0.272918
26373,7.552484,0.194708,-4.040151,0.381475,-0.141234,-0.172092
26374,8.425110,-0.026292,-3.215259,0.152829,-0.310696,-0.049442
26375,9.351565,-0.199972,-1.618398,-0.156190,-0.308675,0.045327
26376,9.611775,-0.713076,-0.278061,-0.405112,-0.279097,0.167492
26377,9.651755,-1.201746,0.457981,-0.530444,-0.268280,0.320434
26378,9.749202,-1.580555,0.716800,-0.557564,-0.293884,0.445640
26379,10.089859,-1.628965,1.253679,-0.464908,-0.300538,0.509414
26380,10.829001,-1.559657,2.826530,-0.251924,-0.236787,0.528349
26381,11.719380,-1.590198,4.889173,0.016134,-0.018020,0.540517
26382,12.028903,-0.854761,6.149614,0.262442,0.297666,0.493624
26383,11.920375,-0.268876,5.582725,0.448017,0.587392,0.435882
26384,10.717202,-0.384369,3.663637,0.632095,0.739409,0.372683
26385,9.821531,-0.367844,1.493553,0.880748,0.647986,0.264971
26386,10.257615,-0.415630,0.628702,1.122618,0.588902,0.168589
26387,10.556382,0.101044,0.815560,1.180374,0.644805,0.103181
26388,9.861349,1.271411,0.451057,1.085044,0.688260,0.035245
26389,8.766840,2.216812,-0.740495,0.847476,0.590255,-0.022594
26390,8.062662,2.234023,-2.422407,0.516092,0.371727,-0.045833
26391,7.684687,1.527047,-3.638998,0.210001,0.126955,-0.044610
26392,7.794658,0.963198,-3.438805,0.027935,-0.103757,-0.058671
26393,8.436264,0.719643,-1.545399,-0.111530,-0.251076,-0.041048
26394,9.408039,0.799606,0.250434,-0.357100,-0.263134,0.036328
26395,9.599382,1.272364,1.473577,-0.626581,-0.184473,0.104469
26396,10.153933,1.118925,3.614906,-0.756307,-0.101605,0.141065
26397,11.588127,0.335131,6.064918,-0.824048,0.133976,0.194860
26398,12.165093,-0.054108,6.865547,-0.875257,0.497094,0.220141
26399,11.342703,-0.481857,5.948820,-0.784680,0.773784,0.223275
26400,10.609406,-1.564299,4.037069,-0.525951,0.817556,0.222116
26401,10.469904,-2.809149,1.855695,-0.120578,0.712453,0.180487
26402,10.341161,-3.150854,0.365087,0.370949,0.584249,0.108094
26403,10.038588,-2.581063,-0.305336,0.749104,0.497810,0.053868
26404,9.381212,-1.703845,-0.909046,0.938508,0.416705,0.047710
26405,8.137831,-0.803152,-2.158688,0.938581,0.264436,0.067369
26406,7.173678,-0.293541,-3.821899,0.820241,-0.035070,0.121699
26407,7.015686,-0.259068,-4.676335,0.667541,-0.369673,0.191499
26408,8.108406,-0.516186,-3.098819,0.491165,-0.574846,0.305234
26409,9.294682,-0.185495,-0.913411,0.096110,-0.593638,0.477276
26410,9.362671,0.719220,0.132686,-0.390902,-0.558405,0.613501
26411,9.380492,1.253491,0.877945,-0.867709,-0.583049,0.723202
26412,9.910605,1.023672,2.102143,-1.253189,-0.602743,0.796169
26413,11.382587,0.195291,5.244090,-1.434730,-0.478917,0.788916
26414,13.121271,-0.392927,8.396191,-1.545680,-0.087579,0.746241
26415,13.236074,-0.402938,9.042128,-1.452269,0.385917,0.669738
26416,11.624344,-1.408496,7.236580,-1.088728,0.712871,0.592659
26417,10.578478,-3.441428,4.739965,-0.445160,0.787614,0.516037
26418,9.882881,-4.413650,2.218501,0.293357,0.669796,0.385417
26419,9.030436,-3.970551,0.081145,0.964827,0.439929,0.262309
26420,8.709933,-3.262407,-1.618240,1.439121,0.214472,0.193533
26421,8.349025,-2.637001,-2.902175,1.665957,0.075067,0.192675
26422,7.795187,-1.854762,-3.466078,1.692915,-0.058135,0.210990
26423,7.680188,-1.074353,-3.333869,1.492363,-0.232956,0.276921
26424,8.062049,-0.357439,-2.241572,1.175468,-0.376914,0.378539
26425,9.225453,0.200106,0.010382,0.727424,-0.397271,0.538443
26426,9.988239,1.035846,1.455016,0.123388,-0.280944,0.696441
26427,9.805571,1.698803,2.005183,-0.497451,-0.168274,0.799313
26428,9.598326,1.164322,2.512081,-1.014698,-0.148875,0.850914
26429,10.257886,-0.077021,4.162991,-1.276189,-0.106559,0.813448
26430,11.716398,-0.679252,5.957964,-1.436170,0.103898,0.750957
26431,11.597700,-0.645211,6.319933,-1.352721,0.424215,0.638160
26432,11.256371,-1.272724,6.216937,-1.123831,0.673625,0.547540
26433,11.034394,-2.665783,4.894345,-0.877637,0.850422,0.513261
26434,9.916578,-4.520209,2.899029,-0.318383,0.915905,0.450016
26435,9.269077,-5.238822,2.156531,0.376390,0.867390,0.384217
26436,9.077030,-4.903826,0.863645,0.903773,0.789044,0.370369
26437,7.921952,-3.959387,-1.547974,1.267325,0.633352,0.358302
26438,7.291676,-3.318415,-3.516879,1.517379,0.291756,0.402598
26439,7.817665,-3.307874,-4.115031,1.513658,-0.008166,0.490545
26440,8.462743,-2.736241,-3.406716,1.291070,-0.164531,0.595763
26441,8.908380,-1.488487,-1.789074,0.948914,-0.262895,0.673983
26442,9.574234,-0.500652,0.183252,0.504656,-0.292863,0.760929
26443,9.998705,0.320889,1.612375,-0.048475,-0.223628,0.864717
26444,9.734640,1.078327,2.398850,-0.620359,-0.161895,0.914579
26445,9.728558,1.235244,3.493830,-1.113275,-0.140703,0.908890
26446,11.160649,0.331167,6.246517,-1.461666,-0.012478,0.893384
26447,12.380986,-0.319083,7.898546,-1.816977,0.354564,0.829815
26448,11.282423,-0.761937,7.261331,-1.876171,0.724145,0.677973
26449,9.540721,-2.896926,5.391286,-1.609040,0.835805,0.591956
26450,8.577963,-5.614652,2.833810,-0.960116,0.699615,0.546587
26451,8.548258,-7.111959,1.077223,-0.121221,0.435889,0.483917
26452,8.775812,-7.406463,-0.253497,0.678260,0.201801,0.376407
26453,7.965835,-6.597779,-2.477185,1.385401,0.005072,0.268091
26454,7.128137,-5.193989,-4.273234,1.937397,-0.204999,0.228342
26455,7.081150,-4.110686,-4.780966,2.185975,-0.370790,0.304653
26456,7.268100,-3.090142,-4.037445,2.115287,-0.496213,0.399655
26457,7.936642,-1.715890,-1.826154,1.814120,-0.568689,0.466032
26458,8.879876,-0.351089,0.711238,1.202049,-0.534231,0.577459
26459,9.326076,1.014346,1.929410,0.403506,-0.414380,0.678245
26460,9.634823,2.501618,2.956156,-0.522094,-0.328487,0.763677
26461,10.299037,3.050707,4.097333,-1.560216,-0.290989,0.806701
26462,11.401607,1.475793,6.930513,-2.295096,-0.123066,0.760153
26463,12.325036,-1.138201,8.668535,-2.756358,0.179565,0.639475
26464,10.764312,-3.249215,6.716035,-2.591819,0.455658,0.468427
26465,9.256741,-5.767928,5.773587,-2.006436,0.462563,0.358643
26466,8.675758,-8.840898,3.086542,-1.109042,0.264576,0.312552
26467,7.893343,-10.244078,-0.922236,0.181954,0.013301,0.200197
26468,7.399376,-9.362446,-3.703979,1.416373,-0.252926,0.069070
26469,7.334773,-7.250487,-5.049926,2.264486,-0.458550,0.073096
26470,7.425140,-4.559288,-4.317680,2.513265,-0.512266,0.171754
26471,7.439079,-2.076674,-3.252582,2.280199,-0.593443,0.274211
26472,8.128036,0.555961,-1.154891,1.708125,-0.674818,0.336805
26473,8.796993,2.504650,0.253990,0.610320,-0.687979,0.454163
26474,9.115877,3.179847,0.786304,-0.716205,-0.692392,0.593003
26475,9.505040,2.775358,1.538395,-2.046261,-0.691638,0.703485
26476,9.783588,1.608650,2.857369,-3.001435,-0.743924,0.696985
26477,10.591412,-0.656544,6.614029,-3.449731,-0.582584,0.499704
26478,11.319389,-3.472315,6.723477,-3.413877,-0.297301,0.297799
26479,9.580214,-4.556919,3.906619,-2.806383,-0.099570,0.122015
26480,9.358348,-6.043195,3.941561,-2.003865,-0.133577,-0.028119
26481,10.654356,-7.881890,3.059074,-0.972130,-0.112338,-0.077046
26482,9.410815,-8.990399,-0.337092,0.204495,-0.140942,-0.214805
26483,7.961765,-9.116719,-3.131653,1.273389,-0.339629,-0.369437
26484,7.606272,-8.946606,-4.838705,2.061553,-0.554683,-0.334359
26485,7.258812,-7.121880,-4.843418,2.502087,-0.693460,-0.205376
26486,7.589590,-4.019747,-2.924051,2.359970,-0.841786,-0.044158
26487,9.154779,-1.476395,-0.591821,1.750402,-0.853149,0.104760
26488,9.914755,0.184448,1.081826,0.869280,-0.635787,0.212929
26489,9.564325,0.811484,1.598116,-0.093089,-0.473361,0.312452
26490,9.583350,0.617152,1.893095,-0.940949,-0.428520,0.366674
26491,9.854326,-0.640024,2.893366,-1.549735,-0.373445,0.329566
26492,10.350970,-2.945893,4.446226,-1.639702,-0.222001,0.194212
26493,10.238125,-4.080632,4.793366,-1.330445,0.005773,0.037749
26494,9.517928,-4.582174,3.687234,-0.816292,0.106906,-0.085892
26495,8.839844,-5.836741,1.509579,-0.168122,0.074513,-0.144775
26496,8.394497,-7.015835,-0.473745,0.576442,-0.059091,-0.201348
26497,8.453284,-7.647746,-2.125786,1.241705,-0.224452,-0.232945
26498,8.115964,-7.219317,-3.771605,1.743801,-0.364602,-0.223514
26499,8.174804,-5.662848,-3.538901,1.984686,-0.480777,-0.162647
26500,8.857046,-3.636323,-2.110553,1.890327,-0.524872,-0.095374
26501,9.352220,-1.588510,-0.688938,1.469316,-0.475238,-0.053843
26502,9.562600,-0.288020,0.512447,0.817039,-0.381565,-0.009128
26503,9.907520,-0.281448,1.454388,0.149460,-0.262863,0.081114
26504,9.731093,-0.949842,1.703576,-0.395919,-0.144939,0.168489
26505,9.003503,-1.476542,1.289600,-0.741212,-0.140737,0.167551
26506,8.955215,-2.244087,0.836888,-0.929265,-0.223351,0.110428
26507,9.303517,-2.867813,0.623543,-0.920854,-0.278492,0.049691
26508,9.763813,-3.142291,0.922549,-0.718793,-0.272316,-0.038729
26509,10.036775,-3.416723,0.917100,-0.450765,-0.221558,-0.098285
26510,10.022744,-3.704311,0.646554,-0.179289,-0.158635,-0.148498
26511,9.800638,-3.952461,0.350761,0.111466,-0.113263,-0.185385
26512,9.636665,-3.359820,0.009340,0.376317,-0.096505,-0.212628
26513,9.625643,-2.238524,-0.073523,0.467552,-0.116056,-0.229519
26514,9.995850,-1.381624,-0.039076,0.314327,-0.112271,-0.229517
26515,9.870739,-0.533222,-0.546542,0.049065,-0.092007,-0.236615
26516,9.707805,0.045445,-0.828167,-0.280662,-0.118191,-0.258308
26517,9.644704,0.295648,-1.156869,-0.656370,-0.194335,-0.277836
26518,10.101964,-0.250422,-0.609418,-1.030879,-0.236822,-0.264129
26519,9.988924,-1.023003,-0.339904,-1.296217,-0.224621,-0.308359
26520,9.752377,-1.346969,-0.213374,-1.473491,-0.252894,-0.369419
26521,9.839927,-1.837394,-0.237708,-1.584369,-0.300776,-0.440812
26522,10.411607,-2.373818,0.397653,-1.577521,-0.254900,-0.507851
26523,10.650811,-2.776476,1.732035,-1.439542,-0.129189,-0.613331
26524,11.128950,-3.075809,2.981561,-1.295442,0.057001,-0.715199
26525,10.987099,-3.201089,3.686629,-1.092216,0.299490,-0.762803
26526,10.661518,-3.212899,4.014879,-0.854696,0.471751,-0.820032
26527,10.397536,-3.315110,2.617369,-0.603476,0.549086,-0.829990
26528,9.599460,-3.819351,0.004166,-0.288597,0.515075,-0.789310
26529,9.465156,-4.761240,-1.852168,0.064302,0.389121,-0.731381
26530,9.875224,-5.196478,-2.814656,0.384009,0.320036,-0.651432
26531,9.582110,-4.783248,-3.349033,0.612609,0.279894,-0.580396
26532,8.949864,-3.710293,-3.820063,0.758551,0.148870,-0.521490
26533,8.833958,-2.544174,-3.709901,0.685277,-0.029592,-0.463552
26534,9.196972,-1.689131,-2.846661,0.335287,-0.130620,-0.369023
26535,9.569762,-1.084190,-1.511838,-0.088534,-0.156689,-0.265137
26536,9.829255,-0.613835,-0.077632,-0.492789,-0.135388,-0.195390
26537,10.236458,-0.365926,1.647936,-0.800132,-0.068044,-0.180090
26538,10.699063,-0.461926,2.744635,-1.039334,0.073007,-0.188744
26539,10.584188,-1.084244,3.139264,-1.101375,0.218525,-0.233680
26540,10.635479,-1.858790,2.983368,-1.028223,0.332566,-0.271866
26541,10.386710,-2.809603,1.827221,-0.819082,0.389236,-0.297569
26542,10.197716,-3.667142,0.936156,-0.443092,0.389678,-0.324074
26543,10.620106,-4.262642,0.458364,-0.052017,0.427591,-0.346155
26544,10.185858,-3.994042,-0.759434,0.287341,0.477374,-0.371779
26545,9.395586,-3.541906,-1.950565,0.636908,0.425292,-0.393899
26546,9.097553,-3.181715,-2.335212,0.796206,0.311922,-0.359078
26547,8.943086,-2.443142,-2.604978,0.780982,0.203977,-0.340604
26548,8.746075,-1.395083,-2.401711,0.661166,0.106023,-0.337509
26549,9.049030,-0.550345,-1.283031,0.404105,0.024385,-0.325729
26550,9.748408,-0.136510,0.227087,0.041574,0.047501,-0.301019
26551,10.152258,0.053630,1.452852,-0.324685,0.156800,-0.288537
26552,10.317572,0.052790,2.252874,-0.608153,0.264333,-0.296982
26553,10.413284,-0.288716,2.592394,-0.782748,0.357049,-0.312948
26554,10.825567,-0.828864,3.000309,-0.805407,0.443786,-0.349348
26555,11.543125,-1.432606,3.803925,-0.695260,0.595779,-0.376031
26556,12.068243,-2.059957,4.313038,-0.519791,0.831435,-0.396933
26557,11.981698,-2.609614,4.316493,-0.240033,1.073235,-0.397165
26558,11.721920,-3.285766,3.824434,0.125001,1.243502,-0.369169
26559,11.295499,-3.984765,2.762196,0.546823,1.341244,-0.315499
26560,10.643470,-4.700098,1.193744,1.019839,1.335331,-0.288857
26561,9.526168,-4.958272,-0.866526,1.530688,1.223183,-0.312653
26562,8.254627,-4.976180,-3.337945,2.064228,0.994220,-0.373718
26563,7.647555,-4.240779,-5.005298,2.555564,0.669096,-0.457243
26564,7.934218,-2.960927,-5.077253,2.804836,0.424170,-0.536374
26565,8.791740,-1.438002,-3.867131,2.759504,0.285957,-0.576146
26566,9.372618,0.142125,-2.053701,2.462473,0.281861,-0.548171
26567,9.515704,1.432759,-0.409850,1.974444,0.298694,-0.488819
26568,9.603640,2.439115,0.913840,1.324116,0.313371,-0.422037
26569,9.861067,3.283891,2.303644,0.547270,0.371959,-0.372940
26570,10.340843,3.454879,3.892281,-0.321835,0.489089,-0.309131
26571,11.076178,2.230162,5.270302,-1.041622,0.665262,-0.213136
26572,12.058011,0.459585,5.696187,-1.457194,0.907502,-0.072086
26573,12.273526,-1.555177,5.374913,-1.506111,1.166751,0.039098
26574,11.742799,-3.779064,4.618387,-1.147124,1.300144,0.039917
26575,10.587554,-5.782879,3.365934,-0.423870,1.303404,-0.099534
26576,9.146596,-6.396053,1.863084,0.482596,1.154639,-0.330004
26577,8.257329,-5.860155,-0.089880,1.355506,0.916269,-0.543394
26578,8.186329,-4.256805,-1.663436,2.050400,0.757486,-0.671627
26579,8.053835,-2.075063,-1.954706,2.412890,0.652653,-0.731581
26580,8.023092,0.041126,-1.335333,2.431559,0.537052,-0.720598
26581,8.158670,1.621219,-0.632380,2.090922,0.377134,-0.681382
26582,7.982365,2.719910,-0.191418,1.514583,0.241490,-0.622933
26583,7.947819,3.505977,0.528765,0.778762,0.100227,-0.570021
26584,8.561492,3.620617,1.775470,-0.006384,0.044925,-0.468034
26585,9.317599,2.922627,3.348081,-0.775084,0.130518,-0.344195
26586,9.667315,1.217723,4.317212,-1.345379,0.299559,-0.207458
26587,9.814012,-0.407058,4.838630,-1.535417,0.442032,-0.083341
26588,10.142650,-1.882639,5.139589,-1.381331,0.515909,-0.012088
26589,10.576460,-3.137522,4.622867,-0.991196,0.534636,-0.011268
26590,10.643024,-3.597871,3.648622,-0.451144,0.553685,-0.074492
26591,9.974560,-3.399447,2.514504,0.060105,0.580276,-0.197984
26592,9.227630,-2.885885,1.753145,0.468301,0.518102,-0.299269
26593,8.811139,-1.893517,1.252597,0.712288,0.383579,-0.344474
26594,8.608169,-0.721794,0.860783,0.748113,0.281313,-0.343564
26595,8.488204,-0.094358,0.398951,0.591608,0.197956,-0.277898
26596,8.137003,0.090694,-0.072879,0.326886,0.087327,-0.179847
26597,7.918225,0.135279,-0.573615,0.044476,-0.020290,-0.109246
26598,7.909318,-0.032705,-0.473070,-0.253584,-0.056539,-0.076219
26599,7.969602,-0.187233,0.665242,-0.561413,-0.116945,-0.023664
26600,8.553102,-0.379968,2.507917,-0.851628,-0.147430,0.070249
26601,9.354516,-0.637621,4.151844,-1.125439,-0.081739,0.217960
26602,9.829159,-1.108568,5.472737,-1.303065,0.049593,0.362817
26603,10.132204,-1.870144,6.649928,-1.368341,0.160862,0.452133
26604,10.489595,-2.561548,7.370515,-1.293478,0.272668,0.492439
26605,11.222444,-3.056304,7.089772,-1.050914,0.403362,0.518980
26606,11.845790,-3.146312,6.644971,-0.758418,0.611493,0.531871
26607,11.542553,-2.791483,6.114415,-0.511765,0.786916,0.531902
26608,11.050795,-2.555632,4.792012,-0.278696,0.862246,0.538156
26609,10.307954,-2.468885,3.456124,-0.080330,0.903480,0.528011
26610,9.298587,-2.446494,2.386039,0.101020,0.856383,0.498830
26611,8.620016,-1.955484,1.768267,0.215811,0.729376,0.465560
26612,8.416667,-1.383027,1.301590,0.230226,0.621222,0.456911
26613,8.343980,-0.966040,1.033069,0.126794,0.579421,0.481408
26614,8.129919,-0.828796,1.122017,-0.054620,0.532775,0.528143
26615,8.170922,-0.771998,1.246391,-0.238027,0.448684,0.598316
26616,8.086641,-0.654778,1.727164,-0.482908,0.347842,0.659649
26617,8.273096,-0.825759,2.191926,-0.706419,0.267512,0.718841
26618,8.626603,-1.274349,2.811390,-0.888339,0.236133,0.799741
26619,9.037827,-1.991015,3.309168,-0.999244,0.220688,0.909708
26620,9.653278,-2.781815,3.933162,-1.039605,0.306763,0.981975
26621,9.928592,-3.658968,4.780154,-1.000751,0.377114,1.074856
26622,10.142710,-4.383189,5.290061,-0.842934,0.469706,1.154762
26623,10.533926,-4.923621,5.121929,-0.589376,0.625218,1.245770
26624,9.788051,-4.833797,5.068097,-0.344961,0.777860,1.309205
26625,9.455959,-4.794040,4.615480,-0.039569,0.793228,1.332232
26626,9.360672,-4.356126,3.735622,0.133816,0.813749,1.366278
26627,8.755876,-4.056519,2.732525,0.250398,0.790192,1.414218
26628,8.170923,-3.735836,2.138946,0.282680,0.728895,1.462433
26629,7.802137,-3.443712,1.722707,0.197984,0.686642,1.501574
26630,7.507941,-3.083501,1.763932,0.052010,0.617568,1.557884
26631,7.410297,-2.745352,2.059458,-0.119444,0.518438,1.602219
26632,7.487230,-2.343370,2.590660,-0.401304,0.374430,1.625978
26633,7.516895,-2.025213,3.062809,-0.731558,0.236520,1.580233
26634,7.750015,-2.225566,3.500675,-1.079357,0.062534,1.505821
26635,7.582344,-2.904379,4.218660,-1.333846,-0.092223,1.438368
26636,7.816707,-3.855153,4.977204,-1.441810,-0.149926,1.373067
26637,8.034579,-4.882492,5.609820,-1.381208,-0.088274,1.360762
26638,8.425975,-5.677448,6.082986,-1.128768,0.001317,1.386446
26639,9.147614,-6.068985,5.993914,-0.806180,0.132566,1.462731
26640,9.010204,-6.098323,5.841337,-0.482223,0.292696,1.500020
26641,9.068961,-5.873833,5.549629,-0.148732,0.424221,1.486513
26642,8.779484,-5.701054,5.194299,0.059869,0.562357,1.429841
26643,7.810673,-5.455532,4.736793,0.266504,0.618591,1.351846
26644,7.348848,-5.000219,4.155809,0.445032,0.606678,1.268054
26645,7.010984,-4.263851,3.852449,0.458635,0.592508,1.211499
26646,6.870010,-3.682414,3.447566,0.399938,0.599483,1.154299
26647,6.854136,-3.269971,3.102513,0.205856,0.573198,1.131686
26648,6.705700,-3.019863,2.751435,-0.053940,0.485925,1.099931
26649,6.978325,-2.933187,2.245526,-0.333432,0.353176,1.064892
26650,6.875754,-3.207341,2.137246,-0.685193,0.187294,1.054041
26651,6.567132,-3.725871,2.432562,-0.940655,0.034867,1.012762
26652,6.286727,-4.606210,3.010664,-1.145227,-0.089316,0.976012
26653,6.155918,-5.694093,3.850285,-1.202659,-0.127817,0.979778
26654,6.460670,-6.786860,4.551142,-1.076254,-0.115256,1.016546
26655,6.586002,-7.414738,4.954478,-0.812203,-0.062377,1.045644
26656,6.858055,-7.436145,5.001037,-0.464999,-0.003843,1.051350
26657,7.405429,-7.032845,5.020184,-0.181839,0.102925,1.028635
26658,7.183270,-6.499409,4.888072,0.064563,0.218967,0.977547
26659,6.982517,-5.823214,4.466416,0.256450,0.282325,0.895640
26660,6.745246,-5.353682,4.245424,0.306317,0.323067,0.790863
26661,6.230774,-4.873349,4.132191,0.310983,0.332872,0.686406
26662,6.022222,-4.376810,3.658690,0.273520,0.316536,0.574468
26663,5.827516,-3.874905,3.474964,0.109204,0.293619,0.465998
26664,5.614571,-3.476164,3.255552,-0.064252,0.249861,0.353755
26665,5.606417,-3.342158,3.022113,-0.328657,0.168694,0.252943
26666,5.503771,-3.632701,2.928605,-0.567678,0.090364,0.149530
26667,5.500768,-4.490010,2.810673,-0.723298,-0.007891,0.073003
26668,5.711079,-5.402963,3.050106,-0.797619,-0.107636,0.028006
26669,6.052009,-6.022288,3.399995,-0.742775,-0.177033,-0.021336
26670,6.260716,-6.483202,3.660451,-0.553506,-0.193413,-0.093081
26671,6.110590,-6.747130,4.331555,-0.350433,-0.169721,-0.156605
26672,5.992873,-6.880003,4.636970,-0.110010,-0.144048,-0.212262
26673,6.230030,-6.753483,4.663480,0.119327,-0.100980,-0.252107
26674,6.233444,-6.570446,4.377985,0.302901,-0.004801,-0.282467
26675,6.234680,-6.227737,3.952692,0.430435,0.043755,-0.354102
26676,6.499100,-5.585360,3.593416,0.495138,0.075086,-0.453477
26677,6.447586,-4.923250,3.271500,0.498560,0.081820,-0.587284
26678,6.047857,-4.380790,3.089960,0.418293,0.040309,-0.733700
26679,5.418031,-4.154549,2.905379,0.246618,-0.055964,-0.839310
26680,5.343741,-4.372277,2.829048,0.034544,-0.178673,-0.907084
26681,5.655451,-4.791533,2.693179,-0.166845,-0.301446,-0.911837
26682,5.950802,-5.230438,2.907346,-0.340977,-0.411065,-0.899015
26683,6.213259,-5.594247,3.479175,-0.465359,-0.493896,-0.898846
26684,6.703151,-6.034228,4.384672,-0.490060,-0.496523,-0.917495
26685,7.247665,-6.661970,4.968658,-0.433255,-0.415767,-0.906574
26686,7.685861,-7.013436,5.268925,-0.288555,-0.327013,-0.897032
26687,8.109714,-7.082504,5.184206,-0.036947,-0.245215,-0.885588
26688,8.069734,-7.147510,4.812962,0.216343,-0.146367,-0.875030
26689,7.768884,-7.279337,4.598835,0.447957,-0.066975,-0.865265
26690,7.723991,-7.168307,4.372783,0.664910,-0.004731,-0.864926
26691,7.282051,-6.651325,4.148884,0.831432,0.051508,-0.881752
26692,6.868883,-5.898658,3.819356,0.908354,0.071165,-0.905327
26693,6.848992,-4.860965,3.554333,0.814841,0.067526,-0.919334
26694,6.709098,-3.934016,3.253705,0.588154,0.043146,-0.928909
26695,6.617181,-3.367048,2.770642,0.284821,-0.030647,-0.948166
26696,6.637943,-3.282117,2.332735,-0.046335,-0.121927,-0.964427
26697,6.772889,-3.561526,2.142919,-0.360605,-0.211283,-0.963236
26698,7.221985,-4.216005,2.281634,-0.625295,-0.315191,-0.920253
26699,7.769403,-5.031324,2.841043,-0.803241,-0.377089,-0.843270
26700,8.016330,-5.518929,3.782248,-0.871500,-0.397521,-0.770776
26701,8.274202,-5.888393,4.602074,-0.834656,-0.365780,-0.711992
26702,8.645193,-6.174753,4.962178,-0.681171,-0.315860,-0.662352
26703,8.820563,-6.363180,4.930142,-0.439528,-0.252335,-0.635110
26704,8.881876,-6.383826,4.788432,-0.169669,-0.212362,-0.638443
26705,8.846746,-6.283895,4.333368,0.068286,-0.200087,-0.646388
26706,8.329344,-6.180512,3.640493,0.298908,-0.188515,-0.657409
26707,7.597003,-6.081122,3.270569,0.498425,-0.212122,-0.661730
26708,7.235051,-5.888764,2.932604,0.624162,-0.247105,-0.636009
26709,6.962082,-5.549229,2.557300,0.682614,-0.245928,-0.578261
26710,6.636209,-5.104031,2.029204,0.698091,-0.277100,-0.498790
26711,6.749562,-4.602618,1.277487,0.624075,-0.364389,-0.418049
26712,7.001155,-4.095947,0.460583,0.449491,-0.496389,-0.344531
26713,7.298130,-3.828730,0.013714,0.219698,-0.669792,-0.285245
26714,7.383933,-3.749065,1.272095,-0.056322,-0.808987,-0.294642
26715,7.880975,-4.057813,3.135583,-0.267290,-0.861173,-0.355104
26716,8.673434,-4.102163,4.555867,-0.363206,-0.771640,-0.399338
26717,9.310060,-4.262599,5.654955,-0.295584,-0.596354,-0.402108
26718,9.897770,-4.648928,6.411866,-0.160747,-0.427169,-0.414746
26719,10.096768,-4.718647,6.866700,-0.076871,-0.257924,-0.477792
26720,10.367848,-4.559957,6.928237,0.048016,-0.106693,-0.593725
26721,10.552062,-4.587593,6.135135,0.258100,0.084357,-0.668183
26722,9.778553,-4.617741,5.041886,0.480284,0.275343,-0.697826
26723,8.857810,-4.619427,4.096858,0.673089,0.347096,-0.710156
26724,8.290227,-4.649999,2.995367,0.773694,0.359169,-0.724059
26725,7.707213,-4.472979,1.879990,0.806920,0.310054,-0.739996
26726,7.347434,-4.107010,0.801377,0.799134,0.191428,-0.719753
26727,7.185883,-3.254276,0.180342,0.748444,0.047497,-0.689384
26728,7.324732,-2.288827,0.110956,0.569913,-0.093176,-0.684046
26729,7.446283,-1.612686,0.492070,0.273222,-0.198793,-0.688937
26730,7.691956,-1.634479,1.444357,-0.084350,-0.291666,-0.663020
26731,8.058548,-2.581162,2.629508,-0.360082,-0.366762,-0.593032
26732,8.518165,-3.902499,3.753713,-0.464305,-0.364844,-0.504980
26733,8.975330,-4.854241,4.880297,-0.388302,-0.286732,-0.426779
26734,9.553981,-5.318583,5.790614,-0.198055,-0.148014,-0.381252
26735,10.075402,-5.413026,6.262139,0.035968,-0.001874,-0.352366
26736,10.177175,-5.386434,6.230125,0.274084,0.139701,-0.366397
26737,9.968753,-5.437661,5.549817,0.535346,0.234859,-0.404180
26738,9.573492,-5.485534,4.669219,0.791844,0.285038,-0.437849
26739,9.044874,-5.284712,3.491562,1.038103,0.320268,-0.437195
26740,8.433483,-4.790452,2.174477,1.233409,0.312360,-0.428303
26741,7.867649,-3.740878,1.306093,1.381375,0.285746,-0.387290
26742,7.305435,-2.760789,1.010807,1.321271,0.258934,-0.367253
26743,6.655034,-2.012471,1.003688,1.083209,0.188148,-0.392604
26744,6.564759,-1.561524,0.751725,0.747877,-0.008677,-0.379980
26745,6.790310,-1.280034,0.292216,0.418104,-0.213121,-0.348063
26746,7.086870,-1.286068,0.385125,0.130183,-0.375963,-0.355580
26747,7.867720,-1.928379,1.002998,-0.008315,-0.473582,-0.357776
26748,8.861162,-2.611765,2.749932,-0.045889,-0.481980,-0.304677
26749,9.722138,-2.983219,4.774691,-0.087340,-0.414901,-0.210787
26750,10.247199,-3.130023,6.194020,-0.109508,-0.307354,-0.153675
26751,10.380102,-3.566306,6.626577,-0.036242,-0.194472,-0.150836
26752,10.517631,-4.030594,6.406302,0.168114,-0.110237,-0.160152
26753,10.410698,-4.077657,5.755585,0.400635,-0.016779,-0.194754
26754,9.941107,-3.847177,4.768754,0.630479,0.017203,-0.248535
26755,9.373417,-3.371369,3.524528,0.800315,-0.012286,-0.304541
26756,8.685477,-2.894246,1.893714,0.901513,-0.078619,-0.358022
26757,7.900184,-2.074312,0.751270,0.965595,-0.186082,-0.421730
26758,7.272218,-1.268390,0.110550,0.897853,-0.316074,-0.491007
26759,6.764254,-0.528374,-0.423927,0.682577,-0.485542,-0.540218
26760,6.423257,-0.126299,-0.953655,0.384596,-0.647062,-0.594660
26761,6.602944,-0.435340,-0.406247,0.133123,-0.787298,-0.629795
26762,7.286564,-0.948538,0.875680,-0.109037,-0.944573,-0.591862
26763,8.232225,-1.437060,2.278145,-0.307568,-1.025245,-0.526741
26764,9.290119,-1.978200,3.732915,-0.423539,-1.010256,-0.394024
26765,10.251111,-2.493359,4.999929,-0.437082,-0.882924,-0.268770
26766,11.343220,-2.970234,6.263576,-0.357188,-0.712731,-0.185727
26767,12.133687,-3.530667,7.179859,-0.185073,-0.488082,-0.135907
26768,11.888025,-4.197785,7.097030,0.049761,-0.242529,-0.125965
26769,10.861774,-4.450062,5.969811,0.310278,-0.117629,-0.128409
26770,9.764503,-4.327365,4.482611,0.553324,-0.105651,-0.113464
26771,9.107109,-4.120724,3.267165,0.780180,-0.104423,-0.076095
26772,8.845795,-4.067153,2.179047,0.914382,-0.095396,-0.004751
26773,8.459998,-4.003583,1.085618,0.998427,-0.096573,0.059309
26774,7.971488,-3.722404,0.188985,1.058423,-0.146546,0.107943
26775,7.628930,-3.028027,-0.231299,1.043471,-0.236424,0.138036
26776,7.570574,-2.212039,-0.086375,0.910500,-0.355209,0.216433
26777,7.796371,-1.602416,0.568169,0.641381,-0.480329,0.327557
26778,8.473633,-1.463670,1.360782,0.334630,-0.601553,0.434160
26779,9.721761,-1.584619,2.489524,0.146072,-0.626548,0.486530
26780,10.844657,-1.846191,4.081260,0.026326,-0.473801,0.508649
26781,11.113069,-2.147361,5.517159,-0.047604,-0.234115,0.517871
26782,10.818801,-2.473768,6.166632,-0.063698,-0.056878,0.529052
26783,10.522669,-2.780871,5.939793,-0.011738,0.003116,0.548144
26784,10.274219,-3.094592,4.919970,0.117083,-0.007063,0.551926
26785,9.908577,-3.454671,3.610439,0.307442,-0.011799,0.517367
26786,9.534029,-3.474921,2.397752,0.498946,-0.016217,0.478362
26787,8.933465,-2.982166,1.702182,0.652386,-0.031309,0.429398
26788,8.435974,-2.507685,1.102864,0.766257,-0.097535,0.378074
26789,8.056257,-2.016202,0.411715,0.796470,-0.180193,0.319684
26790,7.744851,-1.539146,-0.278715,0.730412,-0.324897,0.259115
26791,7.908177,-1.212517,-0.751360,0.711649,-0.476658,0.225700
26792,8.372803,-0.689850,-0.432046,0.712971,-0.562433,0.160434
26793,8.787816,0.211859,0.128749,0.695471,-0.559258,0.065851
26794,8.756084,1.772259,1.141653,0.550062,-0.568702,-0.034863
26795,8.752321,2.607148,1.305420,0.260816,-0.655964,-0.093329
26796,9.381859,2.276747,1.491911,-0.035677,-0.738475,-0.175729
26797,10.350633,0.961304,2.309395,-0.323225,-0.761073,-0.272166
26798,11.077099,-0.818223,3.866915,-0.455251,-0.734365,-0.365170
26799,11.282027,-3.349277,4.856567,-0.500404,-0.693529,-0.362649
26800,10.780630,-5.784887,3.765896,-0.313822,-0.629585,-0.301089
26801,9.986878,-6.324097,2.061530,0.172081,-0.547965,-0.214990
26802,9.405481,-5.082511,1.103483,0.566637,-0.438673,-0.110093
26803,8.486951,-3.523834,0.441191,0.674991,-0.338160,-0.039454
26804,7.573642,-2.197168,-0.071342,0.606188,-0.347820,0.002741
26805,7.673892,-0.985664,-0.437038,0.467458,-0.430631,0.052181
26806,8.140659,0.096898,-0.158828,0.204378,-0.509108,0.078167
26807,8.750823,0.684445,0.020445,-0.200473,-0.607947,0.090240
26808,9.346512,0.689367,0.004825,-0.609765,-0.709225,0.100588
26809,9.955718,0.390501,0.074936,-0.970825,-0.817159,0.091411
26810,10.743412,-0.531286,1.446562,-1.159104,-0.833265,0.093886
26811,11.551099,-1.551138,4.737317,-1.215153,-0.697632,0.121353
26812,11.685242,-3.165058,6.458741,-1.246382,-0.460913,0.188339
26813,11.251163,-4.612040,6.364146,-0.939905,-0.262869,0.269729
26814,11.309922,-6.067154,5.031408,-0.506883,-0.114974,0.314989
26815,11.282733,-6.196299,3.310739,0.096161,0.039563,0.299328
26816,10.709367,-4.920950,2.253012,0.529306,0.167221,0.232193
26817,9.700964,-3.620951,1.443542,0.735420,0.221192,0.181400
26818,8.896038,-3.027429,0.679824,0.831265,0.196343,0.171875
26819,8.336442,-2.941593,-0.297580,0.856967,0.127743,0.199215
26820,7.937524,-2.892638,-1.318239,0.798523,0.027976,0.243519
26821,7.799719,-2.594361,-1.964951,0.713129,-0.102162,0.297863
26822,7.938845,-2.132484,-1.766941,0.593591,-0.217831,0.361147
26823,8.357494,-1.532831,-0.742256,0.413035,-0.289623,0.426419
26824,8.961456,-1.073209,0.517359,0.149110,-0.303328,0.497191
26825,9.501763,-0.820469,1.485572,-0.165801,-0.281039,0.576854
26826,9.937832,-0.894690,1.966241,-0.469422,-0.248863,0.631873
26827,10.251509,-1.349315,2.096638,-0.694669,-0.227902,0.682371
26828,10.354101,-1.956275,1.864826,-0.839312,-0.205018,0.674815
26829,10.347825,-2.442440,1.640931,-0.905630,-0.206858,0.635421
26830,10.339867,-2.943168,1.314809,-0.860077,-0.182893,0.626665
26831,10.060996,-3.114116,1.182437,-0.698348,-0.170380,0.591646
26832,9.897507,-2.980763,1.126615,-0.461916,-0.166510,0.524472
26833,9.903141,-2.692103,1.007909,-0.270189,-0.158342,0.438440
26834,9.926548,-2.563555,0.879928,-0.108783,-0.160833,0.377637
26835,10.070970,-2.577184,0.814135,0.015936,-0.148521,0.354840
26836,9.984985,-2.733719,0.724032,0.128427,-0.125755,0.361304
26837,9.708647,-2.541377,0.762741,0.235743,-0.135344,0.357802
26838,9.663879,-2.000779,0.838177,0.254015,-0.149310,0.340932
26839,9.627619,-1.685084,0.782186,0.220584,-0.148394,0.326505
26840,9.646486,-1.547736,0.812403,0.162611,-0.145625,0.301293
26841,9.742567,-1.624857,0.963766,0.083996,-0.118287,0.272148
26842,9.736979,-1.595221,0.942401,0.021059,-0.109100,0.225647
26843,9.622875,-1.295570,0.713221,-0.001718,-0.129465,0.147035
26844,9.573688,-1.208498,0.752640,-0.014661,-0.163238,0.084193
26845,10.061526,-1.859759,0.978797,-0.045858,-0.120222,0.100565
26846,10.135326,-2.334191,1.142353,-0.056837,-0.024096,0.111787
26847,9.748736,-2.303375,1.151543,-0.034738,0.001963,0.085567
26848,9.674139,-2.131103,1.111907,-0.021596,-0.025762,0.040111
26849,10.003122,-2.148026,0.966759,-0.012832,-0.025039,-0.009712
26850,10.139083,-2.220818,0.784287,0.003173,0.017537,-0.063171
26851,10.235169,-2.108669,0.618183,0.016485,0.047113,-0.115495
26852,10.188586,-1.725669,0.472901,0.037469,0.063680,-0.170993
26853,10.098939,-1.374613,0.533492,-0.006661,0.042003,-0.227013
26854,9.906194,-1.113603,0.160516,-0.126373,0.032048,-0.270323
26855,9.324727,-0.530303,-0.361740,-0.260458,-0.008018,-0.321515
26856,8.915660,0.036716,-0.931758,-0.445327,-0.132181,-0.377616
26857,8.869440,0.284879,-1.362815,-0.686029,-0.261584,-0.442127
26858,9.110016,0.420129,-1.274526,-1.003335,-0.338175,-0.504172
26859,9.199162,0.363409,-1.329329,-1.368037,-0.373423,-0.552825
26860,9.182193,0.285134,-1.187369,-1.721823,-0.413110,-0.577026
26861,9.350222,-0.264393,-0.886726,-2.073377,-0.430721,-0.569791
26862,9.765832,-0.791110,-0.615364,-2.382609,-0.393713,-0.547053
26863,10.118894,-1.210629,0.133227,-2.630453,-0.331270,-0.548410
26864,10.826000,-1.837901,1.579377,-2.754988,-0.243586,-0.584894
26865,11.944734,-2.723382,3.568036,-2.764828,-0.015334,-0.639106
26866,12.576589,-3.251451,5.617546,-2.554452,0.358477,-0.743919
26867,12.981589,-3.096247,7.249799,-2.245991,0.773944,-0.837247
26868,12.698601,-2.930460,6.850522,-1.887263,1.149051,-0.878414
26869,10.886793,-3.591912,4.192861,-1.340647,1.293317,-0.909783
26870,9.474028,-4.741360,1.647612,-0.503345,1.134709,-0.941826
26871,10.504702,-5.621111,0.990963,0.334039,0.952078,-0.978920
26872,11.834316,-5.678759,0.771498,1.043617,0.948317,-1.045328
26873,11.602055,-4.533547,-0.721618,1.669700,1.051727,-1.173100
26874,9.476800,-3.203611,-3.998209,2.281758,0.976062,-1.318934
26875,7.313518,-2.171933,-7.378498,2.694635,0.565908,-1.383979
26876,6.838179,-1.874444,-8.598956,2.704784,0.065813,-1.341959
26877,7.637042,-1.826662,-7.174450,2.436158,-0.235932,-1.183803
26878,8.197605,-1.040063,-4.690493,2.074806,-0.345936,-1.021066
26879,8.148035,0.696000,-2.129485,1.576498,-0.361468,-0.849717
26880,8.229536,2.856948,0.137774,0.793515,-0.342611,-0.643229
26881,8.775540,4.764784,2.194299,-0.290972,-0.296886,-0.483171
26882,10.095560,5.160485,4.043669,-1.532778,-0.227762,-0.379030
26883,11.768683,3.459679,5.350435,-2.556883,-0.064782,-0.314477
26884,12.906400,0.890367,6.207895,-3.055592,0.255739,-0.303706
26885,12.719859,-1.093252,5.639231,-3.133844,0.624361,-0.334222
26886,11.633271,-2.752948,4.089241,-2.811417,0.832972,-0.409155
26887,11.116455,-4.788956,2.909943,-2.107380,0.868809,-0.502526
26888,11.567555,-5.975904,2.581826,-1.134692,0.861042,-0.577420
26889,11.967087,-5.732189,2.327938,-0.229068,0.898131,-0.678678
26890,11.129778,-4.622495,0.515012,0.440160,0.920725,-0.767661
26891,8.702173,-3.121459,-2.881978,0.974534,0.740828,-0.855904
26892,7.143822,-1.634997,-5.396084,1.395186,0.359417,-0.917453
26893,7.513526,-0.694317,-5.302729,1.527569,0.026182,-0.880303
26894,8.329539,-0.042491,-3.770659,1.321413,-0.102037,-0.776855
26895,8.525752,1.106831,-2.114453,0.957618,-0.130242,-0.664819
26896,8.565840,2.472452,-0.346949,0.478630,-0.147622,-0.544431
26897,9.413490,3.711297,1.916390,-0.143026,-0.150359,-0.452320
26898,10.631192,4.449556,4.055152,-0.897997,-0.069287,-0.426429
26899,11.455568,4.375295,5.866587,-1.586542,0.136300,-0.476330
26900,11.931406,3.005566,6.873791,-2.078058,0.430540,-0.494195
26901,12.555590,0.857060,7.109240,-2.148928,0.727389,-0.459262
26902,13.232258,-0.977721,7.144575,-1.899796,1.081610,-0.436697
26903,13.041849,-2.617423,6.041104,-1.392757,1.368243,-0.445706
26904,11.794786,-3.910696,3.958064,-0.578477,1.455784,-0.534055
26905,10.561986,-4.339873,1.268180,0.412282,1.328654,-0.712109
26906,9.417245,-3.603765,-1.095835,1.401670,1.112939,-0.929387
26907,9.117025,-2.564578,-2.743981,2.175030,0.885991,-1.089854
26908,8.260744,-0.797704,-3.902044,2.580495,0.687458,-1.189838
26909,7.129699,0.596643,-4.716216,2.652466,0.425547,-1.233696
26910,6.930470,1.299302,-4.437426,2.591008,0.133728,-1.196853
26911,7.350313,1.992440,-3.722873,2.309682,-0.132157,-1.132972
26912,7.707911,3.163990,-3.141201,1.774522,-0.352737,-1.046221
26913,8.363486,4.693709,-1.317331,1.113017,-0.519115,-0.963936
26914,9.863083,5.469872,1.742961,0.256246,-0.531571,-0.819697
26915,11.486100,5.167585,5.419803,-0.691870,-0.297717,-0.666164
26916,12.304554,3.916492,7.674937,-1.608296,0.129087,-0.507273
26917,11.408372,1.983728,7.306560,-2.243813,0.484098,-0.365662
26918,9.791978,-0.593708,5.415827,-2.236592,0.530881,-0.252281
26919,9.336909,-3.713773,3.406953,-1.658903,0.271969,-0.207855
26920,10.119133,-6.633564,1.792599,-0.746025,0.023961,-0.263288
26921,10.395511,-7.866011,-0.073019,0.292071,-0.033475,-0.303113
26922,9.161853,-6.526350,-1.731221,1.307051,0.033840,-0.305838
26923,7.838339,-4.103112,-3.361035,2.074468,-0.039842,-0.268271
26924,6.617376,-1.095739,-4.531699,2.501383,-0.174938,-0.218928
26925,5.980006,1.688574,-4.599340,2.449687,-0.372183,-0.120173
26926,6.066026,2.968087,-3.910347,1.988990,-0.591643,0.052101
26927,6.724282,3.649058,-3.127867,1.202194,-0.816211,0.232436
26928,7.786925,3.898984,-1.958417,0.260226,-0.967876,0.451185
26929,8.468626,3.171465,-0.907313,-0.638254,-1.100811,0.711532
26930,8.855678,2.606609,-0.320577,-1.388569,-1.211296,0.909989
26931,9.316412,2.521585,0.643146,-1.941919,-1.250007,0.993081
26932,10.808088,2.451448,2.978775,-2.353226,-1.167311,1.019197
26933,12.672872,2.064476,5.887915,-2.686266,-0.889419,1.036755
26934,13.108392,1.317814,7.383147,-2.871591,-0.468991,0.968517
26935,12.011447,-0.010549,7.018504,-2.549745,-0.216805,0.808902
26936,11.085724,-1.992171,5.540216,-1.614285,-0.236250,0.652990
26937,11.341557,-2.794711,4.017833,-0.465561,-0.322537,0.441179
26938,11.519022,-0.802932,3.288762,0.355184,-0.247061,0.127440
26939,10.582202,1.862479,2.500529,0.657876,-0.124676,-0.129050
26940,9.790866,3.329568,1.085221,0.543393,-0.114870,-0.266767
26941,9.681227,3.222318,-0.266770,0.142187,-0.134700,-0.253987
26942,9.696775,2.501411,-0.878773,-0.367196,-0.129367,-0.197260
26943,9.748563,1.409018,-0.849186,-0.796257,-0.130968,-0.154968
26944,9.467787,0.484641,-0.579135,-1.047972,-0.158071,-0.088077
26945,9.239596,-0.386246,-0.392526,-1.219606,-0.227988,0.023013
26946,9.293401,-1.133440,-0.113493,-1.292606,-0.293775,0.121052
26947,9.591870,-1.563836,0.186486,-1.267995,-0.314405,0.198144
26948,9.852519,-1.781422,0.828033,-1.175832,-0.291274,0.259765
26949,10.068328,-1.685694,1.791652,-1.037635,-0.235747,0.290512
26950,10.503752,-1.647773,2.755356,-0.866683,-0.135726,0.303808
26951,10.471760,-1.791075,2.939858,-0.669252,-0.014131,0.289479
26952,10.040325,-1.367747,2.629436,-0.434658,0.039108,0.256749
26953,10.244251,-0.967372,2.031381,-0.226922,0.053334,0.237438
26954,10.442393,-0.747961,1.703873,-0.066945,0.105012,0.215631
26955,10.372183,-0.451526,1.671444,0.005266,0.167038,0.175389
26956,10.318369,-0.247891,1.603376,-0.008650,0.219316,0.155765
26957,10.108683,-0.077813,1.417111,-0.040979,0.244987,0.144409
26958,10.054610,-0.219167,1.113441,-0.094650,0.249077,0.141754
26959,9.907025,-0.558463,0.761516,-0.137265,0.245173,0.136079
26960,9.805661,-0.763342,0.487013,-0.129977,0.223436,0.139683
26961,9.658703,-0.917380,0.388776,-0.093913,0.192334,0.149686
26962,9.728138,-1.036580,0.342991,-0.024177,0.153048,0.170967
26963,9.749111,-1.103968,0.349592,0.046710,0.118380,0.211238
26964,9.878073,-1.079205,0.385385,0.129807,0.096452,0.261415
26965,9.953385,-0.736012,0.449252,0.185245,0.061274,0.309568
26966,10.234296,-0.425563,0.703124,0.203741,0.033720,0.373936
26967,10.300975,0.078320,0.865862,0.186639,0.030513,0.451800
26968,10.235119,0.602048,0.989304,0.135798,0.017555,0.494375
26969,10.167180,0.998820,1.113165,0.030523,0.024452,0.507710
26970,9.923926,1.062341,1.331786,-0.076854,0.036955,0.500793
26971,9.805286,0.790692,1.331668,-0.153075,0.044789,0.473400
26972,9.667584,0.281414,1.186762,-0.168043,0.066100,0.457314
26973,9.607517,0.019595,1.096346,-0.133706,0.069809,0.433678
26974,9.621533,-0.118785,1.162516,-0.080878,0.075933,0.405000
26975,9.611292,-0.131456,1.223244,-0.015275,0.075202,0.370060
26976,9.630705,-0.032046,1.283065,0.040345,0.084583,0.333619
26977,9.623808,-0.032615,1.321445,0.062734,0.095677,0.306777
26978,9.495899,-0.164046,1.270537,0.076042,0.108144,0.291404
26979,9.477296,-0.241815,1.169199,0.073526,0.108759,0.267167
26980,9.387782,-0.179592,1.158733,0.054759,0.124933,0.247620
26981,9.366635,-0.330162,1.095431,0.034136,0.136358,0.229750
26982,9.359573,-0.392623,1.151185,0.030423,0.157766,0.205437
26983,9.435491,-0.649683,1.160863,0.028070,0.178357,0.168248
26984,9.402436,-0.912013,1.080657,0.043820,0.198385,0.140971
26985,9.442180,-1.055395,0.957904,0.091812,0.197501,0.125360
26986,9.499617,-0.855552,0.998251,0.156322,0.192059,0.119274
26987,9.631013,-0.575730,1.112520,0.172702,0.177175,0.117222
26988,9.646202,-0.350312,1.198156,0.165442,0.171307,0.123384
26989,9.717358,-0.208059,1.276580,0.135026,0.157089,0.104241
26990,9.709352,-0.078877,1.414380,0.086805,0.155734,0.100857
26991,9.698506,-0.277334,1.295739,0.006044,0.143276,0.101657
26992,9.316289,-0.124765,1.149547,-0.066610,0.121659,0.126224
26993,9.217806,0.294986,1.265647,-0.156578,0.072087,0.135093
26994,9.262107,0.434014,1.405864,-0.299207,0.047719,0.157238
26995,9.013087,0.754605,1.504543,-0.438903,0.024141,0.170452
26996,8.917217,1.019536,1.644861,-0.628692,-0.018783,0.161862
26997,9.002851,0.761060,1.795352,-0.773049,-0.047788,0.143483
26998,9.148185,0.249219,1.699465,-0.824756,-0.082806,0.113566
26999,9.186732,0.160246,1.685259,-0.764096,-0.102366,0.062139
27000,9.476465,-0.362706,1.540074,-0.736588,-0.132780,-0.002960
27001,9.716223,-1.214233,1.381111,-0.630600,-0.119403,-0.037220
27002,9.772227,-2.036832,1.163788,-0.475369,-0.107214,-0.082114
27003,9.851380,-2.019178,1.109833,-0.256875,-0.105247,-0.139748
27004,9.870553,-1.639670,1.207625,-0.103392,-0.095007,-0.189383
27005,9.962580,-1.461673,1.298028,-0.015800,-0.095458,-0.221703
27006,10.093484,-1.588244,1.274543,0.037442,-0.078606,-0.249136
27007,10.056746,-1.631361,1.094143,0.097831,-0.062672,-0.256560
27008,10.015203,-1.471152,1.036771,0.166450,-0.075211,-0.252559
27009,10.021356,-1.259645,0.997859,0.199258,-0.080638,-0.249788
27010,9.883184,-1.134285,0.993563,0.227129,-0.075184,-0.252637
27011,9.757729,-0.812987,0.984728,0.272763,-0.077507,-0.248996
27012,9.708729,-0.556078,1.047320,0.274425,-0.085035,-0.249699
27013,9.692077,-0.440816,1.031488,0.258752,-0.093963,-0.234772
27014,9.669992,-0.403012,0.947740,0.240492,-0.087061,-0.200341
27015,9.558127,-0.107106,0.931861,0.234484,-0.104956,-0.153750
27016,9.598279,0.237867,1.046887,0.196694,-0.121180,-0.112570
27017,9.593960,0.420013,1.145316,0.123280,-0.127351,-0.073484
27018,9.449271,0.413414,1.059040,0.053738,-0.139044,-0.038504
27019,9.373430,0.294049,1.008790,-0.010091,-0.163282,-0.003777
27020,9.277289,0.221379,0.964440,-0.058974,-0.185809,0.020007
27021,9.239279,0.095368,1.016135,-0.087771,-0.204804,0.040189
27022,9.256536,0.068667,1.019608,-0.102760,-0.212293,0.057589
27023,9.208039,0.108009,1.103467,-0.121677,-0.221460,0.066565
27024,9.352790,0.029823,1.211247,-0.148724,-0.236728,0.073458
27025,9.514054,-0.096974,1.208585,-0.169611,-0.239104,0.078706
27026,9.623218,-0.320829,1.227946,-0.198604,-0.235684,0.076436
27027,9.753122,-0.555736,1.221286,-0.214509,-0.228931,0.065567
27028,9.981815,-0.854929,1.134487,-0.233648,-0.237268,0.036391
27029,10.313612,-1.244556,0.936428,-0.212119,-0.213228,-0.004246
27030,10.581281,-1.672886,0.846885,-0.146650,-0.190688,-0.063217
27031,10.736480,-1.968408,0.800168,-0.040158,-0.164045,-0.109605
27032,10.770511,-2.172518,0.737785,0.088344,-0.152471,-0.150847
27033,10.710698,-2.223472,0.702974,0.219272,-0.137014,-0.178759
27034,10.463532,-1.969571,0.694259,0.333665,-0.130580,-0.195146
27035,10.320840,-1.705827,0.675123,0.416710,-0.123171,-0.194154
27036,10.201257,-1.500956,0.772499,0.463810,-0.102581,-0.174344
