// Start Time: Unknown
// Update Rate: 100.0Hz
// Filter Profile: human (46.1)
// Firmware Version: 4.3.5
PacketCounter,Acc_X,Acc_Y,Acc_Z,Gyr_X,Gyr_Y,Gyr_Z
35598,9.277744,-3.034349,1.888947,0.027447,0.014149,-0.023778
35599,9.295383,-3.027052,1.874303,0.024515,0.011831,-0.020143
35600,9.288855,-3.007438,1.838201,0.020539,0.009149,-0.010116
35601,9.339775,-3.036830,1.847662,0.013284,0.008740,-0.004524
35602,9.322472,-3.041230,1.865302,0.011632,0.004688,0.001665
35603,9.329821,-3.014705,1.845631,0.005660,0.002544,0.009814
35604,9.328636,-3.060334,1.903973,0.004834,0.000518,0.012909
35605,9.321447,-3.043684,1.866421,0.003433,0.001429,0.012760
35606,9.291411,-3.022883,1.913668,0.006453,-0.002056,0.009759
35607,9.276665,-3.033083,1.896263,0.010222,-0.001465,0.016811
35608,9.239791,-2.994711,1.905758,0.012550,-0.002839,0.012976
35609,9.253851,-2.986532,1.923320,0.015353,-0.004663,0.013278
35610,9.226665,-2.970023,1.936583,0.016673,0.000225,0.012799
35611,9.199411,-2.953625,1.950002,0.014447,-0.000888,0.015746
35612,9.230610,-2.940781,1.951275,0.016675,0.000224,0.012802
35613,9.254213,-2.954660,1.972953,0.015275,0.001135,0.012653
35614,9.261524,-2.928413,1.953213,0.012807,0.002119,0.006641
35615,9.288242,-2.945945,1.940615,0.011128,-0.001498,0.000575
35616,9.332370,-2.958315,1.911200,0.010653,-0.001050,-0.003561
35617,9.336606,-2.970612,1.983134,0.009899,-0.005132,-0.013612
35618,9.344836,-3.026812,1.938691,0.017733,-0.007670,-0.015951
35619,9.316847,-3.042858,1.903461,0.025192,-0.012250,-0.023313
35620,9.337187,-3.084023,1.910384,0.043076,-0.019526,-0.029406
35621,9.348192,-3.102164,1.913771,0.064281,-0.022451,-0.034095
35622,9.286533,-3.125283,1.912236,0.088778,-0.027644,-0.034329
35623,9.237284,-3.089961,1.904252,0.105552,-0.032791,-0.033094
35624,9.192744,-3.023254,1.910089,0.122832,-0.035070,-0.029232
35625,9.226003,-3.004008,1.911162,0.128823,-0.039588,-0.034253
35626,9.210309,-2.918318,1.951719,0.122332,-0.032176,-0.032367
35627,9.191677,-2.828128,2.026445,0.104190,-0.026149,-0.033697
35628,9.209978,-2.733772,2.033411,0.060097,-0.014028,-0.035009
35629,9.220424,-2.667200,2.060813,0.002389,0.003464,-0.032261
35630,9.266764,-2.556408,2.102288,-0.065330,0.020266,-0.037379
35631,9.304210,-2.433132,2.246373,-0.156665,0.050454,-0.036159
35632,9.365738,-2.365768,2.330902,-0.273458,0.089083,-0.041918
35633,9.356228,-2.343192,2.189156,-0.400447,0.126955,-0.047036
35634,9.330212,-2.207178,2.136517,-0.564288,0.163869,-0.044113
35635,9.269184,-2.502075,2.028534,-0.699125,0.188134,-0.046069
35636,9.230590,-3.105514,1.952126,-0.752528,0.196396,-0.037630
35637,9.131293,-3.713603,2.018491,-0.695467,0.181510,-0.026057
35638,9.172338,-4.126718,2.072184,-0.534644,0.153972,-0.007711
35639,9.371181,-4.362183,2.317324,-0.290116,0.125474,0.007760
35640,9.535763,-4.324399,2.698760,-0.016754,0.100467,0.049262
35641,9.443278,-3.917462,3.048946,0.204901,0.107780,0.078859
35642,9.436245,-3.135854,3.291391,0.307489,0.147081,0.108045
35643,9.673817,-2.511637,3.751894,0.262039,0.255055,0.124063
35644,9.855897,-2.512443,3.599582,0.137524,0.411370,0.134057
35645,9.610789,-2.105463,3.686253,-0.051886,0.561091,0.139328
35646,9.487807,-1.505236,3.684697,-0.345966,0.664287,0.116848
35647,9.428170,-1.122964,3.542715,-0.740116,0.744298,0.086010
35648,9.380185,-0.855788,3.383097,-1.168974,0.796045,0.058164
35649,9.288658,-0.899917,3.298246,-1.619162,0.832975,0.026909
35650,9.307562,-1.580004,3.138086,-2.008139,0.857517,0.019140
35651,9.268799,-2.544213,2.756916,-2.260985,0.859791,0.012420
35652,9.136708,-3.380284,2.294020,-2.350156,0.835005,0.027625
35653,8.936740,-4.267934,1.529035,-2.272436,0.769771,0.042603
35654,8.290521,-5.704281,0.024823,-1.938674,0.604046,0.054449
35655,7.448175,-8.732105,-1.605369,-1.043354,0.308459,0.037417
35656,7.378983,-14.131100,-2.111980,0.879936,-0.017363,-0.014735
35657,8.068727,-17.343404,-0.507505,3.542210,-0.275855,0.054467
35658,8.638171,-15.076526,-0.540930,6.097798,-0.537389,0.202262
35659,9.428968,-9.413967,-0.816785,7.887640,-0.772474,0.335983
35660,10.428417,-4.414519,-0.852240,8.657893,-0.849939,0.491310
35661,10.892025,-1.469994,-0.552047,8.657057,-0.803189,0.639397
35662,10.793640,0.189526,0.137180,8.187003,-0.715105,0.740920
35663,10.674110,2.093170,2.106072,7.329384,-0.577597,0.795719
35664,10.488349,4.966854,4.399321,5.872838,-0.369013,0.786690
35665,10.098982,7.270228,5.358430,3.754791,-0.108317,0.762063
35666,9.535896,7.747948,5.445575,1.336375,0.208490,0.681699
35667,9.001110,6.228291,4.533470,-0.914210,0.503794,0.535177
35668,8.658404,3.502250,2.680630,-2.629251,0.688258,0.339715
35669,8.202731,1.672672,1.392611,-3.734758,0.798303,0.132170
35670,7.986478,0.303372,0.960947,-4.385748,0.857431,-0.037982
35671,8.256437,-1.574826,0.944324,-4.722790,0.918111,-0.117793
35672,8.678145,-4.125537,0.767091,-4.655506,0.986403,-0.123460
35673,8.063546,-8.639395,-1.300332,-3.951883,0.954817,-0.058684
35674,7.069441,-13.936780,-2.539635,-2.206332,0.722877,0.009195
35675,6.261998,-18.142020,-1.917352,0.502591,0.356271,0.145841
35676,7.186782,-18.256895,1.175099,3.758139,-0.082843,0.321220
35677,8.907206,-12.520030,3.636924,6.375205,-0.381166,0.462379
35678,10.498886,-5.594445,3.848238,7.657048,-0.515133,0.642695
35679,11.111114,-0.734452,3.787328,7.770407,-0.454945,0.915545
35680,11.038654,2.177664,4.321639,7.100019,-0.287122,1.121350
35681,10.415942,4.426790,5.756215,5.880699,-0.068642,1.136674
35682,9.691172,5.785890,6.954882,4.226247,0.184587,0.987191
35683,9.006364,6.457217,7.142789,2.268012,0.407985,0.835509
35684,9.079307,5.979227,6.118986,0.158807,0.578432,0.732580
35685,9.043409,4.368829,4.481261,-1.734693,0.751539,0.539360
35686,8.591544,3.139687,3.593511,-3.105625,0.879692,0.244021
35687,8.530998,2.640771,3.738506,-4.103151,0.975473,-0.019996
35688,8.756568,0.753653,3.497227,-4.756626,1.110830,-0.162800
35689,9.018162,-1.764279,3.431005,-5.029910,1.273652,-0.245523
35690,8.742780,-5.009242,2.539009,-4.809794,1.414356,-0.237588
35691,7.216821,-7.967748,0.788450,-4.164862,1.286744,-0.121983
35692,5.988585,-10.267565,0.608132,-3.028845,0.951781,0.028574
35693,5.754442,-11.665434,1.985460,-1.548859,0.581441,0.158380
35694,6.480082,-12.291193,3.630756,0.207713,0.215128,0.296565
35695,8.077477,-10.948845,5.520019,2.017144,-0.033457,0.438997
35696,9.336146,-7.905247,6.393535,3.464194,-0.109839,0.604533
35697,9.515722,-4.569960,6.209119,4.253074,-0.113141,0.780241
35698,9.147802,-2.027872,5.866111,4.389097,-0.071726,0.890689
35699,8.890644,0.095000,6.276887,3.998425,0.037750,0.856444
35700,8.679337,1.781184,7.019827,3.158127,0.211230,0.724224
35701,8.467167,2.743285,7.033645,1.955169,0.405501,0.583452
35702,8.520550,2.787387,5.728103,0.492761,0.612373,0.406695
35703,8.096112,2.788740,4.661313,-0.901302,0.808179,0.139719
35704,7.937098,2.991102,4.432779,-2.095262,0.949944,-0.214749
35705,7.893520,2.531818,4.369109,-3.081472,1.084008,-0.510862
35706,8.050352,1.171653,4.201242,-3.847438,1.144879,-0.664313
35707,7.863501,-1.187115,3.434506,-4.404788,1.177975,-0.661054
35708,6.578187,-5.128735,1.389047,-4.573039,1.041378,-0.448967
35709,5.348912,-10.345475,1.004706,-3.880317,0.780405,-0.167569
35710,5.430557,-14.181910,3.471409,-2.146162,0.460857,-0.012564
35711,7.062571,-15.688143,5.734068,0.243048,0.212613,0.113197
35712,8.705043,-12.943734,6.648194,2.564579,0.018243,0.305442
35713,9.471434,-7.673975,6.788639,4.014867,-0.048433,0.559068
35714,9.677725,-3.568561,6.856027,4.479391,0.010075,0.770982
35715,9.293592,-0.771336,7.155665,4.224625,0.174506,0.789243
35716,8.133764,1.653475,7.870355,3.466691,0.370598,0.632386
35717,7.408932,3.192054,8.217738,2.193524,0.563333,0.473241
35718,7.494513,3.641750,7.575811,0.565793,0.791470,0.272550
35719,7.880469,3.927434,6.877532,-1.182747,1.037785,-0.045625
35720,7.893519,4.630441,6.800825,-2.797256,1.309357,-0.483590
35721,7.873760,4.613174,6.161049,-4.322384,1.528555,-0.881089
35722,8.108529,2.683237,5.171754,-5.657120,1.713641,-1.106637
35723,8.516242,-0.394753,3.864837,-6.663958,1.814328,-1.121536
35724,8.508882,-4.280760,2.445629,-7.277171,1.853820,-0.975023
35725,6.905687,-8.824253,-0.127280,-7.338529,1.711206,-0.661399
35726,4.780827,-14.648227,-1.085395,-6.477439,1.342877,-0.235621
35727,4.620123,-18.897035,2.709039,-4.323897,0.956035,-0.035748
35728,5.610439,-20.571412,4.943363,-1.376712,0.602864,0.181433
35729,7.375635,-17.681741,5.429759,1.621487,0.224516,0.491807
35730,8.690237,-11.785119,5.975200,3.704987,0.051433,0.818800
35731,9.016556,-6.022875,6.543725,4.587444,0.077065,1.024760
35732,8.458735,-2.071922,7.001499,4.493138,0.256331,1.067134
35733,7.647913,1.167400,8.143435,3.679116,0.483886,0.947967
35734,6.869065,3.063051,7.882131,2.190349,0.741306,0.842886
35735,6.528039,2.049022,5.879593,0.320862,0.873505,0.794545
35736,6.810965,1.019742,5.149866,-1.364390,1.024886,0.553674
35737,6.581296,-0.019067,4.830634,-2.682677,1.142126,0.256631
35738,6.773488,-1.413952,4.563876,-3.537340,1.156921,0.103908
35739,7.090465,-3.950575,4.094579,-3.944412,1.178091,0.125288
35740,6.093238,-7.845113,2.435619,-3.867503,1.092163,0.331795
35741,4.456315,-12.327739,1.890740,-3.064751,0.793889,0.657244
35742,3.828665,-16.029142,2.731954,-1.501250,0.369207,0.945816
35743,5.301817,-17.912802,4.803299,0.737442,-0.003717,1.232412
35744,6.807015,-15.297886,6.269645,2.966598,-0.279472,1.535669
35745,7.392780,-10.460710,6.096130,4.323044,-0.448026,1.915146
35746,7.504374,-6.449972,6.053680,4.673666,-0.517953,2.220528
35747,7.869994,-4.447525,7.199713,4.438879,-0.430989,2.362988
35748,7.986415,-1.952338,10.372860,3.962159,-0.123717,2.264262
35749,6.800987,1.311754,12.052118,2.913731,0.306688,2.071326
35750,5.212599,1.744475,9.919646,1.109517,0.581979,2.045329
35751,5.137154,-0.443753,7.171536,-0.708942,0.770373,1.891207
35752,5.683381,-2.090992,6.225787,-1.995809,1.053861,1.473434
35753,5.437109,-2.887687,5.905421,-2.679041,1.293957,1.030794
35754,4.998338,-2.712920,5.867467,-3.109120,1.412814,0.751355
35755,4.831893,-3.144206,5.329118,-3.571559,1.492260,0.665492
35756,4.523828,-4.222036,4.309727,-4.029878,1.491434,0.691027
35757,3.346210,-6.639215,2.374503,-4.338330,1.349279,0.819663
35758,1.942612,-10.774778,0.675026,-4.124588,1.037750,0.987574
35759,1.104102,-15.176621,0.589276,-3.005030,0.573793,1.049925
35760,2.429808,-18.275395,2.883815,-1.008723,0.143293,1.031093
35761,4.641056,-18.211552,4.868861,1.377753,-0.151107,1.048167
35762,5.559986,-14.149332,5.692745,3.364282,-0.318325,1.146009
35763,5.359458,-9.363026,5.956867,4.442871,-0.349351,1.243870
35764,5.238865,-6.491020,6.646738,4.764871,-0.251058,1.301784
35765,4.908280,-4.899108,7.241665,4.577686,-0.069634,1.280360
35766,4.406017,-3.311937,8.018021,3.989115,0.097605,1.208759
35767,4.213758,-2.106837,8.347495,3.016160,0.300640,1.114787
35768,4.308378,-0.944701,7.826814,1.784717,0.545340,0.966027
35769,4.759951,0.815929,7.632371,0.379951,0.876165,0.691150
35770,5.166724,2.701610,7.974148,-1.149690,1.328257,0.330944
35771,4.906544,3.862778,7.522738,-2.822066,1.759965,-0.014422
35772,4.733969,3.014524,5.955659,-4.473138,2.072089,-0.202330
35773,3.986759,0.134303,3.561483,-5.891547,2.238932,-0.216504
35774,2.108856,-4.247059,-0.028113,-6.857381,2.093066,-0.020422
35775,-0.362928,-10.715338,-2.779402,-6.944110,1.673126,0.310071
35776,-1.357904,-18.119833,-1.511206,-5.586404,1.200404,0.445049
35777,-0.486568,-22.885843,2.413898,-2.895233,0.612133,0.467083
35778,1.901023,-22.823404,4.324852,0.260083,0.065736,0.567000
35779,3.508062,-17.394365,4.960975,2.886290,-0.269307,0.756992
35780,3.632638,-10.934557,5.809257,4.295394,-0.423121,0.939166
35781,3.747935,-7.403193,6.077559,4.666717,-0.431420,1.059274
35782,3.584487,-6.241472,6.316219,4.588730,-0.328979,1.092875
35783,2.969620,-5.232248,7.543367,4.261730,-0.184032,1.060593
35784,2.306975,-3.358813,8.604818,3.629201,-0.063775,0.997030
35785,2.061327,-2.169801,8.387770,2.613998,0.040250,0.966068
35786,1.928081,-1.808792,7.589022,1.423613,0.189761,0.836393
35787,2.305891,-1.287988,6.603600,0.176852,0.372727,0.572285
35788,2.625837,0.091485,6.158442,-1.033613,0.602331,0.268485
35789,2.530601,0.522807,5.594825,-2.291518,0.825820,0.000458
35790,2.363715,-1.299219,4.983242,-3.294521,1.025150,-0.157304
35791,1.870782,-4.251510,4.147431,-3.956350,1.080412,-0.145246
35792,0.780511,-7.767275,2.762047,-4.312300,0.939390,0.053383
35793,0.083739,-12.217066,2.322480,-4.035918,0.730553,0.236799
35794,-0.451492,-16.198239,2.596837,-2.937137,0.444261,0.359122
35795,-0.331789,-18.389511,2.839916,-1.168892,0.021656,0.488091
35796,0.081748,-18.146257,2.848277,0.886714,-0.405500,0.662464
35797,-0.201409,-16.747348,2.956341,2.882587,-0.797876,0.874151
35798,0.220218,-15.240397,3.815914,4.683062,-1.116750,1.033352
35799,1.699105,-13.329849,4.683981,6.170271,-1.311285,1.177634
35800,3.077106,-10.279631,6.860618,7.188940,-1.330217,1.331313
35801,3.615447,-6.340088,9.612510,7.533395,-1.078811,1.417759
35802,2.829185,-1.907630,11.127024,7.061889,-0.737577,1.395067
35803,1.892034,1.163371,11.704239,5.768925,-0.394431,1.341281
35804,0.839169,2.062295,10.114180,3.841726,-0.198452,1.275933
35805,1.788016,1.193680,8.710157,1.775118,0.033337,1.074330
35806,2.783570,1.927534,8.887803,0.048943,0.439556,0.637916
35807,2.728260,2.793540,8.764157,-1.323606,0.838017,0.218495
35808,2.734861,2.444511,8.840429,-2.415255,1.250395,-0.111627
35809,2.474897,1.277140,8.155442,-3.488308,1.528813,-0.235648
35810,1.595785,0.380894,7.188994,-4.738366,1.648324,-0.210436
35811,-0.285011,-2.652479,4.419466,-6.137820,1.548439,0.042594
35812,-2.075635,-8.633195,3.047617,-6.725868,1.295308,0.332255
35813,-2.096957,-15.555185,4.111833,-5.966553,1.035021,0.465963
35814,-0.798591,-20.642127,4.958101,-3.910187,0.684726,0.604239
35815,0.248374,-20.801058,5.326825,-1.213143,0.348827,0.801932
35816,-0.075252,-16.754856,4.628008,1.134819,0.030451,0.998349
35817,-0.863616,-13.164199,4.508101,2.782791,-0.220549,1.138277
35818,-0.503071,-11.926483,5.173748,3.974086,-0.373759,1.203560
35819,0.125490,-11.416454,5.790778,4.964609,-0.470553,1.267252
35820,0.798017,-9.666207,7.007229,5.710825,-0.489709,1.364896
35821,1.183683,-6.220552,9.236853,5.999254,-0.355372,1.407474
35822,0.681583,-2.263851,10.345294,5.567953,-0.162693,1.379238
35823,-0.639109,0.096199,9.504166,4.448895,0.006084,1.321750
35824,-0.896866,0.259331,7.648569,3.000623,0.070341,1.192671
35825,0.264200,0.238512,7.745209,1.611785,0.283358,0.935164
35826,0.463762,0.442790,8.705751,0.425493,0.567836,0.643685
35827,0.411303,0.450266,9.668532,-0.539211,0.815882,0.384754
35828,-0.040266,0.135463,9.449173,-1.439220,1.077483,0.162188
35829,-0.888331,-1.713928,7.896530,-2.263668,1.162755,0.144384
35830,-2.484101,-5.427798,6.708501,-2.667098,1.079740,0.226547
35831,-3.456213,-10.171077,6.684491,-2.366529,0.859229,0.326291
35832,-3.030315,-14.180991,7.649685,-1.183551,0.586196,0.433466
35833,-1.919251,-15.303096,8.567515,0.610316,0.354265,0.535479
35834,-1.372238,-13.187789,7.791330,2.389964,0.144427,0.714294
35835,-1.209838,-10.101599,7.443558,3.756263,0.009177,0.883900
35836,-0.785893,-8.037307,7.260296,4.647191,-0.048801,1.011990
35837,-0.720000,-6.788703,6.482169,5.171692,-0.115188,1.103186
35838,-0.294359,-5.760894,7.752373,5.559241,-0.108150,1.219479
35839,0.196725,-3.668066,8.885208,5.648028,-0.017881,1.301130
35840,0.189025,-1.362465,9.417085,5.361936,0.127826,1.394778
35841,-0.186225,0.869282,9.479339,4.707874,0.283408,1.456246
35842,-0.396006,2.587531,8.917689,3.701631,0.396931,1.445695
35843,-0.252086,3.638414,8.559867,2.577013,0.529676,1.340539
35844,-0.450192,4.979084,9.032437,1.513997,0.686134,1.122142
35845,-0.517407,6.311056,9.996711,0.455107,0.877863,0.874279
35846,-0.481846,7.336270,10.716913,-0.724947,1.151805,0.590306
35847,-0.283980,7.898905,10.745770,-2.103355,1.438068,0.339746
35848,-0.673203,7.868200,9.899492,-3.642918,1.694132,0.087271
35849,-1.176058,7.201163,8.456497,-5.249470,1.895768,-0.133659
35850,-1.774595,5.939347,6.198244,-6.832942,1.977423,-0.283280
35851,-3.123703,4.224980,2.789566,-8.356205,1.822105,-0.282177
35852,-4.273316,1.152802,0.390384,-9.527755,1.510047,-0.148069
35853,-4.644286,-3.741194,-0.683863,-9.990454,1.179947,0.000362
35854,-4.475998,-10.091663,-0.913492,-9.386626,0.804220,0.176079
35855,-3.782907,-16.649046,0.378199,-7.494391,0.431561,0.259202
35856,-3.542348,-20.412732,1.560034,-4.573000,0.006020,0.308254
35857,-3.237030,-21.098347,3.200067,-1.108460,-0.325799,0.397980
35858,-2.939566,-18.985517,3.989629,2.328087,-0.530463,0.415052
35859,-2.514207,-14.098507,4.688282,5.110833,-0.641497,0.436724
35860,-2.347852,-9.190779,5.620532,6.889491,-0.643702,0.497583
35861,-2.390369,-4.765637,6.699410,7.684197,-0.558610,0.564228
35862,-2.874097,0.134415,7.796827,7.479173,-0.491358,0.592826
35863,-2.791521,4.054288,8.795203,6.190654,-0.404782,0.699271
35864,-2.468094,6.450045,8.627171,4.134065,-0.264241,0.736518
35865,-1.353549,9.351819,9.001968,1.683820,0.050854,0.547554
35866,-1.304335,11.696252,9.408408,-0.877286,0.489942,0.191516
35867,-1.535515,10.898536,9.163197,-3.341202,0.920913,-0.139436
35868,-1.250110,7.686344,8.444993,-5.484405,1.306994,-0.337151
35869,-1.526747,4.607723,6.919581,-7.249097,1.608725,-0.434924
35870,-3.123510,1.741123,3.592067,-8.746231,1.712298,-0.407777
35871,-4.727980,-4.336556,0.548985,-9.483273,1.621075,-0.246250
35872,-6.224683,-14.731035,1.691302,-8.544247,1.530381,-0.147451
35873,-6.554786,-25.260632,2.308415,-5.652471,1.026803,-0.124276
35874,-5.736568,-28.751795,1.705081,-1.275833,0.411949,-0.025645
35875,-5.819060,-23.317929,1.374345,2.958726,-0.230225,0.113434
35876,-4.986322,-15.434269,2.343602,5.837635,-0.663713,0.179817
35877,-3.590043,-9.455010,3.334344,7.305735,-0.823232,0.254927
35878,-3.404300,-4.678846,4.695045,7.766779,-0.828188,0.346078
35879,-3.379440,0.408836,6.634191,7.397485,-0.735378,0.363922
35880,-3.282059,6.706120,9.005361,5.940693,-0.562658,0.280904
35881,-2.705796,11.057243,10.370516,3.340130,-0.214678,0.120257
35882,-1.910940,11.330674,10.915979,0.152989,0.289297,-0.088890
35883,-1.517815,8.061945,9.795163,-2.652850,0.750056,-0.312066
35884,-2.094103,4.176143,8.734439,-4.636904,1.114748,-0.490317
35885,-2.801031,0.729282,7.404082,-5.946318,1.348165,-0.605989
35886,-2.979958,-1.646568,5.735032,-6.722760,1.526495,-0.692509
35887,-2.864105,-2.363162,4.158369,-7.404859,1.539020,-0.686689
35888,-3.885268,-3.085816,1.763079,-8.186235,1.520187,-0.607451
35889,-4.897193,-6.225219,-0.278540,-8.660323,1.365332,-0.431472
35890,-5.121232,-12.631019,0.107434,-8.154059,1.222179,-0.306900
35891,-5.155931,-17.709670,0.409935,-6.537972,0.932829,-0.233332
35892,-5.026329,-18.399211,0.731788,-4.247734,0.566044,-0.175903
35893,-4.862208,-14.924964,1.159166,-2.215483,0.235824,-0.136492
35894,-4.312224,-10.355201,2.451628,-1.109658,0.020026,-0.103728
35895,-3.834491,-7.360180,3.608634,-0.880187,-0.035118,-0.083262
35896,-3.456719,-5.646700,4.287539,-1.165374,0.015307,-0.069338
35897,-3.254184,-3.838742,4.197663,-1.701758,0.160282,-0.099293
35898,-3.121962,-1.371044,4.026099,-2.502017,0.366349,-0.141254
35899,-2.485453,0.827174,3.490394,-3.568859,0.671136,-0.189267
35900,-1.695654,2.458899,1.922568,-4.982905,1.061058,-0.186632
35901,-1.789036,2.768445,-1.101068,-6.714216,1.447352,-0.103422
35902,-2.175124,0.714740,-3.654802,-8.664739,1.794980,0.119180
35903,-2.916927,-2.049978,-7.036027,-10.516625,2.001186,0.425268
35904,-3.532344,-5.732816,-10.314918,-11.834558,2.062023,0.799254
35905,-3.895428,-8.089475,-10.692857,-12.526893,2.004810,1.189617
35906,-4.416969,-8.611037,-9.591403,-12.678636,1.938839,1.416740
35907,-6.079557,-10.680806,-10.989669,-12.017144,1.723860,1.425709
35908,-8.479130,-17.396068,-11.058375,-9.732695,1.352243,1.126598
35909,-9.221268,-22.053545,-9.955344,-6.042286,0.778698,0.652584
35910,-6.974194,-19.830939,-8.087572,-2.164963,0.310998,0.138274
35911,-5.314569,-15.319978,-6.508627,0.881015,0.013604,-0.371231
35912,-4.800303,-12.599429,-6.161180,2.970568,-0.214130,-0.704480
35913,-4.492907,-8.753626,-6.378148,3.952428,-0.340380,-0.743939
35914,-3.737683,-2.208949,-5.338120,3.488806,-0.372061,-0.550720
35915,-2.322924,3.643109,-2.998755,1.747172,-0.060874,-0.266764
35916,-2.244457,5.639401,-3.181157,-0.536941,0.472923,-0.043149
35917,-3.154891,1.840238,-4.898442,-2.645096,0.895675,0.211716
35918,-3.658570,-1.925911,-6.375852,-4.228070,1.132309,0.523042
35919,-3.854298,-2.844110,-7.157099,-5.553303,1.283417,0.801165
35920,-4.572541,-4.113252,-8.782612,-6.448232,1.368383,0.958668
35921,-5.408189,-6.129740,-10.783586,-6.628231,1.254814,1.032722
35922,-5.857240,-7.304306,-11.239106,-6.198230,1.070103,1.064239
35923,-6.043915,-7.976825,-9.406636,-5.141832,0.846183,0.895087
35924,-7.284615,-10.956331,-8.431989,-3.225768,0.669453,0.413159
35925,-7.420253,-13.803189,-9.138497,-0.447815,0.398090,-0.094341
35926,-6.218427,-11.737682,-9.497399,2.249800,0.115304,-0.608598
35927,-4.781212,-6.703168,-9.090938,3.734600,-0.185368,-0.947982
35928,-3.899204,-3.989945,-8.327456,3.891580,-0.392070,-1.034324
35929,-3.184821,-3.616048,-6.891592,3.282211,-0.481905,-0.907638
35930,-2.042678,-3.351198,-5.914677,2.115444,-0.357695,-0.550769
35931,-2.415918,-0.905255,-7.767424,0.969129,-0.071225,-0.253644
35932,-3.884787,1.296637,-9.292104,0.027667,0.048357,-0.103004
35933,-4.281706,1.402901,-9.464293,-0.842085,0.113045,0.039445
35934,-3.492480,0.248626,-8.485392,-1.785939,0.267081,0.261777
35935,-3.194147,-0.807376,-7.633242,-2.744953,0.510196,0.493367
35936,-3.794847,-1.790026,-7.825909,-3.438012,0.702033,0.574838
35937,-5.315780,-3.897338,-9.559835,-3.532441,0.764088,0.483363
35938,-6.792980,-7.613491,-11.107256,-2.729797,0.578502,0.165070
35939,-7.026104,-11.386929,-11.668775,-1.154774,0.297795,-0.208579
35940,-6.701942,-13.037684,-10.780681,0.934405,-0.002165,-0.601229
35941,-4.959243,-11.655359,-9.970501,3.007838,-0.242592,-0.910984
35942,-4.394663,-8.954798,-10.061441,4.620212,-0.418641,-1.166584
35943,-4.579259,-6.594506,-10.381262,5.632598,-0.668637,-1.360193
35944,-4.540901,-5.495503,-9.750962,5.802325,-0.926826,-1.354312
35945,-3.591230,-4.794620,-8.046414,5.110108,-0.998914,-1.041618
35946,-2.520707,-2.017880,-7.244118,3.702139,-0.839654,-0.580340
35947,-3.012103,2.277760,-7.900179,1.978276,-0.654482,-0.232049
35948,-3.507541,3.333123,-7.773474,0.166899,-0.512094,0.023005
35949,-3.352551,0.422679,-7.260444,-1.492173,-0.337441,0.366671
35950,-3.382625,-2.917817,-7.589489,-2.774579,-0.123502,0.705322
35951,-4.137134,-5.416217,-8.393078,-3.465743,0.041356,0.901913
35952,-5.125837,-7.538437,-9.647310,-3.477946,0.081191,0.927046
35953,-5.653251,-9.020143,-10.610583,-2.940638,-0.007407,0.822127
35954,-6.054180,-9.745193,-10.656127,-1.931809,-0.173132,0.573715
35955,-6.239531,-10.765406,-9.184392,-0.590818,-0.375868,0.232134
35956,-5.799847,-10.626782,-7.965013,1.183335,-0.567234,-0.217532
35957,-5.415170,-10.843085,-6.715398,3.011913,-0.751243,-0.700943
35958,-4.397699,-10.189846,-6.601273,4.659472,-0.866910,-0.986936
35959,-4.239272,-7.564499,-7.327464,5.703656,-0.977727,-1.163927
35960,-4.343280,-4.528268,-7.424527,5.834115,-1.132978,-1.197237
35961,-4.442830,-3.748279,-6.733631,5.372232,-1.248074,-1.156990
35962,-4.002333,-3.941325,-5.995861,4.681048,-1.247729,-1.029403
35963,-3.576115,-3.254029,-5.236191,3.908657,-1.175965,-0.835400
35964,-3.029560,-2.718614,-4.545525,2.974804,-0.991761,-0.557222
35965,-2.639626,-2.813602,-3.904083,1.945845,-0.723547,-0.251755
35966,-2.621272,-3.188856,-3.540732,0.891901,-0.441294,0.027923
35967,-2.909792,-4.390612,-3.498778,-0.084013,-0.175532,0.239183
35968,-3.461910,-5.980294,-3.752593,-0.820836,0.029896,0.378515
35969,-4.245409,-8.235977,-4.222862,-1.237377,0.164451,0.483822
35970,-4.660848,-10.825695,-4.165692,-1.087878,0.211568,0.487553
35971,-5.830733,-13.406854,-4.591398,-0.072180,0.113552,0.216376
35972,-6.639851,-15.498358,-4.812549,1.579083,-0.133388,-0.149139
35973,-6.702977,-15.537445,-5.382965,3.584974,-0.451650,-0.458195
35974,-5.600333,-14.288890,-5.679646,5.491410,-0.717463,-0.670827
35975,-4.588667,-12.096907,-5.886035,6.908598,-0.889814,-0.761315
35976,-4.061231,-10.173674,-6.273539,7.765809,-0.966701,-0.737636
35977,-4.418904,-7.988592,-7.097991,8.320062,-1.046968,-0.694573
35978,-4.251828,-7.137113,-7.639572,8.837855,-1.113391,-0.622876
35979,-3.377207,-8.512796,-7.757978,9.438136,-1.002224,-0.510305
35980,-2.936152,-10.095035,-6.537417,10.121522,-0.833693,-0.311481
35981,-2.643921,-8.524286,-4.148257,10.736995,-0.715223,-0.118745
35982,-2.497516,-3.205381,-1.707011,10.618749,-0.619729,-0.011930
35983,-3.371010,2.320632,0.380133,9.364441,-0.569420,-0.004570
35984,-4.246216,3.777017,2.528142,7.397854,-0.524550,0.018115
35985,-4.513194,-0.647987,4.148929,5.642200,-0.440685,0.111761
35986,-4.867899,-7.859873,5.189124,5.204137,-0.425825,0.172882
35987,-4.620019,-12.713250,4.894134,6.039096,-0.676875,0.288094
35988,-3.807129,-12.918329,2.995736,7.541188,-1.067856,0.493827
35989,-3.581644,-9.917202,1.726087,8.796582,-1.325193,0.749187
35990,-3.304028,-8.026248,1.137614,9.567534,-1.433421,0.970441
35991,-2.680213,-7.569891,1.537489,10.271376,-1.468017,1.143175
35992,-1.795465,-5.367090,3.655930,11.011114,-1.401827,1.305364
35993,-1.504143,0.409113,5.281422,11.168171,-1.275133,1.382981
35994,-2.199289,6.947995,5.912275,10.141877,-1.090798,1.415681
35995,-2.656676,11.074948,7.275514,8.205010,-0.837699,1.286404
35996,-3.116614,12.862025,8.901145,5.922453,-0.587827,0.963208
35997,-3.306259,12.985071,10.519454,3.735145,-0.377467,0.564998
35998,-3.335308,12.318004,11.491345,1.768450,-0.182191,0.101979
35999,-3.149180,10.616497,11.867510,-0.028453,-0.003937,-0.320520
36000,-2.984350,9.015012,11.987352,-1.660205,0.143931,-0.654951
36001,-2.574766,7.279960,11.244964,-3.226602,0.291992,-0.915764
36002,-2.468699,4.006419,9.324087,-4.478982,0.448722,-1.030390
36003,-3.356743,-0.021460,6.713660,-5.096998,0.488381,-1.076978
36004,-4.220466,-5.525806,5.414033,-4.864053,0.392800,-0.987360
36005,-4.250720,-11.471666,5.960961,-3.472342,0.214013,-0.827599
36006,-3.600089,-15.325063,7.001640,-1.063083,-0.036976,-0.526479
36007,-3.114040,-16.171973,7.140514,1.755874,-0.292373,-0.060265
36008,-2.905869,-13.373510,6.962822,4.398578,-0.513515,0.401718
36009,-2.610669,-8.102780,6.290887,6.120134,-0.639036,0.788108
36010,-2.719267,-2.532127,5.955953,6.776517,-0.712668,1.040731
36011,-2.760265,2.697115,6.109224,6.541445,-0.730234,1.116320
36012,-3.019217,6.597369,6.620586,5.647696,-0.661047,1.021819
36013,-3.097359,9.688745,7.884440,4.335835,-0.542637,0.820791
36014,-2.966162,11.127853,8.965167,2.755212,-0.394842,0.546778
36015,-3.114965,10.573290,9.784251,1.236010,-0.249206,0.270584
36016,-3.106557,8.750327,10.239530,-0.014569,-0.172952,0.004636
36017,-2.899893,6.781190,10.694962,-0.968353,-0.114768,-0.225562
36018,-2.801843,5.621945,11.221351,-1.790159,-0.032292,-0.371434
36019,-2.640566,4.849928,11.102807,-2.673674,0.093236,-0.450407
36020,-2.698113,2.386524,9.974191,-3.515793,0.231761,-0.385070
36021,-3.277960,-3.216574,8.871090,-3.689715,0.335724,-0.131273
36022,-3.666716,-9.773444,8.286161,-2.589094,0.321782,0.229464
36023,-3.561865,-14.041566,7.715177,-0.236865,0.136101,0.647034
36024,-2.776744,-11.750457,7.061268,2.571952,-0.153108,1.017654
36025,-2.708511,-2.875435,5.637745,4.511558,-0.419021,1.246958
36026,-3.245827,5.169237,5.232065,4.947730,-0.547761,1.246889
36027,-3.661590,8.939327,5.669605,4.446490,-0.515703,1.117428
36028,-3.888631,11.556011,6.416561,3.493947,-0.471680,0.864606
36029,-3.761427,13.612947,8.413242,2.227667,-0.366262,0.499181
36030,-3.819402,16.249411,9.892891,0.638666,-0.246619,0.050657
36031,-3.777396,17.439416,10.502570,-1.366176,-0.081549,-0.407226
36032,-3.326148,15.853946,11.001819,-3.424894,0.142995,-0.871054
36033,-1.944005,13.153304,10.305520,-5.360533,0.392796,-1.337427
36034,-0.501142,10.268494,8.767814,-7.256749,0.662276,-1.713369
36035,0.142066,6.885657,6.359287,-9.042148,0.909547,-1.971582
36036,-0.190910,2.223884,3.442208,-10.386789,1.073097,-2.097972
36037,-0.916300,-4.342113,0.822235,-10.964686,1.116958,-2.007529
36038,-2.056816,-12.624769,0.467039,-10.238107,1.017885,-1.652487
36039,-3.418485,-20.086324,1.693029,-7.942305,0.718362,-1.178807
36040,-4.156311,-25.091600,3.626140,-4.205426,0.285137,-0.632279
36041,-3.590638,-24.912258,3.895234,0.224785,-0.297290,-0.037776
36042,-2.404985,-18.853935,4.226950,4.240769,-0.834042,0.608530
36043,-1.814216,-9.326048,4.042941,6.724459,-1.162685,1.112330
36044,-2.075528,-1.318188,4.129410,7.450187,-1.266226,1.368441
36045,-3.037234,4.917120,5.376272,7.010543,-1.163195,1.340838
36046,-3.712947,8.211288,6.587237,5.518356,-1.110904,1.310073
36047,-2.928006,11.080076,8.983318,3.490114,-0.870916,0.956551
36048,-2.522668,13.202953,11.072748,0.992610,-0.543844,0.476475
36049,-2.285568,11.574338,11.358142,-1.547125,-0.191483,0.020018
36050,-2.163914,7.924734,10.621364,-3.414147,0.062917,-0.421868
36051,-2.594963,4.121860,10.088271,-4.439401,0.239212,-0.832307
36052,-2.221487,1.322612,9.340280,-4.902404,0.290015,-1.100772
36053,-1.849434,-0.916529,8.094986,-5.201650,0.297327,-1.207516
36054,-2.036125,-4.100723,6.494898,-5.371435,0.249655,-1.087489
36055,-2.454195,-8.766175,5.639250,-4.921265,0.168985,-0.809490
36056,-2.960899,-14.065050,5.743571,-3.462021,0.022311,-0.544844
36057,-3.014275,-16.857409,6.612540,-0.889778,-0.326782,-0.254971
36058,-1.699248,-14.475245,7.558798,1.872344,-0.692394,0.140721
36059,-0.879006,-9.626687,7.291219,3.678195,-0.884719,0.627892
36060,-0.724319,-5.794708,6.582504,4.446154,-0.990856,1.035931
36061,-0.768183,-2.276648,6.736149,4.662624,-1.016002,1.219350
36062,-1.253202,2.288710,8.219567,4.355797,-0.961356,1.203275
36063,-2.342894,6.943053,8.959401,3.272934,-0.927609,1.091782
36064,-1.772913,8.890138,10.395093,1.482211,-0.738424,0.927140
36065,-1.237211,8.371123,10.600038,-0.531405,-0.367387,0.579078
36066,-0.376695,6.515805,10.059091,-2.309939,-0.050360,0.162025
36067,0.182322,5.245006,10.180979,-3.572801,0.335376,-0.382077
36068,0.105267,4.553071,9.167078,-4.530856,0.654254,-0.869022
36069,0.122388,3.294224,7.739689,-5.447695,0.870386,-1.181084
36070,0.880760,1.792797,6.148739,-6.385145,1.042324,-1.380066
36071,1.515935,-0.746228,5.148316,-7.299661,1.249971,-1.482402
36072,2.190240,-3.786278,3.496630,-7.919534,1.434616,-1.453681
36073,0.960456,-6.841413,0.392950,-8.250059,1.451759,-1.294430
36074,-2.810864,-10.838971,-3.071991,-8.019538,1.112570,-0.954730
36075,-8.034935,-16.519552,-4.144070,-6.767142,0.421719,-0.546861
36076,-9.632065,-24.020289,0.205132,-3.790302,-0.307891,-0.277337
36077,-5.165330,-27.157510,5.525576,0.582639,-0.991166,-0.150441
36078,0.660127,-21.531751,7.320816,4.462599,-1.513539,0.264313
36079,1.123124,-12.972403,8.186850,6.645064,-1.777098,0.856656
36080,-0.101598,-7.649674,7.927397,7.189632,-1.896400,1.337724
36081,-1.741485,-4.766481,8.112808,7.096080,-1.836502,1.469862
36082,-3.699707,-2.395205,8.263788,6.696363,-1.723778,1.316032
36083,-4.753005,0.427269,8.535161,5.917925,-1.559052,1.054784
36084,-4.003317,5.145157,10.211359,4.643500,-1.282950,0.686296
36085,-2.732506,10.645553,13.008638,2.691918,-0.796141,0.133273
36086,-1.644680,13.350872,14.347104,0.144099,-0.216263,-0.469282
36087,-1.021047,11.812753,13.071566,-2.500218,0.288126,-1.056814
36088,-0.634465,7.947062,11.076776,-4.713389,0.647852,-1.577563
36089,-1.206716,2.900237,8.765792,-6.329072,0.963587,-1.930580
36090,-2.104666,-2.923820,5.865880,-7.202932,1.076823,-2.084060
36091,-3.364036,-8.704852,3.330259,-7.181836,0.965304,-2.055468
36092,-4.314870,-14.095035,2.579463,-6.186123,0.663451,-1.945200
36093,-3.869974,-19.119026,3.664391,-4.202673,0.230769,-1.766274
36094,-1.852845,-21.933463,5.808771,-1.445006,-0.275310,-1.454495
36095,-0.030398,-20.580655,7.642811,1.354289,-0.752749,-0.994151
36096,0.229750,-16.899811,7.136377,3.414356,-1.129234,-0.421008
36097,-0.525400,-12.674059,5.918234,4.624001,-1.394145,0.027494
36098,-0.879710,-7.983078,5.812384,5.076362,-1.569457,0.244727
36099,-1.027477,-4.122217,5.876586,4.838906,-1.620375,0.296745
36100,-0.959421,-0.965721,7.061624,4.154384,-1.513685,0.232584
36101,-1.061604,2.490305,8.907842,3.090998,-1.277549,0.030332
36102,-1.357995,5.346821,10.055552,1.529718,-0.987252,-0.238418
36103,-1.227825,6.706402,10.680956,-0.290505,-0.611352,-0.628346
36104,-1.031376,6.599063,10.201908,-2.177389,-0.264843,-1.123164
36105,-0.451655,4.870091,9.174501,-3.890410,-0.003141,-1.576273
36106,0.412060,1.418622,8.083274,-5.147437,0.300512,-1.912349
36107,0.939061,-3.075151,5.630562,-5.884184,0.480822,-2.096092
36108,0.507345,-7.907182,2.854095,-5.950501,0.421362,-2.062034
36109,-0.134418,-12.547612,2.072633,-5.145500,0.232146,-1.976543
36110,-0.234438,-16.439645,2.514395,-3.588701,-0.153453,-1.795220
36111,0.831777,-18.743604,4.038761,-1.430410,-0.602870,-1.496299
36112,2.166027,-18.027802,5.848193,0.795783,-0.983661,-1.104428
36113,2.709674,-15.255848,5.541932,2.473462,-1.268466,-0.634430
36114,2.506940,-11.215225,4.821819,3.477973,-1.511651,-0.234649
36115,2.344139,-6.363763,5.947341,3.742274,-1.589092,-0.062174
36116,1.553422,-2.438261,6.931037,3.291742,-1.480785,-0.068971
36117,0.678699,-0.140481,7.888253,2.401096,-1.209605,-0.221593
36118,0.113230,1.554813,9.645520,1.284295,-0.806527,-0.519418
36119,0.248755,2.118695,10.390791,-0.005631,-0.353610,-0.883316
36120,0.455893,2.345365,10.086381,-1.307205,0.060637,-1.281768
36121,0.584644,1.645762,8.918164,-2.648568,0.351825,-1.617211
36122,1.984988,-0.167643,8.451644,-3.833485,0.568798,-1.868248
36123,3.877179,-3.048462,7.862352,-4.719929,0.788271,-2.056233
36124,4.482844,-5.944485,5.919576,-5.261796,0.935620,-2.137460
36125,2.921456,-8.229020,2.478606,-5.542404,0.790026,-2.042444
36126,1.129005,-10.504995,1.450813,-5.328614,0.481375,-1.922896
36127,0.669101,-14.592048,1.613719,-4.333872,0.095094,-1.790835
36128,1.775977,-19.599620,2.870715,-2.320178,-0.335413,-1.591333
36129,3.952725,-21.877077,4.844821,0.357813,-0.766613,-1.288380
36130,4.688001,-19.345907,5.298305,2.688652,-1.095306,-0.893137
36131,3.759134,-14.474524,4.300128,4.043643,-1.338515,-0.492022
36132,3.014136,-10.024979,3.177347,4.373799,-1.544497,-0.173484
36133,2.746710,-7.084357,2.823642,4.078720,-1.660869,-0.043160
36134,3.305197,-5.176828,3.591946,3.569056,-1.725826,-0.061935
36135,3.191925,-3.320065,6.208147,2.935218,-1.597970,-0.158064
36136,2.386979,-2.627358,8.283440,2.172385,-1.402860,-0.204306
36137,1.909945,-3.443803,9.594834,1.427653,-1.171087,-0.278866
36138,1.618026,-3.903089,9.361307,0.761656,-0.925176,-0.472776
36139,1.740600,-3.554719,8.168042,0.197004,-0.699999,-0.762818
36140,2.156972,-2.189646,7.246043,-0.315859,-0.517651,-1.096174
36141,2.792758,-0.796585,7.025116,-0.931590,-0.360603,-1.398657
36142,3.690921,-0.871179,7.203758,-1.615158,-0.203623,-1.602008
36143,4.122701,-2.221360,6.912010,-2.306264,-0.147938,-1.667038
36144,4.026560,-4.623763,6.183577,-2.915622,-0.250576,-1.569265
36145,3.868526,-7.519104,5.402395,-3.233999,-0.450975,-1.424932
36146,4.302974,-10.888349,5.483543,-2.842880,-0.673797,-1.330470
36147,5.409947,-13.209861,7.247222,-1.683203,-0.784645,-1.313354
36148,5.807259,-14.116152,6.810384,-0.200811,-0.957585,-1.218491
36149,5.857500,-13.541588,4.622829,1.263178,-1.250039,-1.004018
36150,5.753949,-11.793524,3.158936,2.439862,-1.587038,-0.775875
36151,6.072244,-10.120273,2.913740,3.315361,-1.879924,-0.562732
36152,6.622498,-8.574084,3.515410,3.896689,-2.106152,-0.399145
36153,6.320538,-6.902863,4.405781,4.171022,-2.253321,-0.240319
36154,6.353949,-5.633214,5.742218,4.173891,-2.330842,-0.065852
36155,6.456671,-4.287672,7.981728,3.999428,-2.238066,0.029208
36156,5.828585,-3.127181,9.202980,3.614561,-1.984304,-0.048384
36157,4.500170,-1.543800,8.931866,3.037448,-1.685640,-0.252905
36158,3.404274,0.285875,8.133588,2.185924,-1.367518,-0.541553
36159,3.613809,2.136559,7.926715,1.058654,-1.044333,-0.888413
36160,4.519416,3.672380,8.336790,-0.341523,-0.657611,-1.264024
36161,5.301861,3.513617,7.844541,-1.969228,-0.319083,-1.520840
36162,6.330698,1.309844,6.639902,-3.525896,-0.072458,-1.646133
36163,6.764875,-1.980223,5.040675,-4.745643,0.062662,-1.656426
36164,6.834029,-5.564199,3.736948,-5.504289,0.075020,-1.555197
36165,7.055824,-11.285322,2.106536,-5.437704,0.017627,-1.357806
36166,7.631999,-17.688940,2.013875,-4.018029,-0.166281,-1.133871
36167,8.255422,-21.202778,3.869345,-1.583045,-0.434833,-0.825967
36168,8.901199,-20.734164,4.052236,1.037115,-0.798302,-0.354265
36169,9.077832,-16.300256,3.041611,3.105475,-1.169085,0.200504
36170,9.294962,-11.881633,2.664361,4.189714,-1.441652,0.776316
36171,9.699925,-9.765746,2.968920,4.526914,-1.571543,1.275886
36172,9.427036,-7.365009,3.791324,4.461968,-1.679650,1.621213
36173,8.421576,-3.915730,4.152668,4.041326,-1.805345,1.736065
36174,6.885873,0.080870,5.404316,3.251936,-1.799400,1.649236
36175,5.565267,2.627932,7.758135,2.228737,-1.596821,1.355487
36176,3.582891,2.919818,8.095779,1.172525,-1.292451,0.881754
36177,2.210123,0.917800,7.688717,0.349546,-1.038761,0.409322
36178,2.016458,0.352350,7.851597,-0.100614,-0.782142,-0.213839
36179,2.910164,2.319795,8.685950,-0.621494,-0.502052,-0.857436
36180,4.052142,3.740152,8.457180,-1.558317,-0.227743,-1.305458
36181,5.341285,3.420732,7.018715,-2.818295,-0.043674,-1.509212
36182,6.851268,0.231163,4.479107,-3.960137,0.025356,-1.489571
36183,7.965301,-5.282989,2.551125,-4.363457,0.043429,-1.384594
36184,8.674582,-11.286934,1.818334,-3.723188,-0.063519,-1.192562
36185,9.464617,-15.345917,2.621626,-2.102273,-0.344937,-0.943031
36186,10.307688,-15.908811,3.858269,-0.052680,-0.726229,-0.551255
36187,10.949257,-13.528707,4.648996,1.649954,-1.029432,-0.059496
36188,10.861978,-10.391344,3.807465,2.598719,-1.263178,0.412475
36189,9.650792,-6.230535,2.455948,2.898746,-1.513679,0.696228
36190,7.904731,-0.573914,1.879180,2.586434,-1.743906,0.631292
36191,5.824370,3.711002,1.804140,1.725127,-1.868684,0.272003
36192,5.118109,5.722147,3.061650,0.664899,-1.925080,-0.277878
36193,5.780523,2.459308,4.764727,-0.312968,-1.790231,-0.738383
36194,6.701886,-2.387607,5.704388,-0.735536,-1.671939,-1.119145
36195,6.416261,-3.763880,6.020918,-0.838458,-1.593400,-1.434735
36196,5.734467,-3.230827,5.443565,-1.097436,-1.506404,-1.626646
36197,6.484979,-3.015715,4.666801,-1.390977,-1.386463,-1.779058
36198,7.602287,-1.785326,4.478480,-1.650805,-1.145342,-1.984115
36199,8.023048,0.141892,3.948788,-1.988971,-0.936001,-2.150971
36200,8.753753,0.907402,3.404762,-2.422665,-0.750872,-2.212697
36201,10.145044,-0.912758,2.601353,-2.804660,-0.587587,-2.184705
36202,11.522547,-5.988363,1.495011,-2.614762,-0.417195,-2.009520
36203,11.981949,-10.058479,1.024069,-1.844140,-0.360862,-1.687381
36204,11.864889,-12.127828,1.392788,-0.703333,-0.475870,-1.263512
36205,12.391237,-11.462124,2.736990,0.421514,-0.624900,-0.806288
36206,13.250879,-9.579378,3.599981,1.202610,-0.750431,-0.290990
36207,13.870847,-6.825716,4.280009,1.568740,-0.839720,0.198987
36208,13.631807,-3.611333,5.008735,1.455702,-0.851052,0.616996
36209,11.812013,-0.235295,5.551594,0.880218,-0.726340,0.762313
36210,10.075687,0.992117,6.089064,0.024301,-0.486755,0.691402
36211,9.078499,0.743814,6.172357,-0.880593,-0.205477,0.491462
36212,8.155314,-0.402670,5.173005,-1.708311,0.000682,0.255119
36213,7.864127,-2.056589,4.154034,-2.390798,0.199209,0.033568
36214,7.918234,-3.766692,3.030166,-2.932814,0.418007,-0.165538
36215,7.846132,-3.929778,1.806360,-3.359240,0.609118,-0.336959
36216,6.882814,-2.487580,-0.155930,-3.819469,0.682059,-0.444178
36217,5.602388,-1.702578,-0.904388,-4.484687,0.629299,-0.384736
36218,6.113702,-6.058770,0.455673,-4.711208,0.499799,-0.083324
36219,7.928605,-10.779275,2.785749,-3.921538,0.342008,0.188899
36220,9.264064,-10.881736,6.145009,-2.732567,0.229030,0.292853
36221,10.099255,-7.916961,7.399079,-1.665819,0.170811,0.233145
36222,10.301567,-2.666528,6.309510,-1.090754,0.220402,0.053976
36223,10.486651,-2.011400,4.522795,-1.095556,0.291829,-0.018609
36224,10.513136,-6.976959,2.924421,-0.759347,0.171416,-0.028619
36225,10.121080,-10.731714,1.430300,0.836299,0.033750,-0.195349
36226,4.819151,-5.380893,3.555075,2.255697,0.347793,-0.667341
36227,3.771854,0.311114,4.200621,1.892444,0.298740,-0.959296
36228,7.303294,0.679693,1.889181,0.646369,0.318908,-1.143272
36229,9.554710,-1.946533,0.537289,-0.410825,0.609270,-1.321015
36230,8.968612,-3.447932,-0.086437,-0.981757,0.806828,-1.435705
36231,8.478920,-4.609715,-0.419337,-1.186323,0.772263,-1.355030
36232,8.929710,-6.089542,-1.603477,-1.238836,0.591514,-1.103637
36233,9.539006,-8.667181,-3.063555,-0.817606,0.412044,-0.865056
36234,10.271016,-9.306446,-2.222990,0.062149,0.278661,-0.634515
36235,9.838680,-7.218999,0.300654,0.869098,0.133182,-0.396968
36236,10.717906,-6.042086,2.144057,1.182306,-0.145450,0.095795
36237,11.043389,-4.553503,2.476636,1.175990,-0.251232,0.426601
36238,9.917111,-3.362102,2.339070,1.084883,-0.310547,0.548390
36239,8.405076,-3.533217,2.535288,1.041329,-0.322864,0.492427
36240,7.846466,-3.539146,2.747454,1.073680,-0.392246,0.319982
36241,8.308713,-3.439179,3.159338,1.028613,-0.409375,0.137334
36242,8.759112,-2.761160,3.457928,0.762646,-0.314595,-0.029380
36243,8.713813,-2.683185,2.984324,0.315285,-0.148397,-0.218942
36244,8.396691,-2.385288,1.640268,-0.024037,0.024595,-0.477637
36245,8.346536,-0.755397,1.150117,-0.177850,0.135491,-0.727604
36246,8.478425,-0.225682,1.238508,-0.301402,0.204775,-0.872930
36247,8.981510,-1.406410,1.085670,-0.470647,0.158309,-0.805989
36248,9.531063,-2.546711,1.821411,-0.632219,0.085957,-0.618249
36249,9.562341,-2.940352,2.566145,-0.868769,0.001298,-0.361750
36250,9.576174,-2.970291,3.095593,-1.200284,-0.033600,-0.127626
36251,9.656743,-3.230020,3.129107,-1.573299,-0.008018,0.086241
36252,9.297870,-2.839547,3.013035,-1.853569,0.020833,0.227299
36253,8.817180,-2.876225,2.874301,-2.051537,0.039121,0.291354
36254,8.547076,-3.267981,2.549048,-2.138622,0.025702,0.310691
36255,8.682273,-3.116963,2.509050,-2.137823,0.014516,0.263459
36256,9.006017,-3.139195,2.552402,-2.148006,0.038873,0.209792
36257,9.292097,-3.280287,2.452228,-2.174973,0.080100,0.166602
36258,9.364596,-3.653053,2.233375,-2.162724,0.124787,0.139011
36259,9.326710,-4.314102,1.860831,-2.044534,0.141450,0.124974
36260,9.340799,-4.708316,1.653822,-1.825599,0.145285,0.131682
36261,9.465298,-4.831297,1.515268,-1.526833,0.125711,0.145774
36262,9.475778,-4.492151,1.402214,-1.210279,0.115314,0.161231
36263,9.444691,-3.412148,1.593743,-0.933360,0.113067,0.125335
36264,9.254865,-3.033510,1.610266,-0.778898,0.135896,0.062246
36265,9.254527,-3.157671,1.445606,-0.652265,0.154450,0.014146
36266,9.222063,-3.206279,1.351709,-0.548121,0.173695,-0.037426
36267,9.091265,-3.367229,1.250627,-0.458902,0.198469,-0.091787
36268,8.948990,-3.580077,1.149893,-0.366397,0.213361,-0.135580
36269,8.910757,-3.695378,0.976745,-0.266557,0.209778,-0.168600
36270,8.839163,-3.552871,1.034827,-0.150307,0.200976,-0.207520
36271,8.882141,-3.624375,1.050048,-0.040443,0.186882,-0.241067
36272,8.956577,-3.704144,1.175529,0.093644,0.170329,-0.263501
36273,9.066346,-3.713631,1.258503,0.237596,0.155037,-0.280476
36274,9.166681,-3.724280,1.292829,0.383815,0.145971,-0.297666
36275,9.233414,-3.531598,1.384033,0.523901,0.134165,-0.317561
36276,9.181348,-3.387607,1.393504,0.640783,0.124633,-0.336172
36277,9.126979,-3.292822,1.455311,0.732734,0.113129,-0.357522
36278,9.041430,-3.267016,1.409691,0.803732,0.102714,-0.381807
36279,8.987865,-3.166675,1.472230,0.852292,0.094026,-0.399451
36280,8.981465,-3.021480,1.451717,0.877240,0.086681,-0.423984
36281,9.001485,-2.970902,1.416916,0.881579,0.078170,-0.451462
36282,8.992761,-2.953839,1.448528,0.870906,0.080053,-0.462418
36283,8.919120,-2.801640,1.501397,0.851452,0.080149,-0.482775
36284,8.815781,-2.600707,1.615556,0.810139,0.092675,-0.508034
36285,8.800167,-2.688930,1.666504,0.747146,0.104554,-0.521711
36286,8.963256,-2.858353,1.693437,0.685888,0.117813,-0.519321
36287,9.151015,-2.912327,1.683250,0.619321,0.136940,-0.501481
36288,9.391703,-2.884633,1.692007,0.542438,0.149014,-0.469940
36289,9.570159,-2.843904,1.638894,0.452361,0.165795,-0.429120
36290,9.742238,-2.741486,1.683235,0.355359,0.169564,-0.365049
36291,9.846417,-2.581602,1.640729,0.237231,0.169199,-0.292680
36292,9.868935,-2.357654,1.612117,0.104593,0.158855,-0.220307
36293,9.940047,-2.200735,1.572758,-0.036418,0.136746,-0.151877
36294,10.039516,-2.225614,1.564398,-0.175001,0.109993,-0.086010
36295,10.029378,-2.313817,1.557442,-0.288949,0.083107,-0.023960
36296,9.908433,-2.399391,1.616034,-0.383277,0.055660,0.016028
36297,9.719148,-2.693391,1.657746,-0.430042,0.032570,0.056576
36298,9.613417,-3.112585,1.697026,-0.421668,0.007010,0.064305
36299,9.460484,-3.317577,1.658209,-0.372833,-0.015573,0.071937
36300,9.430652,-3.474338,1.702409,-0.303795,-0.029916,0.065030
36301,9.414352,-3.571929,1.710729,-0.222648,-0.038042,0.049558
36302,9.411479,-3.657571,1.739917,-0.132743,-0.040888,0.032266
36303,9.392437,-3.605493,1.814425,-0.038994,-0.039454,0.022134
36304,9.448434,-3.621116,1.906928,0.050915,-0.037020,0.008319
36305,9.513378,-3.526795,1.945466,0.143199,-0.033718,0.005358
36306,9.434710,-3.403123,1.913601,0.217858,-0.019001,0.002749
36307,9.292019,-3.277655,1.927940,0.272872,-0.013245,0.008994
36308,9.204320,-3.212058,1.903149,0.319897,-0.006243,0.020030
36309,9.229610,-3.142133,1.894722,0.349409,-0.008826,0.032110
36310,9.191990,-2.929307,1.954583,0.359733,-0.007686,0.041993
36311,9.187228,-2.781601,2.022776,0.337666,0.001204,0.048103
36312,9.274101,-2.745119,2.146099,0.296878,0.003176,0.050261
36313,9.328598,-2.709847,2.194160,0.237305,0.015716,0.062547
36314,9.339350,-2.701854,2.219927,0.165130,0.023834,0.062993
36315,9.315012,-2.662194,2.219205,0.090023,0.031530,0.071724
36316,9.255202,-2.637689,2.248196,0.010723,0.037397,0.074047
36317,9.251184,-2.741058,2.171867,-0.060662,0.041087,0.074076
36318,9.324563,-2.900773,2.197023,-0.105524,0.040894,0.073507
36319,9.375905,-3.018300,2.214194,-0.123737,0.038779,0.077327
36320,9.379581,-3.111761,2.186849,-0.121397,0.033354,0.077331
36321,9.360721,-3.208655,2.209021,-0.104890,0.034575,0.078157
36322,9.353359,-3.279956,2.178453,-0.070357,0.023751,0.083002
36323,9.380720,-3.273147,2.181854,-0.031622,0.020291,0.084116
36324,9.291647,-3.347628,2.211439,0.015459,0.012753,0.093334
36325,9.200578,-3.341035,2.235218,0.067976,0.007520,0.102689
