// Start Time: Unknown
// Update Rate: 100.0Hz
// Filter Profile: human (46.1)
// Firmware Version: 4.3.5
PacketCounter,Acc_X,Acc_Y,Acc_Z,Gyr_X,Gyr_Y,Gyr_Z
25170,9.811713,-0.854767,0.815014,-0.002030,-0.002166,-0.040501
25171,9.767342,-0.848925,0.854367,-0.002326,-0.003094,-0.044320
25172,9.817345,-0.872837,0.836010,-0.001240,-0.004078,-0.042601
25173,9.784262,-0.888613,0.873779,0.000085,-0.004881,-0.042648
25174,9.832454,-0.858980,0.866186,0.001860,-0.002121,-0.043820
25175,9.780176,-0.853802,0.851630,-0.003366,-0.001361,-0.040421
25176,9.818924,-0.856353,0.834512,-0.002700,-0.009108,-0.039984
25177,9.814861,-0.910725,0.846090,0.008013,-0.006491,-0.040540
25178,9.786270,-0.868314,0.871700,0.007900,-0.000836,-0.041313
25179,9.781689,-0.837926,0.850024,0.010846,-0.001510,-0.037592
25180,9.796288,-0.828803,0.881011,0.006626,0.000715,-0.035667
25181,9.769505,-0.840504,0.896571,-0.000572,0.006816,-0.035054
25182,9.760425,-0.868986,0.887825,-0.003436,0.005037,-0.035584
25183,9.754787,-0.919849,0.823730,0.001813,0.008236,-0.030987
25184,9.801258,-0.922649,0.862149,0.008627,0.010816,-0.028206
25185,9.810715,-0.888039,0.872442,0.006619,0.007874,-0.025264
25186,9.890554,-0.871095,0.872472,0.011369,0.006763,-0.025126
25187,9.862288,-0.915046,0.933214,0.014229,0.008545,-0.024589
25188,9.860296,-0.859117,0.945073,0.016290,0.012239,-0.021944
25189,9.814074,-0.851186,0.909219,0.022776,0.017096,-0.020578
25190,9.802690,-0.827432,0.912674,0.028495,0.020663,-0.019504
25191,9.782039,-0.835579,0.907043,0.021885,0.021459,-0.021643
25192,9.749995,-0.822294,0.902770,0.017987,0.021408,-0.018307
25193,9.759914,-0.837871,0.826585,0.012997,0.022335,-0.016684
25194,9.727847,-0.824855,0.822505,0.013673,0.026078,-0.019566
25195,9.729990,-0.876480,0.814382,0.021934,0.022216,-0.016048
25196,9.739143,-0.842933,0.825944,0.029631,0.020445,-0.012184
25197,9.758240,-0.862530,0.880850,0.032338,0.019602,-0.006703
25198,9.776507,-0.797649,0.901594,0.039945,0.020284,-0.006013
25199,9.762161,-0.802454,0.873175,0.042762,0.025276,-0.003071
25200,9.809605,-0.776096,0.868702,0.041995,0.023984,-0.003357
25201,9.786600,-0.732237,0.873941,0.033296,0.024280,-0.005753
25202,9.772258,-0.737228,0.845628,0.033580,0.025218,-0.001932
25203,9.797623,-0.752785,0.877902,0.028152,0.022583,0.000807
25204,9.738366,-0.756739,0.888763,0.026058,0.022090,0.000563
25205,9.747346,-0.724644,0.900157,0.017448,0.019937,0.001338
25206,9.748216,-0.774296,0.814534,0.013827,0.016858,0.000504
25207,9.721036,-0.789414,0.831243,0.013629,0.013473,-0.000130
25208,9.725883,-0.815654,0.854303,0.006348,0.010521,0.000593
25209,9.686143,-0.805577,0.794528,0.006673,0.008253,0.002014
25210,9.596969,-0.732786,0.629061,0.006135,-0.016595,0.001048
25211,9.417667,-0.537396,0.382342,-0.007215,-0.068314,0.001454
25212,9.326320,-0.210638,0.103481,-0.069050,-0.152851,-0.004100
25213,9.432842,0.019992,-0.043769,-0.177388,-0.224095,-0.006862
25214,9.480994,0.127401,-0.032046,-0.325259,-0.283219,-0.013486
25215,9.719019,0.037862,0.269960,-0.493093,-0.305071,-0.008532
25216,9.843303,-0.283223,0.566836,-0.649029,-0.270436,0.005007
25217,9.917300,-0.695589,0.881508,-0.747035,-0.221883,0.036753
25218,9.910605,-1.092543,1.074372,-0.770864,-0.179910,0.065177
25219,9.969024,-1.438208,1.322302,-0.708017,-0.145713,0.084462
25220,10.141628,-1.626609,1.666793,-0.580586,-0.102822,0.088520
25221,10.374317,-1.720204,2.187514,-0.400771,-0.028079,0.062780
25222,10.684874,-1.676170,2.646503,-0.217834,0.101961,0.005966
25223,10.981720,-1.735665,2.626390,-0.036320,0.292058,-0.045937
25224,10.635971,-1.887896,2.042544,0.158302,0.484693,-0.077667
25225,10.024020,-1.869288,1.441901,0.415020,0.539621,-0.102069
25226,9.766831,-1.421496,0.887297,0.592762,0.472110,-0.125650
25227,9.732133,-0.897484,0.400041,0.648488,0.369124,-0.143134
25228,9.539541,-0.361623,-0.013683,0.592824,0.302102,-0.146023
25229,9.234807,0.132267,-0.404020,0.435012,0.241371,-0.133518
25230,8.960910,0.423827,-0.922295,0.225807,0.135303,-0.110981
25231,8.837886,0.224930,-1.287539,-0.033731,-0.024737,-0.065291
25232,8.977443,-0.198566,-1.251754,-0.256575,-0.201714,0.008804
25233,9.373822,-0.579109,-0.782989,-0.454068,-0.335662,0.090352
25234,9.638472,-0.982092,-0.057459,-0.570440,-0.382469,0.152307
25235,9.746606,-0.939201,0.780101,-0.597744,-0.356206,0.168226
25236,9.834688,-0.763784,1.728483,-0.579562,-0.293806,0.128955
25237,10.176130,-0.802634,2.753400,-0.545795,-0.196824,0.061090
25238,10.486715,-1.210462,3.450751,-0.442153,-0.030720,-0.010694
25239,10.841550,-1.373654,3.331000,-0.204446,0.222144,-0.062720
25240,10.538070,-1.319855,2.827636,0.068053,0.484041,-0.119421
25241,10.139595,-1.380998,2.023148,0.351493,0.609582,-0.146373
25242,10.044370,-1.253840,1.199471,0.548022,0.557764,-0.139979
25243,10.317949,-1.204920,0.770610,0.562165,0.456233,-0.086041
25244,10.386046,-1.014158,0.786225,0.397881,0.468572,-0.024456
25245,10.032734,-0.954418,0.565145,0.229349,0.530760,0.010025
25246,9.581043,-0.957998,0.033236,0.197833,0.513582,0.044927
25247,9.167486,-0.866802,-0.501661,0.156551,0.380462,0.097948
25248,9.063620,-0.917013,-0.727832,0.029207,0.187003,0.157985
25249,9.156259,-1.080086,-0.698929,-0.134710,0.002251,0.238274
25250,9.343936,-1.364493,-0.313679,-0.234081,-0.116197,0.327184
25251,9.422236,-1.504060,0.197207,-0.263237,-0.155988,0.384327
25252,9.449367,-1.563496,0.657097,-0.244334,-0.174127,0.415570
25253,9.568273,-1.386166,1.441697,-0.187994,-0.185585,0.418402
25254,10.010210,-1.214513,2.566693,-0.193459,-0.135001,0.394802
25255,10.432127,-1.359400,3.354488,-0.233626,0.036850,0.376218
25256,10.731369,-1.716686,3.389856,-0.195504,0.292388,0.356477
25257,10.528350,-2.126015,2.857855,0.039465,0.544753,0.334149
25258,10.069190,-2.283977,2.218348,0.441525,0.641814,0.315277
25259,9.778582,-2.219757,1.585461,0.758786,0.565708,0.314359
25260,9.743420,-1.914168,1.111873,0.880792,0.426668,0.322583
25261,9.734414,-1.399975,0.810926,0.831421,0.369590,0.315930
25262,9.549205,-0.949003,0.446472,0.748272,0.366788,0.292847
25263,9.325674,-0.815412,-0.089192,0.673416,0.312743,0.286722
25264,9.217716,-0.750605,-0.371212,0.530291,0.190897,0.309753
25265,9.303794,-0.770709,-0.244198,0.276990,0.030845,0.357534
25266,9.496022,-0.964196,0.059293,-0.003057,-0.092005,0.407465
25267,9.641569,-1.185941,0.410640,-0.198472,-0.140284,0.453121
25268,9.693115,-1.305962,1.245863,-0.289554,-0.118795,0.445976
25269,9.754755,-1.305317,2.584633,-0.371443,-0.075319,0.385234
25270,10.118260,-1.563880,3.434528,-0.493435,0.012854,0.344173
25271,10.404822,-2.002680,3.787315,-0.473587,0.226632,0.301255
25272,10.176733,-2.355368,3.304759,-0.196468,0.469436,0.230821
25273,9.720924,-2.692587,2.467697,0.330745,0.566369,0.203815
25274,9.552434,-2.644902,2.062919,0.758844,0.513080,0.225270
25275,9.645708,-2.490927,1.749849,0.916685,0.415533,0.275982
25276,9.802432,-2.242828,1.578773,0.919593,0.383389,0.325498
25277,9.570814,-2.010244,1.380780,0.854670,0.430815,0.352428
25278,9.204863,-1.977301,0.907486,0.786479,0.457319,0.383303
25279,8.886090,-2.258807,0.240761,0.711295,0.388717,0.464421
25280,8.707416,-2.467223,-0.260241,0.631278,0.225325,0.578001
25281,8.928413,-2.562131,-0.275164,0.498094,0.026132,0.693264
25282,9.330702,-2.548895,0.235578,0.306348,-0.110612,0.808027
25283,9.728364,-2.385119,0.910376,0.111182,-0.120362,0.875498
25284,9.860156,-2.085490,1.859583,-0.010000,-0.050338,0.877659
25285,9.837785,-1.818652,2.877419,-0.101166,0.035000,0.853309
25286,9.883983,-1.771431,3.747438,-0.235427,0.123992,0.841509
25287,10.070928,-2.081925,4.278453,-0.310885,0.258629,0.817785
25288,10.287437,-2.799630,3.999303,-0.254810,0.415510,0.812873
25289,10.243546,-3.690675,3.188321,0.049960,0.564701,0.829890
25290,9.855164,-4.016301,2.899183,0.516041,0.627336,0.828956
25291,9.674425,-4.108621,2.683688,0.811168,0.580017,0.856798
25292,9.691376,-4.013979,2.467182,0.984010,0.522355,0.898181
25293,9.794000,-3.569764,2.256325,1.092119,0.519776,0.911144
25294,9.553993,-3.140105,1.902224,1.155304,0.549574,0.909183
25295,9.153739,-2.775788,1.643922,1.175515,0.559668,0.903132
25296,8.897463,-2.371217,1.650883,1.116847,0.501354,0.888756
25297,8.919432,-2.074338,1.848505,0.925886,0.403390,0.875022
25298,9.168684,-1.765499,2.492169,0.675151,0.365110,0.847034
25299,9.403036,-1.571061,3.233149,0.406512,0.421758,0.784620
25300,9.422192,-1.605711,3.744204,0.213051,0.556496,0.694071
25301,9.345621,-2.036651,3.880059,0.138555,0.700770,0.603878
25302,9.231674,-2.651682,3.965227,0.170382,0.796021,0.550223
25303,9.356985,-3.273916,3.969450,0.249393,0.831140,0.526916
25304,9.476163,-3.714514,3.837264,0.382092,0.844734,0.533066
25305,9.276651,-3.905231,3.278939,0.565147,0.878588,0.540112
25306,8.613015,-3.936596,2.678055,0.799009,0.893166,0.542432
25307,7.877653,-3.990458,2.024457,0.973700,0.781620,0.589060
25308,7.460870,-3.861467,1.428008,0.980800,0.571843,0.679578
25309,7.610271,-3.748496,0.990376,0.812701,0.328042,0.771095
25310,8.128292,-3.737242,0.839214,0.574455,0.145815,0.857967
25311,8.565211,-3.647373,1.179293,0.338232,0.040932,0.914490
25312,8.886369,-3.404847,1.639330,0.092942,-0.024574,0.943242
25313,8.831082,-2.973459,2.174973,-0.161081,-0.051298,0.936109
25314,8.630126,-2.364639,3.527312,-0.442028,-0.036064,0.881550
25315,8.880905,-2.022827,5.263378,-0.793897,0.070628,0.788362
25316,9.083564,-2.336899,6.449099,-1.128170,0.334184,0.711008
25317,8.977943,-3.301403,6.339587,-1.255032,0.643115,0.675956
25318,8.291888,-4.694800,4.952939,-1.043697,0.839610,0.706544
25319,7.616848,-5.601322,3.795210,-0.568533,0.786655,0.777871
25320,7.544312,-5.798104,3.378552,-0.184488,0.576565,0.841944
25321,7.966165,-5.895695,3.226288,0.000906,0.401369,0.886629
25322,8.248852,-5.742580,3.161098,0.165460,0.391635,0.880438
25323,8.023780,-5.565641,3.047001,0.359790,0.480983,0.866551
25324,7.367301,-5.387047,2.667805,0.532927,0.498511,0.886722
25325,6.770584,-5.340838,1.901469,0.619081,0.379127,0.939454
25326,6.576452,-5.076021,1.513656,0.609467,0.176751,0.979065
25327,6.893135,-4.780825,1.450731,0.453875,-0.049018,0.999738
25328,7.336842,-4.360634,1.705035,0.198757,-0.207002,1.024656
25329,7.696660,-4.014157,2.004111,-0.091320,-0.293760,1.043515
25330,8.019106,-3.631018,2.684252,-0.390908,-0.320460,1.037610
25331,8.157429,-3.001539,4.636395,-0.765253,-0.271128,1.008599
25332,8.639565,-2.515353,7.336505,-1.356174,-0.095577,0.920714
25333,8.912405,-3.139500,7.715549,-1.946984,0.280783,0.857283
25334,8.182896,-4.708950,6.281277,-1.848225,0.698073,0.782848
25335,6.998544,-6.241526,4.737486,-1.303797,0.850587,0.756162
25336,6.679908,-7.185397,4.513155,-0.791851,0.723660,0.818236
25337,7.074600,-7.713756,4.539549,-0.569295,0.573314,0.905156
25338,7.505981,-7.965314,3.944813,-0.341353,0.542410,0.986271
25339,7.481743,-7.849895,3.521717,0.024227,0.618547,1.003516
25340,7.136988,-7.500472,3.200797,0.364130,0.662624,1.002132
25341,6.623524,-7.169797,2.810065,0.592346,0.634902,0.989258
25342,6.320307,-6.875857,2.258131,0.676211,0.510562,0.978672
25343,6.145125,-6.587518,1.829941,0.652095,0.345048,0.988290
25344,6.207981,-6.202495,1.752712,0.506144,0.164906,1.014976
25345,6.513303,-5.699589,2.230453,0.241193,0.049277,1.015648
25346,6.734972,-5.151902,2.997134,-0.093684,0.009800,1.008686
25347,6.968213,-4.599887,4.344614,-0.455960,0.042741,0.965291
25348,7.313514,-4.074809,6.174850,-0.947425,0.175332,0.901034
25349,7.512731,-4.292799,6.998595,-1.564139,0.433675,0.873965
25350,7.146203,-5.282506,6.664047,-1.747382,0.709592,0.813672
25351,6.773113,-6.686447,5.877238,-1.574114,0.858684,0.804134
25352,6.515842,-8.096632,5.292155,-1.237373,0.910628,0.862100
25353,6.476893,-9.011106,4.613362,-0.923208,0.897958,0.942049
25354,6.192570,-9.818667,3.671326,-0.534718,0.868479,1.008930
25355,5.888537,-10.211031,2.876359,-0.000678,0.817874,1.041101
25356,5.485330,-10.168296,2.325797,0.566389,0.731596,1.065035
25357,5.037766,-9.582668,1.952720,1.035145,0.622491,1.079556
25358,4.728324,-8.820597,1.667655,1.346172,0.473208,1.087641
25359,4.614055,-8.075196,1.163171,1.505742,0.310419,1.107025
25360,4.366145,-7.185932,1.100431,1.521715,0.149164,1.116530
25361,4.482289,-6.137457,1.648015,1.316190,-0.048464,1.126773
25362,4.904085,-4.995842,2.573808,0.791580,-0.183386,1.116807
25363,5.457812,-4.086540,4.053953,0.022468,-0.173210,1.088228
25364,5.849120,-3.310528,5.721338,-0.788291,0.000396,1.005026
25365,5.895167,-3.379473,6.876385,-1.610815,0.260730,0.923259
25366,5.527250,-4.545719,6.775004,-2.122944,0.528512,0.842468
25367,5.150809,-6.346677,6.356746,-2.167101,0.709988,0.810445
25368,5.213954,-8.098990,7.323025,-1.964170,0.824518,0.808033
25369,5.578674,-9.985214,7.753344,-1.901183,0.929197,0.915376
25370,5.582642,-12.336396,5.894238,-1.438641,1.082967,1.048671
25371,5.056380,-14.083911,3.395772,-0.057719,1.225665,1.134977
25372,3.801769,-14.895444,1.516211,1.599759,1.219664,1.220356
25373,2.510870,-14.568892,0.697318,3.047115,0.943087,1.272510
25374,2.129059,-12.575846,0.480834,3.945277,0.476771,1.301161
25375,2.828092,-9.682977,0.346897,4.201271,0.080478,1.310433
25376,3.669041,-6.903077,0.408278,3.974748,-0.089159,1.285256
25377,3.701034,-4.669040,0.978621,3.469427,-0.169257,1.210987
25378,3.582762,-3.244315,2.020835,2.676891,-0.297607,1.134321
25379,3.730187,-2.303618,3.550859,1.547581,-0.351907,1.083013
25380,4.050872,-1.579496,5.594281,0.085881,-0.260981,1.061471
25381,4.477032,-1.205370,7.778861,-1.443276,0.052385,1.042319
25382,4.309244,-1.517706,8.917476,-2.720179,0.484933,0.970390
25383,3.671958,-3.173041,8.183956,-3.552943,0.827031,0.873396
25384,3.130206,-5.929557,6.850080,-3.671012,0.973193,0.812945
25385,2.844401,-8.815756,6.176688,-3.424765,0.983187,0.840523
25386,2.749081,-11.941889,5.394034,-2.935374,0.897487,0.956962
25387,2.852131,-14.749124,4.395627,-1.935380,0.788356,1.078816
25388,2.633084,-16.147343,2.966192,-0.396171,0.673930,1.153878
25389,2.058796,-15.499308,1.639106,1.298713,0.497122,1.180106
25390,1.288391,-13.429447,0.995204,2.745951,0.255922,1.143652
25391,0.846214,-10.559650,0.795339,3.599404,-0.051663,1.087670
25392,1.030193,-8.011156,0.769358,3.771948,-0.343494,1.069767
25393,1.355978,-5.915077,1.539167,3.355910,-0.560181,1.089560
25394,1.654818,-4.288566,2.276152,2.518165,-0.657175,1.100999
25395,1.763499,-2.720865,3.541996,1.345612,-0.638891,1.109781
25396,1.786900,-1.377453,4.956527,-0.081560,-0.540805,1.050478
25397,2.220955,-0.076496,6.586595,-1.634533,-0.375666,0.933209
25398,2.812117,0.251994,8.556825,-3.244046,-0.056585,0.751696
25399,3.415390,-1.404394,8.799006,-4.758909,0.321503,0.659601
25400,2.798747,-5.198583,6.950858,-5.380923,0.655442,0.567469
25401,1.772288,-8.984592,5.463829,-4.892039,0.740800,0.477026
25402,1.248532,-12.879481,4.801723,-4.005876,0.691473,0.521738
25403,1.204095,-16.412008,3.837426,-2.683754,0.522526,0.652519
25404,1.413193,-18.325853,2.359025,-0.918877,0.354994,0.760914
25405,1.416700,-17.835586,1.378718,1.061258,0.200821,0.814590
25406,1.189577,-15.148771,1.116396,2.744570,0.049481,0.826943
25407,0.752369,-11.883524,1.180559,3.723869,-0.130100,0.798243
25408,0.403382,-9.241330,1.018194,4.058952,-0.302504,0.768045
25409,0.290029,-7.007245,1.385785,3.827443,-0.436334,0.768707
25410,0.176697,-5.059573,2.257236,3.040911,-0.498221,0.796766
25411,0.247801,-3.476856,3.317599,1.769360,-0.502519,0.850451
25412,0.633600,-2.272350,4.455780,0.226860,-0.419982,0.844149
25413,1.179846,-1.629476,5.409624,-1.352767,-0.237967,0.772265
25414,1.673947,-1.911966,6.412304,-2.718645,0.008060,0.654377
25415,1.578421,-3.594717,7.289162,-3.652589,0.237768,0.471676
25416,1.754064,-6.198806,7.003537,-4.210855,0.366900,0.392392
25417,1.261195,-9.715563,5.694358,-4.016478,0.514037,0.334439
25418,0.723794,-13.333249,4.630295,-3.009692,0.574382,0.309567
25419,0.498916,-15.860067,4.880175,-1.560717,0.577694,0.404213
25420,0.502985,-16.775125,5.203098,0.009877,0.528222,0.563672
25421,0.903385,-16.497404,4.603016,1.673852,0.506760,0.691181
25422,1.212661,-14.796441,3.636399,3.271814,0.547937,0.749174
25423,0.529037,-12.819830,2.519006,4.174714,0.509015,0.773400
25424,-0.971948,-10.628371,1.682331,4.280179,0.231764,0.747785
25425,-1.020254,-8.093604,1.256015,3.749988,-0.076067,0.579854
25426,-0.325378,-5.267381,2.104069,2.929666,-0.040615,0.478831
25427,-0.281488,-2.930397,3.292000,1.681517,0.083336,0.471265
25428,0.109001,-1.854481,3.674561,0.271178,0.201505,0.480075
25429,0.181620,-2.115323,4.508606,-0.947431,0.327005,0.455208
25430,-0.211589,-3.331642,5.310462,-1.840375,0.337216,0.439291
25431,-0.672625,-4.860691,5.378415,-2.429098,0.279729,0.433328
25432,-0.652154,-6.568680,5.247852,-2.532532,0.224860,0.332516
25433,-0.295350,-8.329197,5.887624,-2.304534,0.205744,0.264086
25434,-0.135146,-11.322368,4.946757,-1.832842,0.201881,0.257037
25435,-0.378546,-13.965345,3.203656,-0.784439,0.247484,0.257750
25436,-0.634561,-14.680746,2.876502,0.568253,0.269655,0.245449
25437,-0.701236,-13.068279,3.757051,1.606160,0.276801,0.276813
25438,-0.851780,-10.416863,3.296911,1.987955,0.303740,0.295842
25439,-1.150580,-7.848417,2.226882,1.955197,0.350344,0.290207
25440,-1.775230,-5.295346,1.622418,1.466435,0.350867,0.254221
25441,-2.504917,-3.299252,2.294397,0.672483,0.275327,0.174447
25442,-2.322391,-2.255871,3.711377,-0.627491,0.158567,0.112040
25443,-1.938010,-2.341936,4.176460,-1.973969,0.162028,0.086429
25444,-1.738833,-3.361569,3.998646,-3.040195,0.118108,0.115375
25445,-1.327724,-5.609479,3.750678,-3.920313,-0.018545,0.171310
25446,-0.577847,-8.305453,3.711111,-4.423248,-0.127429,0.204786
25447,-0.138115,-10.654157,3.388755,-4.435082,-0.152137,0.192269
25448,0.417953,-12.831797,3.487818,-3.946254,-0.163343,0.135157
25449,1.429130,-13.815235,5.388607,-3.162315,-0.030861,0.120220
25450,1.807407,-14.269283,6.293955,-2.156548,0.263852,0.137925
25451,1.309334,-14.684881,5.917519,-0.623004,0.521220,0.111117
25452,1.305279,-13.559402,6.773439,0.809025,0.656892,0.128729
25453,0.840500,-12.738279,5.337585,1.699554,0.825537,0.126739
25454,-0.485095,-12.289648,1.421746,2.721229,0.838185,0.060954
25455,-1.553184,-11.308263,-1.686732,3.422177,0.726705,-0.008973
25456,-2.444858,-9.017846,-1.874846,3.521736,0.599859,-0.047858
25457,-2.769595,-5.349906,0.155458,2.788537,0.402920,-0.064878
25458,-2.528539,-2.304724,0.923531,1.412287,0.262351,-0.113326
25459,-2.374337,-0.673892,0.283652,0.140917,0.141599,-0.203649
25460,-1.745938,-1.120953,0.847400,-1.304473,-0.031995,-0.234904
25461,-1.037256,-3.563982,1.870065,-2.697022,-0.097619,-0.193126
25462,-0.808351,-6.304960,2.512546,-3.567339,-0.049115,-0.149651
25463,-0.909985,-9.256316,2.631024,-3.936285,-0.038706,-0.151419
25464,-1.006525,-12.211107,2.733680,-3.779117,-0.097462,-0.167352
25465,-0.431437,-14.265894,3.184147,-3.227187,-0.148367,-0.128492
25466,0.307196,-15.554707,3.728014,-2.443317,-0.056008,-0.058806
25467,0.548520,-15.767636,3.920526,-1.437059,0.117542,0.023025
25468,-0.088935,-14.997397,2.972068,-0.247357,0.272923,0.060003
25469,-0.948441,-12.742374,1.637350,0.821303,0.339675,0.043236
25470,-1.429810,-9.649323,1.162248,1.228306,0.274428,0.025422
25471,-1.245144,-7.735839,1.276413,0.969757,0.242956,0.024038
25472,-1.093174,-6.488414,1.662824,0.328428,0.311016,0.073498
25473,-1.221682,-6.090942,1.473458,-0.533790,0.373037,0.140737
25474,-1.609539,-6.618336,0.630926,-1.382391,0.345495,0.218790
25475,-2.021167,-7.617634,0.282123,-2.041721,0.234652,0.213931
25476,-1.732292,-8.834770,0.260510,-2.300547,0.105335,0.147011
25477,-1.302685,-9.743895,0.562412,-2.359703,0.066489,0.123105
25478,-1.041347,-10.627250,0.954478,-2.095265,0.059071,0.136395
25479,-0.743154,-11.270245,1.300730,-1.768550,0.023832,0.127260
25480,-0.297376,-11.549024,1.209955,-1.247225,0.043863,0.081129
25481,0.079648,-10.765850,0.858014,-0.609576,0.112070,0.002936
25482,-0.146405,-9.132365,0.684441,-0.163155,0.189065,-0.071515
25483,-0.519786,-7.268592,0.943541,0.061578,0.233387,-0.216113
25484,-0.521572,-6.737753,0.602800,0.100137,0.310962,-0.407703
25485,-0.931504,-7.437840,0.287283,0.058285,0.393049,-0.563252
25486,-1.383698,-8.791463,0.113068,0.003928,0.401916,-0.633990
25487,-1.758637,-9.595096,0.387343,-0.141168,0.367999,-0.575467
25488,-1.899724,-9.561385,0.916816,-0.333404,0.367255,-0.462398
25489,-1.793362,-10.250237,0.309938,-0.579264,0.348481,-0.325352
25490,-1.231285,-11.513216,-0.553675,-0.574940,0.290796,-0.231562
25491,-0.578506,-12.369245,-0.567674,-0.446046,0.305133,-0.187225
25492,-0.630296,-12.161166,0.488803,-0.308643,0.357762,-0.166264
25493,-0.676369,-11.027521,1.322477,-0.210422,0.363727,-0.197182
25494,-1.015015,-9.526760,1.497041,-0.098733,0.459718,-0.241050
25495,-1.915867,-7.572762,1.185046,-0.010038,0.500535,-0.326154
25496,-2.248766,-5.589070,0.709180,-0.008267,0.414928,-0.480930
25497,-1.760822,-4.811525,-0.094184,0.040314,0.388717,-0.726310
25498,-1.068350,-6.324159,-0.466539,0.137110,0.463128,-0.916033
25499,-0.606200,-9.018392,0.091764,0.251715,0.562544,-0.962959
25500,-0.299385,-11.512893,0.730688,0.416768,0.630757,-0.881636
25501,0.019566,-12.447749,0.369561,0.523172,0.714047,-0.763524
25502,0.109396,-12.263415,0.486301,0.596075,0.735880,-0.675645
25503,0.456309,-12.054406,0.751076,0.580620,0.703000,-0.575752
25504,0.666896,-11.976260,0.637551,0.561927,0.636804,-0.453809
25505,0.862303,-11.660873,0.325549,0.639871,0.554533,-0.373181
25506,0.729481,-11.557182,-0.311849,0.834456,0.442321,-0.354713
25507,0.665471,-10.549006,0.160055,1.160521,0.307226,-0.388619
25508,0.642173,-9.068375,0.727359,1.417603,0.237739,-0.477547
25509,0.473873,-8.637788,1.043955,1.664665,0.174131,-0.592694
25510,0.551328,-9.526418,1.403918,1.930435,0.120314,-0.651064
25511,0.714115,-11.040902,1.850747,2.176051,0.106081,-0.623297
25512,0.760262,-12.858633,1.592181,2.528523,0.138857,-0.529787
25513,0.788813,-13.996774,1.480051,2.908985,0.206998,-0.366825
25514,0.628464,-13.830959,1.651265,3.347365,0.265255,-0.219155
25515,0.441776,-12.735966,1.892995,3.525139,0.286434,-0.095124
25516,0.317022,-11.637284,1.962390,3.520908,0.282919,0.001238
25517,0.297998,-10.713571,2.267077,3.337315,0.236743,0.095924
25518,0.410966,-10.040907,2.217366,3.039448,0.213948,0.206659
25519,0.169848,-8.935903,2.242539,2.618762,0.210927,0.315781
25520,-0.187484,-7.824445,2.109636,2.086292,0.162556,0.405838
25521,-0.459485,-7.121923,2.022478,1.461707,0.082702,0.476307
25522,-0.673881,-6.758003,2.379363,0.776522,-0.026196,0.549596
25523,-0.872954,-7.185754,2.055353,0.141226,-0.125274,0.599367
25524,-0.824104,-7.380954,1.937684,-0.340260,-0.224494,0.652422
25525,-0.684068,-7.271789,1.958858,-0.864657,-0.325835,0.693801
25526,-0.335326,-7.122063,2.273871,-1.390181,-0.413938,0.704067
25527,0.269733,-6.655479,3.442104,-1.958380,-0.455604,0.674073
25528,0.863135,-6.633388,4.242734,-2.551040,-0.441934,0.613846
25529,1.427857,-7.440081,4.663540,-2.858554,-0.454727,0.534827
25530,1.939235,-8.852418,5.416892,-2.741608,-0.443010,0.475492
25531,1.900743,-11.062395,4.993309,-2.226441,-0.312033,0.430235
25532,1.317511,-13.418054,3.980408,-1.208954,-0.185003,0.397281
25533,0.459616,-14.049770,3.342438,0.109144,-0.082336,0.359739
25534,-0.349892,-12.951631,3.277536,1.364181,-0.062116,0.296683
25535,-0.433457,-11.316289,3.494098,2.287182,-0.081618,0.226216
25536,-0.419340,-10.089017,3.394455,2.815232,-0.052216,0.190298
25537,-0.514184,-9.474419,2.630917,3.009703,-0.024930,0.220321
25538,-0.640770,-8.721930,2.203281,2.953359,-0.049525,0.297802
25539,-0.922469,-8.049374,1.684224,2.546909,-0.117525,0.370699
25540,-1.461614,-7.458145,1.552473,1.893957,-0.243886,0.398953
25541,-1.566803,-6.595390,2.225843,1.158564,-0.389917,0.425792
25542,-1.446927,-6.054555,3.143664,0.115775,-0.455074,0.495679
25543,-1.226086,-6.781912,3.781244,-0.831635,-0.472371,0.574853
25544,-0.704925,-6.808098,4.888707,-1.493980,-0.481019,0.638514
25545,-0.365593,-6.909511,5.637404,-2.020301,-0.439733,0.629002
25546,-0.064067,-7.829903,6.031632,-2.107187,-0.389514,0.561891
25547,0.172163,-9.627598,5.910049,-1.715268,-0.264202,0.473615
25548,-0.262767,-12.582260,5.572069,-0.857407,-0.166870,0.444385
25549,-0.797246,-15.593248,5.083075,0.497453,-0.151177,0.504999
25550,-0.679243,-17.944254,6.265278,2.234085,-0.203127,0.627157
25551,-0.037581,-19.610635,4.999658,4.166705,-0.147207,0.706450
25552,-0.129933,-18.190979,1.807715,6.079720,-0.056920,0.638506
25553,-0.736335,-14.160420,-0.153820,7.344684,-0.060911,0.440327
25554,-0.610505,-9.135428,-0.452904,7.758350,-0.047211,0.157470
25555,-0.902506,-4.511959,-0.328082,7.431802,0.001438,-0.035923
25556,-1.287561,0.719059,1.453763,6.445223,-0.013417,0.070439
25557,-1.961513,4.356035,3.900481,4.375956,-0.137204,0.315499
25558,-2.546063,6.127947,6.259548,1.652296,-0.298710,0.513068
25559,-2.322813,4.628471,7.046237,-1.105371,-0.367255,0.509897
25560,-1.895290,3.144221,7.921301,-3.151586,-0.226100,0.456198
25561,-2.065886,-1.081199,8.181252,-4.608682,-0.125656,0.405251
25562,-1.898143,-7.741757,7.653988,-4.765849,-0.161432,0.466274
25563,-1.168578,-13.906952,6.927519,-3.689953,-0.228721,0.587725
25564,-0.250813,-17.477574,6.904853,-1.714663,-0.176197,0.565021
25565,0.456013,-17.801986,6.266243,0.516602,-0.122403,0.409266
25566,0.325791,-15.104304,5.213040,2.475108,-0.154429,0.219310
25567,-0.277383,-10.924539,4.599824,3.673085,-0.230635,0.058185
25568,-1.018177,-6.950343,4.300474,4.024435,-0.245088,-0.028527
25569,-1.776896,-3.796830,4.565401,3.618286,-0.248428,-0.027164
25570,-2.118906,-1.334674,5.162150,2.576003,-0.280932,0.041441
25571,-2.114459,0.308654,5.928740,1.064761,-0.311087,0.165229
25572,-1.944100,0.962504,6.946568,-0.715884,-0.304898,0.279928
25573,-1.562976,0.046023,7.454616,-2.384011,-0.245259,0.339868
25574,-1.140135,-1.584118,7.377972,-3.578445,-0.137665,0.328141
25575,-1.103891,-4.241472,7.556931,-4.147473,-0.048906,0.276861
25576,-1.208520,-9.342808,6.678694,-3.994202,-0.091278,0.276266
25577,-0.990629,-13.610178,6.589805,-2.769592,-0.120193,0.287596
25578,-0.505096,-15.477690,7.277944,-1.152962,-0.167894,0.261393
25579,-0.016794,-15.674142,7.356603,0.621335,-0.168431,0.141307
25580,-0.008864,-14.676365,6.401754,2.257030,-0.185808,0.018158
25581,-0.427270,-13.222861,5.666949,3.701780,-0.207375,-0.074773
25582,-0.964340,-11.678303,4.695112,4.796012,-0.254477,-0.098943
25583,-0.642695,-8.710081,4.815098,5.519529,-0.283431,-0.109853
25584,-0.584030,-4.976974,5.643156,5.409683,-0.257923,-0.096296
25585,-0.541851,-1.606272,6.758191,4.569970,-0.211572,-0.086732
25586,-1.440083,0.516350,7.629208,3.160471,-0.138521,-0.055223
25587,-2.333475,1.184728,7.583068,1.583750,-0.192046,-0.000123
25588,-2.537216,0.007318,7.076571,0.090209,-0.261485,0.075640
25589,-1.719135,-2.244778,6.880788,-0.933415,-0.231830,0.136764
25590,-1.133823,-4.590936,6.806693,-1.594221,-0.213529,0.242504
25591,-0.290258,-6.722067,7.142014,-1.739241,-0.223153,0.338985
25592,0.138564,-7.888092,7.789042,-1.589127,-0.259680,0.402990
25593,0.453884,-8.481185,8.594717,-1.164369,-0.303819,0.374682
25594,0.482225,-8.403393,8.677537,-0.568736,-0.276483,0.278707
25595,0.002372,-7.681208,8.085216,0.149604,-0.237638,0.165005
25596,-0.763349,-6.303652,8.445227,0.709021,-0.210487,0.008511
25597,-1.699506,-6.465229,7.648483,1.064592,-0.241322,-0.041934
25598,-2.081831,-6.771525,6.609937,1.614916,-0.329974,-0.048431
25599,-1.972261,-6.247850,6.034451,1.986242,-0.389965,-0.051582
25600,-1.470518,-4.687634,6.412279,2.177993,-0.451886,-0.090646
25601,-1.197034,-2.087662,7.372903,2.014826,-0.450284,-0.195128
25602,-1.211553,0.277178,8.181161,1.371408,-0.421337,-0.329899
25603,-0.940151,1.338198,8.547464,0.444186,-0.339213,-0.450534
25604,-0.601858,1.443800,8.717876,-0.321499,-0.170519,-0.587792
25605,-0.075568,0.340080,9.230305,-0.924890,-0.027587,-0.730993
25606,0.686904,-1.331634,9.529494,-1.182122,0.219329,-0.877276
25607,0.832012,-2.424956,10.701196,-1.261603,0.422070,-1.083117
25608,-0.006782,-4.602061,12.245818,-1.659856,0.269279,-1.317077
25609,-0.036546,-8.995019,9.128216,-1.642808,-0.079857,-1.291735
25610,-0.494674,-13.593115,3.999122,-0.936144,-0.237418,-1.026299
25611,-1.470916,-14.746735,2.533361,0.735581,-0.405848,-0.796807
25612,-1.654682,-10.523445,4.893920,2.040927,-0.525687,-0.718814
25613,-1.154076,-6.111126,5.905606,2.292757,-0.534217,-0.694439
25614,-1.088449,-2.960167,7.008726,1.952638,-0.455099,-0.630504
25615,-1.019140,-0.748993,8.236789,1.130046,-0.359061,-0.571905
25616,-0.969885,0.007934,8.206132,0.009279,-0.312318,-0.540938
25617,-0.492853,-0.282643,7.577278,-1.108261,-0.357621,-0.544543
25618,0.127980,-0.879982,6.793868,-1.962964,-0.400114,-0.600424
25619,0.577852,-0.855011,6.102833,-2.655939,-0.443878,-0.733957
25620,1.414947,-0.959691,7.223155,-3.288850,-0.465667,-0.924274
25621,3.739663,-1.612238,11.267695,-4.005635,-0.316356,-1.003200
25622,4.208086,-5.189956,11.180583,-4.518599,0.110047,-0.940422
25623,2.752638,-10.242739,8.496947,-4.049672,0.427257,-0.875680
25624,0.642311,-13.431030,7.035668,-2.658593,0.590226,-0.903795
25625,-0.537353,-14.367109,8.553640,-0.987962,0.458017,-0.969794
25626,0.236580,-14.868915,9.080072,0.343185,0.116347,-0.903708
25627,1.173487,-15.517945,5.658422,1.329229,-0.101018,-0.699427
25628,1.217560,-13.958087,4.615522,2.569843,-0.355980,-0.601133
25629,0.772091,-10.391005,2.781067,3.359236,-0.528709,-0.590803
25630,-0.079781,-6.246613,2.901395,3.764568,-0.569548,-0.666473
25631,-0.633779,-2.625028,4.016576,3.543180,-0.525947,-0.749665
25632,-1.558878,-0.527206,4.423436,2.838245,-0.506372,-0.772314
25633,-2.002511,0.552333,4.545356,1.858821,-0.542626,-0.749296
25634,-1.400085,0.653309,5.183860,0.705739,-0.606018,-0.658152
25635,0.201912,0.424350,6.519648,-0.568706,-0.674944,-0.526520
25636,1.570462,-0.306180,6.917613,-1.971011,-0.739791,-0.444363
25637,2.620201,-0.845604,6.577234,-3.203599,-0.770967,-0.488565
25638,3.909388,-1.127095,8.381814,-4.088467,-0.699614,-0.647567
25639,6.036467,-2.177881,12.289946,-4.888700,-0.362529,-0.765947
25640,5.852116,-6.232740,11.980233,-5.441050,0.160683,-0.796160
25641,3.581633,-12.162184,8.393913,-4.799677,0.477907,-0.778179
25642,1.412922,-16.178228,6.283892,-3.059785,0.405547,-0.805410
25643,1.060233,-17.711480,7.467008,-0.901016,0.147340,-0.859982
25644,1.581705,-17.575711,8.477310,1.038878,-0.126525,-0.904719
25645,1.915460,-16.237033,5.493143,2.747095,-0.277838,-0.899673
25646,0.921528,-12.846693,3.161315,4.168439,-0.459929,-0.938839
25647,0.390033,-7.714931,1.774603,5.009225,-0.626668,-1.038752
25648,-0.025068,-3.021314,2.002867,5.042182,-0.703083,-1.158750
25649,0.115187,0.022107,2.481917,4.317945,-0.738989,-1.228325
25650,0.583559,1.653712,3.631616,3.042662,-0.778131,-1.180473
25651,1.793994,2.607824,5.900250,1.359149,-0.863555,-1.011269
25652,3.322775,2.691975,7.336249,-0.615513,-0.886434,-0.800879
25653,4.862453,2.482959,8.986400,-2.455275,-0.791666,-0.658034
25654,6.214706,1.156708,10.825499,-4.099391,-0.509624,-0.627987
25655,6.540292,-1.853732,10.931549,-5.200901,-0.105717,-0.667303
25656,5.383438,-6.352176,8.904561,-5.560958,0.210744,-0.714765
25657,3.953223,-11.520363,6.497118,-4.945448,0.245525,-0.780117
25658,3.390550,-15.598930,5.471264,-3.321527,0.165472,-0.882092
25659,3.011178,-17.651466,6.145753,-1.247879,0.019517,-0.966292
25660,2.827958,-16.998664,5.953935,0.792940,-0.209839,-1.003019
25661,2.753233,-14.494053,5.102375,2.380469,-0.425286,-0.997637
25662,2.588790,-10.907593,4.265317,3.623157,-0.518071,-1.013728
25663,1.794064,-6.721973,3.554798,4.187431,-0.611781,-1.080140
25664,1.419381,-3.324809,3.276489,4.167683,-0.695815,-1.160696
25665,1.823089,-2.018684,3.213064,3.607945,-0.729546,-1.183251
25666,2.732264,-1.937787,3.278675,2.834128,-0.770580,-1.064452
25667,3.875105,-1.259042,4.023445,1.921935,-0.880260,-0.874906
25668,5.093975,0.339209,5.891594,0.733412,-0.989599,-0.737926
25669,5.839667,1.762235,7.055135,-0.810030,-0.987480,-0.701715
25670,5.839104,1.724165,6.974425,-2.338460,-0.924300,-0.785192
25671,6.547656,0.195347,8.625572,-3.355352,-0.778729,-0.908463
25672,7.090565,-2.515419,10.184038,-4.088921,-0.462819,-0.982562
25673,6.715579,-6.681865,9.227292,-4.330001,-0.210714,-0.976844
25674,6.286384,-11.139050,7.245497,-3.694229,-0.081898,-0.958180
25675,6.006566,-14.110024,6.201434,-2.215459,-0.085651,-0.994731
25676,5.684800,-14.591385,6.583699,-0.417434,-0.152345,-1.122630
25677,5.297733,-13.118254,6.839493,1.167897,-0.315942,-1.227014
25678,4.266191,-11.285305,5.194478,2.188764,-0.566535,-1.253037
25679,2.986830,-9.125956,2.704617,2.897427,-0.859960,-1.251737
25680,2.868640,-6.594210,2.271934,3.377247,-1.074388,-1.206010
25681,3.388331,-4.305721,3.226852,3.382291,-1.126637,-1.116891
25682,3.527362,-2.575910,3.277600,2.887954,-1.118301,-1.000207
25683,3.688393,-1.113141,3.238243,2.210541,-1.163341,-0.915651
25684,4.646833,0.137616,4.259064,1.387649,-1.214274,-0.818202
25685,5.877215,0.669516,5.505591,0.253908,-1.176303,-0.706562
25686,6.867162,0.169936,6.197810,-0.924792,-1.074062,-0.628482
25687,7.758733,-1.014420,7.346893,-1.872996,-0.880742,-0.596377
25688,8.103787,-2.583051,8.353410,-2.634639,-0.648924,-0.613554
25689,7.993680,-4.160308,8.722974,-3.000973,-0.437014,-0.687316
25690,7.542644,-5.953168,8.199994,-2.902481,-0.324264,-0.770266
25691,7.373057,-7.868034,7.648855,-2.332469,-0.357340,-0.882534
25692,7.592665,-9.245621,7.106909,-1.302417,-0.350188,-1.013560
25693,7.814420,-8.788264,7.027623,-0.084700,-0.334068,-1.137024
25694,7.780574,-7.333025,8.184879,0.711944,-0.333822,-1.286409
25695,7.587680,-6.852647,8.376513,1.248646,-0.364638,-1.407124
25696,6.500179,-6.308028,6.476303,1.616616,-0.491828,-1.400893
25697,4.725302,-5.845736,2.979696,1.694732,-0.816749,-1.384420
25698,3.906470,-4.897697,0.867246,1.955681,-1.112857,-1.400858
25699,3.954285,-3.504908,1.280835,2.121112,-1.232869,-1.389080
25700,4.549466,-2.534569,2.131491,1.921322,-1.255923,-1.320127
25701,5.754895,-1.870184,2.624508,1.522524,-1.217277,-1.215362
25702,7.453597,-0.997042,3.658335,1.021188,-1.177006,-1.061669
25703,9.486562,0.413263,6.008426,0.338766,-1.051027,-0.939859
25704,10.697050,1.756977,8.324794,-0.684137,-0.783116,-0.927405
25705,10.455024,1.893941,8.793937,-1.724426,-0.486522,-1.018508
25706,9.682299,0.028816,7.686367,-2.288951,-0.307067,-1.125064
25707,9.245478,-2.709192,6.628216,-2.210732,-0.244481,-1.156919
25708,9.240119,-4.951405,6.435192,-1.827937,-0.232780,-1.189979
25709,9.147493,-5.678743,6.004247,-1.083721,-0.122709,-1.261464
25710,8.832164,-5.147226,7.275904,-0.433509,-0.105252,-1.401099
25711,9.072992,-6.130192,6.725602,-0.145052,-0.230281,-1.469026
25712,8.702871,-7.791102,3.716342,0.300758,-0.390335,-1.421551
25713,7.561190,-8.362935,2.775327,1.107281,-0.537350,-1.365658
25714,6.896328,-7.172112,2.151090,1.866127,-0.704281,-1.318743
25715,6.262437,-5.185444,1.288859,2.315720,-0.865120,-1.236974
25716,6.468052,-3.384968,0.866129,2.412502,-1.003671,-1.132258
25717,7.390006,-2.002054,1.648475,2.264257,-1.058940,-0.926819
25718,8.391110,-0.241584,2.977754,1.791509,-1.039695,-0.712463
25719,9.036696,1.225747,4.557659,0.965961,-0.929164,-0.537752
25720,9.153515,1.795985,5.494706,-0.017513,-0.747761,-0.439784
25721,9.119444,1.087188,5.794156,-0.878740,-0.552218,-0.393906
25722,8.963860,-0.365057,5.716318,-1.329483,-0.397837,-0.391855
25723,9.241086,-1.622029,5.864621,-1.379916,-0.333549,-0.420498
25724,9.516845,-2.626012,5.784711,-1.168878,-0.299132,-0.474257
25725,9.986632,-3.250047,5.744172,-0.733362,-0.320809,-0.527394
25726,10.380863,-2.788824,5.809673,-0.239451,-0.290664,-0.607030
25727,10.405595,-2.357734,5.816401,0.098437,-0.255490,-0.726730
25728,10.280553,-2.384224,5.695839,0.331288,-0.253491,-0.814335
25729,10.070516,-3.208820,4.546812,0.322514,-0.409943,-0.815327
25730,9.229166,-4.355548,2.552113,0.510249,-0.555197,-0.738664
25731,7.616322,-3.862763,0.701062,0.822116,-0.767671,-0.640405
25732,7.001060,-2.313529,-0.201797,1.117651,-0.950796,-0.558427
25733,6.911302,-0.706825,0.396962,1.124448,-1.055532,-0.458898
25734,7.252394,0.573941,1.707424,0.751045,-1.070920,-0.376099
25735,7.675526,0.912290,2.500004,0.142507,-0.950063,-0.263247
25736,7.815015,0.617166,2.114965,-0.419245,-0.804232,-0.138955
25737,8.142218,0.073541,1.657226,-0.804545,-0.727101,-0.011818
25738,8.855353,-0.212795,2.093277,-1.063964,-0.718010,0.106965
25739,9.724928,0.040944,3.633294,-1.314473,-0.715700,0.168162
25740,10.946698,1.100691,6.971802,-1.578145,-0.637100,0.090112
25741,11.839041,1.557502,8.592138,-2.015548,-0.334037,-0.113238
25742,11.355429,0.098229,6.818965,-2.042251,-0.073211,-0.324773
25743,10.844616,-1.750692,4.670343,-1.509935,-0.133519,-0.463713
25744,11.051607,-2.247721,4.101898,-0.742669,-0.215981,-0.595761
25745,11.164247,-0.825699,4.589015,-0.129022,-0.144024,-0.779077
25746,11.155448,0.686901,5.655521,-0.019554,-0.091969,-1.028553
25747,11.205998,0.239515,5.109948,-0.277339,-0.121888,-1.201762
25748,10.197153,-2.154879,3.601757,-0.600660,-0.218279,-1.191711
25749,9.023981,-5.113955,0.479681,-0.704762,-0.422051,-1.036928
25750,7.328140,-6.157147,-1.618622,-0.099909,-0.580473,-0.819770
25751,6.400490,-4.478151,-1.259521,0.623901,-0.823617,-0.641324
25752,6.860702,-1.900929,-0.236660,0.750661,-0.958113,-0.500535
25753,7.234145,-0.300384,0.392462,0.495971,-0.953352,-0.374925
25754,7.992254,0.146797,1.580763,0.137920,-0.888281,-0.279877
25755,8.984801,-0.475380,2.266664,-0.228922,-0.759731,-0.159280
25756,9.445018,-1.177417,2.399793,-0.417757,-0.645712,-0.054736
25757,9.624813,-1.243953,2.903770,-0.421300,-0.608589,0.003557
25758,9.923861,-0.934872,3.179575,-0.374279,-0.602538,0.007286
25759,10.284424,-0.761632,3.207622,-0.322949,-0.571777,-0.027803
25760,10.453209,-0.929428,3.320069,-0.265296,-0.523180,-0.062902
25761,10.648643,-1.178659,3.627190,-0.185338,-0.552406,-0.105102
25762,10.950954,-1.596450,3.371953,-0.317633,-0.610240,-0.143079
25763,10.974839,-2.551896,2.334777,-0.298374,-0.622542,-0.141421
25764,10.282551,-2.350892,1.962620,0.003966,-0.598899,-0.086304
25765,10.088093,-1.941030,1.779471,0.178547,-0.658877,-0.083283
25766,9.824380,-1.661630,1.724801,0.276042,-0.589780,-0.019799
25767,9.633812,-1.513620,1.835237,0.346747,-0.567363,0.038800
25768,9.756881,-1.941888,1.603929,0.314789,-0.500977,0.130256
25769,9.572001,-2.407603,1.255602,0.370321,-0.463102,0.232052
25770,9.485989,-2.304055,1.377531,0.586120,-0.465005,0.310210
25771,9.433433,-1.451735,1.880748,0.795035,-0.463193,0.349089
25772,9.561285,-0.377503,2.523396,0.891002,-0.452244,0.351271
25773,9.798770,0.271732,2.843420,0.843775,-0.379836,0.332329
25774,9.916622,0.544000,2.771138,0.752799,-0.294257,0.302221
25775,10.030843,0.694510,2.674006,0.621962,-0.263694,0.243745
25776,10.132672,0.718538,2.419641,0.507257,-0.224531,0.182983
25777,10.158005,0.604273,2.117369,0.405676,-0.198811,0.126352
25778,10.095080,0.380127,1.918636,0.332731,-0.196276,0.085037
25779,10.089202,0.220486,1.611858,0.286655,-0.193787,0.071744
25780,10.003856,0.271942,1.662921,0.264430,-0.171141,0.039628
25781,10.059601,0.395585,1.792647,0.115435,-0.138007,-0.025985
25782,9.939690,0.246960,1.897257,-0.057712,-0.094726,-0.093503
25783,9.774367,-0.308409,1.584259,-0.248658,-0.093545,-0.155186
25784,9.520244,-0.990312,1.421750,-0.250445,-0.092088,-0.180024
25785,9.305320,-1.408522,1.184619,-0.186272,-0.126440,-0.179974
25786,9.076828,-1.460728,0.827127,-0.097844,-0.170930,-0.158815
25787,8.996218,-1.091270,0.822462,-0.008834,-0.236209,-0.146620
25788,9.164184,-0.479480,1.130863,0.010119,-0.277956,-0.155523
25789,9.356931,-0.050279,1.449654,-0.061677,-0.255792,-0.171308
25790,9.514425,-0.061208,1.559303,-0.194773,-0.214205,-0.180031
25791,9.746682,-0.360868,1.468645,-0.324864,-0.185292,-0.185431
25792,9.885638,-0.779534,1.346939,-0.392454,-0.148174,-0.177241
25793,9.897219,-1.091836,1.127268,-0.357734,-0.148907,-0.165595
25794,9.961198,-1.149897,1.154966,-0.312044,-0.157784,-0.151245
25795,9.928026,-1.051146,1.251929,-0.252332,-0.172846,-0.135336
25796,10.087327,-0.812007,1.491400,-0.221266,-0.187326,-0.126006
25797,10.244539,-0.720719,1.575559,-0.223839,-0.163700,-0.116871
25798,10.371159,-0.756635,1.548556,-0.240279,-0.122268,-0.102978
25799,10.530825,-0.934595,1.432366,-0.257019,-0.067614,-0.096661
25800,10.483872,-1.297253,1.299602,-0.246848,-0.035648,-0.082930
25801,10.306402,-1.520486,1.100395,-0.190711,-0.043735,-0.064163
25802,10.092901,-1.471614,1.099111,-0.088422,-0.074636,-0.037041
25803,10.004845,-1.159146,1.195296,-0.006009,-0.096457,-0.008700
25804,9.967413,-0.776447,1.361304,0.032105,-0.088494,0.001547
25805,9.960849,-0.556271,1.485212,0.001791,-0.047152,0.002706
25806,9.789203,-0.530423,1.400661,-0.049543,-0.009736,0.000228
25807,9.705284,-0.618554,1.191107,-0.084286,0.011023,0.002224
25808,9.504138,-0.817042,0.916005,-0.083728,0.016649,-0.004175
25809,9.487892,-0.841210,0.831914,-0.054008,-0.027331,-0.011017
25810,9.480641,-0.840968,0.851901,-0.023628,-0.033395,-0.012245
25811,9.511796,-0.748553,0.937417,0.001763,-0.044168,-0.009419
25812,9.638738,-0.646157,1.079573,0.018030,-0.047543,-0.012554
25813,9.662510,-0.553965,1.187832,0.008865,-0.040992,-0.009769
25814,9.803297,-0.571194,1.254605,-0.014443,-0.044684,-0.020746
25815,9.805514,-0.701557,1.145514,-0.038502,-0.029079,-0.026389
25816,9.730789,-0.761654,1.039021,-0.021393,-0.037124,-0.040457
25817,9.825217,-0.802644,1.114656,-0.056499,-0.059010,-0.051468
25818,9.803030,-0.888500,0.995759,-0.067741,-0.060394,-0.063861
25819,9.700468,-0.860288,0.981819,-0.016054,-0.068050,-0.060329
25820,9.803020,-0.678237,1.140051,0.011169,-0.082076,-0.069948
25821,9.933079,-0.514051,1.255490,-0.006608,-0.061664,-0.088186
25822,9.946253,-0.492409,1.280672,-0.038199,-0.030400,-0.103877
25823,9.953607,-0.602296,1.225897,-0.049795,-0.010321,-0.117670
25824,9.939331,-0.745564,1.215516,-0.056193,-0.004837,-0.137399
25825,9.855450,-0.818235,1.184986,-0.053721,-0.002019,-0.143732
25826,9.764317,-0.858895,1.024003,-0.046798,-0.019449,-0.147906
25827,9.637926,-0.727916,0.984201,0.007593,-0.030115,-0.126802
25828,9.633395,-0.420404,1.039559,0.042210,-0.044243,-0.103719
25829,9.599929,-0.183885,1.134596,0.025789,-0.035849,-0.080653
25830,9.588260,-0.068556,1.131566,-0.010057,-0.018467,-0.059569
25831,9.598631,-0.074462,1.030601,-0.031453,-0.009254,-0.035424
25832,9.680769,-0.096444,0.926732,-0.052934,-0.011661,-0.017724
25833,9.627314,-0.124612,0.779740,-0.046953,-0.004702,0.003189
25834,9.661605,-0.111539,0.739104,-0.021596,-0.010186,0.025688
25835,9.691684,-0.023242,0.828222,-0.007837,0.002219,0.037742
25836,9.825771,-0.078030,0.895987,-0.038713,0.020496,0.040338
25837,9.909323,-0.204829,0.896124,-0.060303,0.044792,0.037881
25838,10.014579,-0.328233,1.007961,-0.061765,0.063206,0.020211
25839,10.102980,-0.594774,1.008127,-0.077186,0.071774,0.001261
25840,10.075449,-0.849991,0.971827,-0.043785,0.075284,-0.021583
25841,9.980812,-0.923794,0.868095,-0.005945,0.054212,-0.033989
25842,9.975555,-0.898627,0.845469,0.048858,0.021309,-0.038078
25843,9.997282,-0.770581,0.987125,0.088061,0.007666,-0.044224
25844,9.986727,-0.601388,0.965552,0.105765,0.016177,-0.049493
25845,9.908833,-0.527270,0.971220,0.102192,0.028772,-0.050459
25846,9.901706,-0.434067,1.001787,0.100071,0.047521,-0.050590
25847,9.815321,-0.448733,1.031073,0.083221,0.074389,-0.052100
25848,9.758816,-0.461039,0.969346,0.044692,0.089355,-0.045773
25849,9.652717,-0.546099,0.839026,0.047584,0.101681,-0.044058
25850,9.531047,-0.512191,0.784381,0.055807,0.092981,-0.036633
25851,9.535239,-0.320166,0.851791,0.065938,0.084462,-0.041196
25852,9.522644,-0.184068,0.988729,0.043706,0.088000,-0.044181
25853,9.446279,-0.154486,1.076492,0.014461,0.100779,-0.049070
25854,9.456903,-0.136807,1.116107,-0.005606,0.103646,-0.057080
25855,9.550888,-0.207400,1.180994,-0.035514,0.106877,-0.068321
25856,9.543289,-0.323027,1.185406,-0.073921,0.112321,-0.073615
25857,9.553986,-0.414911,1.093202,-0.086036,0.103875,-0.081552
25858,9.601066,-0.500978,1.063285,-0.086629,0.086185,-0.093945
25859,9.686095,-0.548757,0.941836,-0.086273,0.057385,-0.105610
25860,9.879737,-0.691561,0.877064,-0.089761,0.044592,-0.116205
25861,10.017922,-0.906225,0.763551,-0.075871,0.030440,-0.119007
25862,10.074291,-0.964518,0.832240,-0.023384,0.000627,-0.119296
25863,10.139573,-0.801099,0.960620,0.019780,-0.042145,-0.115404
25864,10.158024,-0.577985,1.098384,0.028842,-0.060675,-0.101913
25865,10.168442,-0.357170,1.258275,0.016613,-0.059325,-0.086086
25866,10.126209,-0.277206,1.317984,-0.016919,-0.056628,-0.075136
25867,10.076898,-0.144460,1.377533,-0.038177,-0.058319,-0.068024
25868,10.047139,-0.164841,1.335610,-0.077487,-0.038112,-0.061334
25869,9.934292,-0.130646,1.244099,-0.087263,-0.027434,-0.063404
25870,9.906758,-0.051924,1.261149,-0.095723,-0.020934,-0.065708
25871,9.857974,-0.031109,1.192289,-0.113905,-0.012824,-0.067542
25872,9.847219,0.016904,1.138251,-0.124382,-0.003506,-0.069817
25873,9.797658,-0.017518,1.094309,-0.161906,0.005648,-0.067389
25874,9.714086,-0.013051,1.067009,-0.187346,0.004810,-0.064193
