// Start Time: Unknown
// Update Rate: 100.0Hz
// Filter Profile: human (46.1)
// Firmware Version: 4.3.5
PacketCounter,Acc_X,Acc_Y,Acc_Z,Gyr_X,Gyr_Y,Gyr_Z
22455,8.974812,-3.429959,2.410989,0.003097,-0.002615,-0.000313
22456,8.980317,-3.409312,2.398358,0.005441,-0.003079,-0.005813
22457,9.001778,-3.389477,2.437651,0.007889,-0.012042,-0.008575
22458,8.970357,-3.388493,2.423747,0.005220,-0.008210,-0.004960
22459,9.002648,-3.387985,2.436511,0.006997,-0.006403,-0.007809
22460,8.971174,-3.386931,2.422907,0.004345,-0.006607,-0.007878
22461,8.976802,-3.396860,2.454866,-0.000292,-0.004703,-0.009249
22462,8.987753,-3.386527,2.474277,-0.003936,-0.003854,-0.009969
22463,8.956315,-3.385412,2.460641,-0.000173,-0.004154,-0.011515
22464,8.999677,-3.403609,2.446850,-0.003135,-0.005025,-0.017149
22465,8.968237,-3.433190,2.478251,-0.001613,-0.000280,-0.011783
22466,8.995450,-3.421454,2.458792,0.003042,-0.006214,-0.014092
22467,9.012159,-3.450001,2.464373,0.006358,-0.003695,-0.015256
22468,8.996639,-3.418471,2.458590,0.012207,-0.001517,-0.014086
22469,9.013291,-3.446845,2.464648,0.016298,-0.005180,-0.013745
22470,8.982015,-3.444892,2.451657,0.018073,-0.003368,-0.016592
22471,8.993284,-3.402413,2.426748,0.014875,-0.005337,-0.017690
22472,8.993828,-3.400723,2.427102,0.016941,0.001174,-0.011295
22473,9.004711,-3.389862,2.447415,0.010975,-0.001554,-0.010198
22474,8.994689,-3.398017,2.427703,0.008013,-0.002427,-0.015828
22475,9.011342,-3.426558,2.433604,0.003139,-0.001628,-0.012669
22476,9.011776,-3.425380,2.433654,0.003685,0.000138,-0.011637
22477,9.001588,-3.464782,2.459044,0.006881,0.002112,-0.010536
22478,9.007134,-3.443474,2.446946,0.009415,0.001772,-0.008201
22479,8.996981,-3.451922,2.427372,0.005789,-0.001416,-0.012597
22480,8.986465,-3.400585,2.409195,0.004775,0.003669,-0.009573
22481,8.997286,-3.389990,2.429299,0.005672,-0.001964,-0.010330
22482,8.981916,-3.387984,2.376896,-0.003391,-0.002091,-0.008925
22483,8.928993,-3.377392,2.370056,-0.006920,-0.000699,-0.011911
22484,8.913660,-3.406375,2.362388,-0.013216,-0.000066,-0.012701
22485,8.925110,-3.424636,2.335242,-0.013196,-0.004095,-0.016373
22486,8.904839,-3.473466,2.339609,-0.008985,-0.007200,-0.018294
22487,8.911369,-3.511374,2.324735,0.005169,-0.011779,-0.018705
22488,8.923527,-3.528239,2.297009,0.016829,-0.024071,-0.028792
22489,8.919855,-3.545516,2.308124,0.031410,-0.027423,-0.025903
22490,8.958610,-3.522156,2.307291,0.041254,-0.033455,-0.025787
22491,8.981250,-3.468698,2.300378,0.047995,-0.036876,-0.025358
22492,8.998737,-3.435496,2.305694,0.048776,-0.043032,-0.023825
22493,9.011047,-3.422789,2.323111,0.045347,-0.046087,-0.020372
22494,9.050226,-3.428879,2.274469,0.033520,-0.046979,-0.016752
22495,9.099661,-3.427727,2.336636,0.024007,-0.044301,-0.014960
22496,9.101116,-3.426138,2.333298,0.016376,-0.044272,-0.009599
22497,9.065233,-3.416087,2.375205,0.008890,-0.051745,-0.013817
22498,9.072416,-3.454601,2.357125,0.001904,-0.045384,-0.006039
22499,9.041508,-3.425060,2.386186,0.006994,-0.050058,-0.005024
22500,9.032031,-3.405278,2.408321,0.008874,-0.052687,-0.001441
22501,9.043870,-3.395412,2.423685,0.009308,-0.051460,0.001857
22502,9.055720,-3.385496,2.439122,0.010518,-0.051397,-0.002007
22503,9.008653,-3.355322,2.416255,0.015805,-0.046931,0.001782
22504,9.063070,-3.335440,2.465012,0.018117,-0.047367,-0.003694
22505,9.032196,-3.334857,2.448735,0.020309,-0.040316,0.000392
22506,9.070825,-3.315371,2.537337,0.022283,-0.041420,-0.010634
22507,9.077195,-3.293723,2.521916,0.014639,-0.032392,-0.010314
22508,9.131738,-3.301931,2.525684,0.010648,-0.028211,-0.012927
22509,9.112025,-3.321405,2.575572,0.009411,-0.023267,-0.017745
22510,9.187864,-3.309587,2.619636,0.013917,-0.016673,-0.019161
22511,9.177524,-3.228319,2.646571,0.013674,-0.008759,-0.019684
22512,9.193843,-3.167433,2.699790,0.006476,0.001464,-0.016094
22513,9.161962,-3.107938,2.780084,-0.005263,0.014099,-0.016140
22514,9.156841,-3.097714,2.840512,-0.021990,0.027937,-0.023097
22515,9.182535,-2.998849,2.962300,-0.049676,0.052288,-0.024902
22516,9.275443,-2.735648,3.330572,-0.110361,0.096585,-0.032228
22517,9.469577,-2.256313,3.720137,-0.265344,0.175985,-0.035843
22518,9.661165,-2.015789,3.746620,-0.504091,0.293310,-0.039283
22519,9.739687,-1.955338,3.410593,-0.829381,0.401882,-0.024339
22520,9.610256,-2.058865,3.169713,-1.171500,0.501258,0.008812
22521,9.469306,-2.369294,3.078975,-1.502403,0.571694,0.057127
22522,9.363393,-2.982859,2.877034,-1.766568,0.603990,0.114950
22523,9.292746,-3.767708,2.726912,-1.940168,0.622283,0.185902
22524,9.142648,-4.570376,2.586599,-1.950538,0.619902,0.249035
22525,8.909474,-4.785822,2.612203,-1.890766,0.574581,0.325225
22526,8.838659,-5.225117,2.483721,-1.796597,0.520291,0.384956
22527,8.847047,-5.918260,2.245716,-1.601838,0.474448,0.446591
22528,8.674053,-6.314716,1.853148,-1.322188,0.411334,0.499580
22529,8.622381,-6.567650,1.676607,-0.973515,0.345683,0.543221
22530,8.392182,-6.621157,1.320188,-0.599613,0.262858,0.577034
22531,8.102390,-6.733893,0.968143,-0.219124,0.154861,0.610940
22532,7.929937,-7.003412,0.867802,0.209535,0.020722,0.633932
22533,7.877107,-7.209812,0.829677,0.687087,-0.124031,0.652298
22534,8.075051,-7.318366,1.120834,1.220543,-0.277607,0.673292
22535,8.410375,-6.842763,1.468314,1.715986,-0.400919,0.689821
22536,8.729086,-6.108221,1.980042,2.108348,-0.477036,0.717695
22537,9.354453,-5.379247,2.991769,2.422590,-0.453303,0.726160
22538,9.817056,-4.061541,3.969920,2.542464,-0.287604,0.713838
22539,9.644050,-1.811755,4.379402,2.305273,-0.071087,0.671932
22540,9.629303,0.118073,5.109641,1.745867,0.246237,0.578142
22541,9.094937,1.896833,4.854920,0.809931,0.601873,0.414182
22542,8.035508,3.187986,3.493137,-0.426110,0.834608,0.249188
22543,7.670480,3.128365,2.565537,-1.743878,1.020626,0.085185
22544,7.906495,1.467264,1.751417,-2.980182,1.213944,-0.069288
22545,8.137968,-1.098256,1.404534,-3.877303,1.367907,-0.154435
22546,8.024429,-3.872580,1.034375,-4.351454,1.429467,-0.156853
22547,7.291913,-6.779955,-0.337066,-4.375983,1.352405,-0.104231
22548,6.462641,-9.892446,-1.407895,-3.804245,1.104680,-0.008155
22549,6.098277,-12.832157,-0.466757,-2.455445,0.776025,0.023118
22550,6.448061,-15.386736,1.352852,-0.493454,0.434329,0.054294
22551,7.775836,-15.777413,3.078778,1.782131,0.074243,0.134717
22552,9.353642,-13.258032,3.802733,3.727357,-0.142223,0.317871
22553,9.895055,-9.213419,3.447120,4.830291,-0.308561,0.576410
22554,9.817301,-5.059151,3.095289,5.026664,-0.461851,0.802353
22555,9.841507,-1.520805,3.230133,4.411911,-0.505205,0.926825
22556,10.127722,0.388441,4.011286,3.289800,-0.348099,0.949272
22557,9.997976,1.078198,4.905494,2.014487,-0.023686,0.891047
22558,9.201094,1.551340,5.384414,0.751013,0.306458,0.808927
22559,8.471130,1.816188,4.674201,-0.513819,0.617184,0.691609
22560,7.912776,0.943316,2.806756,-1.754343,0.882106,0.570327
22561,7.767645,-1.370698,1.956004,-2.695910,1.132280,0.449748
22562,7.780095,-4.098017,2.258698,-3.189133,1.358717,0.356376
22563,7.775590,-5.871674,2.518437,-3.275817,1.484700,0.289093
22564,7.658499,-6.304989,2.854382,-3.179675,1.545902,0.284543
22565,6.693881,-6.200174,1.530246,-3.163810,1.463477,0.331955
22566,5.361634,-7.561199,0.515219,-3.046246,1.205909,0.433351
22567,5.050609,-10.380207,1.654980,-2.407288,0.931062,0.483721
22568,5.121332,-13.611591,3.097215,-1.111450,0.517440,0.541397
22569,6.048017,-15.388130,4.213953,0.640677,-0.010733,0.667341
22570,7.527723,-14.709686,4.034376,2.364357,-0.482937,0.906218
22571,8.588291,-12.657983,3.581473,3.769994,-0.755501,1.136214
22572,8.424069,-9.781252,2.507636,4.630419,-0.962936,1.290098
22573,8.417225,-6.863538,1.831821,4.883072,-1.095431,1.376196
22574,9.220183,-4.277885,2.923237,4.658370,-1.057708,1.363036
22575,9.530453,-1.501664,5.548641,4.077535,-0.720165,1.254095
22576,8.519086,0.994712,5.960290,3.022779,-0.317348,1.149793
22577,7.384887,1.804327,4.308854,1.719873,0.102148,0.976049
22578,6.991637,1.134863,3.160042,0.495082,0.535720,0.693074
22579,6.872229,-0.417713,2.828918,-0.458886,0.881169,0.410890
22580,6.582045,-1.643439,3.288765,-1.154688,1.110313,0.202092
22581,6.481320,-2.894141,4.081813,-1.742266,1.256523,0.132196
22582,6.522158,-4.526718,4.364645,-2.185985,1.327082,0.145762
22583,6.134873,-7.145224,3.228767,-2.326199,1.226525,0.249840
22584,5.436198,-10.186283,2.515344,-1.923591,0.919364,0.422165
22585,4.834056,-12.669357,3.299705,-0.905504,0.473453,0.584452
22586,5.721884,-14.563649,4.833657,0.572518,-0.001556,0.765909
22587,7.253240,-14.352127,5.280143,2.100491,-0.374519,0.996573
22588,7.808335,-11.908187,4.425793,3.257652,-0.591617,1.205959
22589,7.702782,-8.168953,4.313991,3.805267,-0.691073,1.302955
22590,8.012734,-4.738263,5.666539,3.726193,-0.574415,1.286805
22591,7.816851,-2.439975,7.517217,3.055460,-0.233660,1.221829
22592,6.922148,-1.302014,8.347907,1.977958,0.165175,1.113844
22593,6.510484,-0.934349,8.303925,0.869937,0.601402,0.911726
22594,6.420898,-0.625152,7.546487,-0.143662,1.064210,0.645045
22595,5.863348,-0.578535,6.335975,-0.996048,1.442943,0.364313
22596,5.714940,-1.282941,6.160930,-1.604140,1.764002,0.081934
22597,6.024448,-2.394834,6.033803,-2.091461,2.031481,-0.111602
22598,6.487941,-3.674845,5.489349,-2.532748,2.224603,-0.191285
22599,4.903978,-4.751200,2.107787,-3.123962,2.155416,-0.116824
22600,2.565683,-8.400614,-0.868496,-3.510399,1.763558,0.172912
22601,1.766108,-13.334260,0.524287,-2.929919,1.354557,0.346648
22602,2.025476,-16.586748,3.144336,-1.398549,0.722633,0.471309
22603,4.539662,-17.588803,6.552443,0.656197,0.195811,0.663562
22604,6.928153,-14.514322,8.564236,2.415292,-0.155941,0.908369
22605,7.959203,-10.599058,7.936093,3.343604,-0.309775,1.205998
22606,7.378617,-7.565391,6.662149,3.588262,-0.365386,1.395479
22607,6.735446,-5.412011,6.324463,3.391337,-0.336987,1.397592
22608,6.758800,-3.742245,7.352232,2.916521,-0.133287,1.281697
22609,5.905126,-1.750227,8.088750,2.178326,0.155011,1.132441
22610,4.998879,-0.055166,7.684890,1.217463,0.388054,1.007311
22611,5.001856,0.503169,6.060421,0.112135,0.668694,0.794272
22612,5.350081,-0.174287,3.341335,-0.931169,0.956112,0.505206
22613,5.496620,-1.768837,2.425579,-1.599402,1.210792,0.217583
22614,5.504786,-3.729141,2.953801,-1.859352,1.422835,-0.008765
22615,4.882645,-5.336064,2.618303,-1.968423,1.479509,-0.082910
22616,3.029314,-7.004532,0.672990,-2.107142,1.265293,0.046934
22617,1.804997,-9.582048,0.639464,-1.947080,0.924959,0.201768
22618,1.277370,-11.668644,1.987299,-1.302738,0.444260,0.290118
22619,3.109154,-13.728901,5.594544,-0.126087,-0.008458,0.463742
22620,4.585621,-13.799509,8.075445,1.235510,-0.371718,0.657026
22621,5.053023,-11.835796,8.114343,2.315529,-0.678967,0.934727
22622,4.152156,-9.381386,7.067917,2.954728,-0.913444,1.167228
22623,3.766107,-8.056559,6.100839,3.242261,-1.105540,1.264860
22624,4.457417,-7.622394,6.807011,3.447626,-1.103491,1.239026
22625,4.830536,-6.402548,9.402382,3.580825,-0.844808,1.178689
22626,3.591709,-3.569496,10.967277,3.299332,-0.549011,1.103238
22627,2.675916,-0.893937,9.158834,2.425219,-0.346762,0.963573
22628,3.943532,-0.756015,5.773312,1.246261,-0.018805,0.729697
22629,5.160207,-1.929981,4.968015,0.388133,0.494344,0.365739
22630,4.762590,-2.676223,6.246758,-0.090706,0.885404,0.034432
22631,4.308825,-2.917906,7.418395,-0.558688,1.173462,-0.152555
22632,3.583333,-3.285972,7.113943,-1.327233,1.352553,-0.178568
22633,2.351348,-5.789792,5.292937,-2.115617,1.232282,0.021973
22634,1.901437,-9.458699,4.670193,-2.402461,0.934652,0.259728
22635,1.971330,-12.694206,5.677874,-2.008829,0.558393,0.447442
22636,3.209913,-14.208510,9.014190,-1.032044,0.250082,0.620218
22637,4.030619,-13.957539,10.086320,0.201485,-0.016691,0.831187
22638,4.065780,-12.377882,8.652491,1.404282,-0.234127,1.060924
22639,3.539408,-9.889161,7.946690,2.269737,-0.362355,1.208015
22640,3.528415,-7.934328,7.979526,2.652870,-0.392430,1.243600
22641,4.055339,-6.795903,9.085681,2.700130,-0.242525,1.237277
22642,3.772630,-5.377919,10.304163,2.454165,-0.002141,1.205537
22643,2.783750,-3.480166,9.922543,1.811818,0.155170,1.139613
22644,3.301702,-2.752309,8.226802,0.946879,0.387913,1.025133
22645,4.300877,-2.791846,7.275661,0.165594,0.792206,0.802464
22646,4.692410,-2.276117,7.854632,-0.355845,1.267521,0.529477
22647,4.413394,-1.685676,8.184915,-0.830375,1.679660,0.323144
22648,3.885539,-1.483634,8.140307,-1.453027,2.066205,0.180418
22649,2.337288,-2.507775,6.579583,-2.263540,2.199815,0.195423
22650,0.545213,-4.824132,5.083220,-3.015394,2.045830,0.357511
22651,-0.557738,-8.697698,4.122988,-3.332267,1.735501,0.566056
22652,-0.428183,-13.120828,4.925853,-2.753204,1.378697,0.714679
22653,0.393887,-15.096205,7.168614,-1.431661,0.988322,0.780890
22654,1.699619,-14.129885,9.084665,0.009905,0.679446,0.887151
22655,2.069294,-11.058056,10.164006,1.073805,0.499252,1.028622
22656,1.769264,-9.071523,9.761653,1.585661,0.374771,1.195538
22657,1.427176,-8.750763,9.355350,1.913082,0.355868,1.272705
22658,1.254960,-8.618439,9.372447,2.170948,0.361610,1.268829
22659,1.402832,-7.594413,9.994716,2.289370,0.420851,1.223337
22660,1.288341,-5.587441,10.460717,2.063135,0.516930,1.177086
22661,0.736634,-3.420492,8.946254,1.479637,0.521361,1.072322
22662,1.195398,-2.818982,6.623020,0.797076,0.592902,0.900824
22663,1.617431,-3.554456,5.005060,0.305226,0.770824,0.698190
22664,1.827255,-4.359659,5.229988,0.106877,0.964176,0.548619
22665,1.636148,-4.275169,6.539379,-0.047664,1.161154,0.410368
22666,1.159828,-4.337044,6.917929,-0.354981,1.333995,0.337698
22667,-0.085169,-5.077990,6.141389,-0.752733,1.331592,0.368934
22668,-1.633665,-6.899571,5.285492,-1.027344,1.084266,0.483882
22669,-1.705728,-9.237477,6.601876,-0.851657,0.812746,0.574939
22670,-0.539071,-10.644426,8.602877,-0.295622,0.577608,0.624668
22671,0.327841,-10.556743,8.976092,0.408881,0.362041,0.727660
22672,-0.080831,-9.787747,7.966554,1.080840,0.114792,0.891073
22673,-0.514433,-9.484129,7.281268,1.756115,-0.154756,1.012106
22674,0.167299,-9.412334,7.591887,2.471396,-0.316467,1.045159
22675,0.690363,-8.505610,8.331666,3.101996,-0.339990,1.038395
22676,0.910093,-6.513238,9.524246,3.462295,-0.239803,1.036426
22677,0.836057,-3.905379,10.324360,3.283519,-0.062162,1.034796
22678,0.511046,-1.700955,8.922468,2.566741,0.070429,0.948820
22679,0.863938,-0.303742,6.429921,1.703031,0.266120,0.710889
22680,1.276253,0.276043,5.135600,1.024495,0.576578,0.429448
22681,1.179547,0.537981,6.173220,0.532560,0.886796,0.199072
22682,1.025353,1.049019,7.627511,-0.054043,1.176905,0.002347
22683,0.730177,1.249721,7.616389,-0.924828,1.397601,-0.075360
22684,-1.070896,-0.222525,6.464815,-1.978635,1.421050,-0.015117
22685,-2.175618,-4.335732,5.798155,-2.595675,1.235649,0.127048
22686,-2.493289,-8.619182,6.568144,-2.411235,0.952193,0.273513
22687,-1.850851,-11.357846,8.716152,-1.495526,0.647620,0.404134
22688,-0.883353,-11.677029,8.915777,-0.238828,0.362063,0.536972
22689,-0.801354,-10.455301,7.647570,1.083081,0.149014,0.683720
22690,-1.126123,-8.485296,6.751126,2.166888,-0.032300,0.768274
22691,-0.767850,-6.876882,6.872732,2.848892,-0.123707,0.789764
22692,-0.325689,-5.515640,7.402075,3.208861,-0.047439,0.750791
22693,-0.560651,-3.962362,8.054921,3.285425,0.047430,0.752543
22694,-1.349551,-0.800820,8.882706,3.036760,0.151914,0.626313
22695,-1.744521,2.947205,7.914285,2.411832,0.179102,0.403229
22696,-0.953982,4.946070,7.911806,1.456143,0.399290,0.174222
22697,-0.468008,5.288272,9.074298,0.303994,0.714855,-0.039300
22698,-0.179411,4.921776,9.284566,-0.974968,0.972667,-0.191403
22699,-0.227736,4.291102,9.635356,-2.298993,1.244697,-0.305956
22700,-0.281471,3.594266,9.919789,-3.652608,1.512727,-0.403746
22701,-0.102550,2.761935,8.732857,-5.046639,1.711101,-0.450498
22702,-0.556375,1.464191,6.540494,-6.377863,1.838325,-0.424480
22703,-3.275842,-0.804987,1.856293,-7.607448,1.688631,-0.277111
22704,-6.411843,-6.997110,-0.472298,-7.855913,1.265362,-0.101269
22705,-7.477855,-17.011307,1.682161,-6.225532,0.860600,-0.211727
22706,-5.965021,-28.825492,4.001114,-2.072352,0.445100,-0.489582
22707,-4.535386,-30.551067,3.463417,3.836279,-0.191204,-0.639851
22708,-4.267983,-19.670809,2.147600,8.800118,-0.863599,-0.672100
22709,-3.054277,-8.386685,2.993280,11.211869,-1.238072,-0.722686
22710,-1.571122,-1.848821,4.543762,11.510115,-1.281355,-0.728638
22711,-1.535429,3.220849,6.605489,10.434580,-1.209581,-0.693577
22712,-1.160684,9.109737,8.686764,8.325340,-1.069848,-0.680214
22713,-0.467213,13.601462,8.930696,5.367862,-0.647293,-0.840664
22714,0.103157,14.583286,9.411230,2.222947,-0.138534,-1.034014
22715,1.009248,13.455957,10.592035,-0.807996,0.262778,-1.192493
22716,1.237672,11.223386,9.593915,-3.671087,0.619592,-1.246041
22717,0.645193,7.219533,8.091696,-6.016663,0.909717,-1.189499
22718,-0.351311,1.102106,6.475578,-7.567497,1.128012,-1.071706
22719,-1.291783,-3.253895,4.965941,-8.188494,1.133781,-0.922448
22720,-2.290440,-6.710951,4.162261,-8.163534,1.026491,-0.729785
22721,-2.927830,-13.857596,4.174089,-7.109758,0.998979,-0.510171
22722,-3.195718,-21.227878,4.518499,-4.480036,0.806758,-0.415332
22723,-3.107869,-21.296931,4.471340,-0.979120,0.389863,-0.306047
22724,-2.927145,-14.444669,5.190571,1.774303,0.046583,-0.238605
22725,-2.474540,-7.401917,6.384220,2.991436,-0.127471,-0.230233
22726,-2.601237,-2.729810,7.985233,2.973544,-0.161186,-0.266404
22727,-2.734078,1.123419,9.978628,2.065201,-0.130530,-0.331716
22728,-2.109835,4.336073,10.907002,0.362490,0.000257,-0.400325
22729,-1.596634,6.124702,10.266579,-1.759001,0.237381,-0.468748
22730,-1.297237,7.472112,9.817749,-4.109254,0.457845,-0.529780
22731,-0.704004,8.477084,7.570079,-6.760458,0.723573,-0.594697
22732,0.265099,8.219595,3.900686,-9.497532,1.001491,-0.567356
22733,0.429090,5.301896,-0.452294,-12.101472,1.324540,-0.453057
22734,-0.094873,0.287390,-4.952029,-14.060075,1.589310,-0.260638
22735,-1.296178,-5.601926,-8.700331,-15.137395,1.639155,-0.017443
22736,-2.106791,-9.949014,-10.741353,-15.304497,1.496012,0.306365
22737,-2.655664,-12.008315,-11.873559,-14.913123,1.282078,0.646003
22738,-3.468342,-14.513370,-12.175512,-13.855798,1.094289,0.919716
22739,-5.186786,-21.489518,-11.824536,-11.432616,0.808948,0.949771
22740,-5.852975,-28.056742,-9.469460,-7.551555,0.482065,0.798019
22741,-5.688467,-27.719420,-6.918165,-3.072687,0.124990,0.520866
22742,-3.870326,-21.316491,-4.258192,0.541953,-0.193480,0.249413
22743,-2.478065,-14.413055,-1.977141,2.505808,-0.297091,0.047003
22744,-2.334931,-8.856855,-0.844501,2.974346,-0.286317,-0.041678
22745,-2.178192,-3.900882,0.921795,2.252323,-0.190605,-0.041930
22746,-2.010121,0.000988,1.111316,0.884820,0.034888,-0.088011
22747,-1.808747,1.325426,-0.072781,-0.715464,0.243291,-0.113259
22748,-1.661086,1.299342,-1.448600,-2.464649,0.479572,-0.020394
22749,-1.683455,0.082865,-3.864569,-4.164343,0.708262,0.103997
22750,-1.501207,-2.147345,-6.533215,-5.610528,0.893954,0.273148
22751,-2.455897,-4.628482,-8.814090,-6.688088,0.986582,0.503926
22752,-3.340158,-7.619935,-10.288966,-7.181079,0.937157,0.717757
22753,-4.922833,-12.707161,-11.366371,-6.622266,0.758206,0.786497
22754,-5.894588,-18.323817,-9.432040,-4.977839,0.490839,0.666254
22755,-4.992596,-20.385844,-5.190975,-2.692685,0.391571,0.526581
22756,-3.793326,-17.509140,-3.994991,-0.296539,0.271038,0.229742
22757,-3.163701,-11.830885,-3.913612,1.437378,0.160463,-0.082434
22758,-2.581218,-6.252133,-3.598216,1.848424,0.041556,-0.231581
22759,-1.801375,-3.226341,-3.217603,1.119548,0.073224,-0.168188
22760,-1.503562,-1.781184,-3.382773,-0.010569,0.207993,-0.090210
22761,-1.589440,-0.742671,-4.234737,-1.171530,0.350606,0.009437
22762,-1.736964,-0.798303,-6.065156,-2.225611,0.460307,0.095982
22763,-2.049574,-2.895445,-7.455908,-3.107635,0.606735,0.263748
22764,-2.724571,-4.357227,-8.566508,-3.821063,0.691762,0.466980
22765,-2.994790,-5.113474,-9.226686,-4.449050,0.744708,0.688317
22766,-3.493336,-5.612909,-9.096283,-4.772991,0.728194,0.749905
22767,-3.266502,-5.954234,-9.075387,-4.922210,0.692542,0.754097
22768,-2.880197,-6.620736,-8.288040,-4.970740,0.720513,0.767570
22769,-2.547922,-7.128219,-7.479438,-4.981400,0.775248,0.816652
22770,-2.554358,-6.076411,-7.267650,-4.680415,0.786046,0.729896
22771,-2.421671,-4.713194,-7.399638,-4.293007,0.763718,0.557645
22772,-2.464286,-4.591554,-7.835904,-3.849480,0.740516,0.398876
22773,-2.566459,-5.045135,-8.216317,-3.297837,0.683369,0.277966
22774,-2.741161,-4.825622,-8.477340,-2.670952,0.639364,0.173535
22775,-2.963479,-3.835701,-9.149475,-2.049532,0.586429,0.064670
22776,-3.267398,-3.840606,-10.209835,-1.404129,0.518647,-0.055222
22777,-3.200124,-4.613175,-10.417206,-0.816250,0.471490,-0.059869
22778,-2.880545,-4.216545,-10.098485,-0.394093,0.441762,0.015233
22779,-2.428857,-2.311367,-9.525080,-0.379046,0.417363,0.128876
22780,-2.210978,-0.560316,-9.217426,-0.744082,0.416683,0.193273
22781,-2.463440,-0.390623,-9.445939,-1.243266,0.412093,0.187238
22782,-2.919679,-1.943433,-9.979033,-1.505836,0.394104,0.157543
22783,-3.071236,-3.787357,-10.329857,-1.321771,0.290486,0.126509
22784,-2.820070,-4.341170,-10.458194,-0.815361,0.153046,0.093423
22785,-2.763542,-4.049304,-10.407256,-0.197565,0.001617,0.043962
22786,-2.712999,-4.396144,-10.386920,0.561148,-0.140057,-0.054996
22787,-3.158460,-6.285293,-10.428918,1.725882,-0.257157,-0.270566
22788,-3.492051,-8.540650,-11.335946,3.406820,-0.370129,-0.517055
22789,-4.134487,-11.096227,-13.070475,5.710979,-0.504781,-0.807243
22790,-4.173897,-13.333455,-14.295660,8.314776,-0.686723,-0.990211
22791,-3.299282,-13.382014,-15.068493,10.724113,-0.803634,-0.934636
22792,-2.852938,-10.424204,-15.603701,12.490556,-0.894499,-0.832538
22793,-2.915792,-6.889801,-14.991710,13.321775,-0.976070,-0.843508
22794,-2.728387,-1.989746,-12.646209,12.817664,-1.054587,-0.832410
22795,-1.387217,5.109995,-6.797289,10.125860,-0.931659,-0.517364
22796,-0.917093,9.708939,-1.279233,5.684286,-0.656848,-0.092770
22797,0.519158,9.278439,-0.207602,0.583594,-0.334998,0.381354
22798,0.023654,3.104161,-2.843449,-3.367110,0.074013,0.641573
22799,-1.191997,-3.309758,-5.335970,-5.481646,0.230928,0.749145
22800,-2.151080,-5.564794,-6.816373,-6.170767,0.335356,0.722576
22801,-2.339838,-6.803871,-7.668572,-6.181036,0.420173,0.608058
22802,-2.462837,-8.796561,-8.677411,-5.841675,0.538438,0.555806
22803,-3.432241,-11.486780,-10.644643,-4.791072,0.560756,0.427879
22804,-4.428322,-14.223582,-10.534038,-3.066420,0.435428,0.216528
22805,-4.074995,-12.491545,-8.418817,-1.317781,0.213671,0.071525
22806,-2.653643,-7.050184,-6.635629,-0.416104,0.064188,0.009794
22807,-2.228507,-2.352057,-5.446899,-0.710966,-0.002145,0.006255
22808,-2.085365,-1.347628,-5.262978,-1.558977,-0.025392,0.025959
22809,-1.937902,-3.172030,-5.963060,-2.182630,-0.059787,0.030472
22810,-2.173600,-5.073883,-6.380435,-2.361714,-0.087392,0.041584
22811,-2.361461,-6.202149,-7.526635,-2.215667,-0.214609,0.070403
22812,-3.124539,-7.654864,-9.031402,-1.608014,-0.349058,0.047246
22813,-3.756495,-8.701530,-9.831067,-0.515239,-0.546962,-0.048205
22814,-4.027370,-9.395383,-10.546423,1.078314,-0.765198,-0.237289
22815,-4.159152,-10.891652,-11.163851,3.052036,-0.987855,-0.457085
22816,-4.015126,-13.042558,-11.597349,5.388445,-1.176730,-0.669440
22817,-3.440119,-12.727192,-12.001963,7.733575,-1.354670,-0.775854
22818,-2.984392,-11.196440,-11.732104,9.833732,-1.485654,-0.891883
22819,-2.608952,-8.943354,-10.058013,11.145236,-1.541863,-0.916577
22820,-2.264911,-6.089202,-8.200735,11.545739,-1.461210,-0.852991
22821,-2.834949,-2.000410,-5.926850,10.688401,-1.410658,-0.761997
22822,-2.828948,3.087826,-1.427367,7.978831,-1.342572,-0.394900
22823,-1.811197,4.467053,2.711832,4.234770,-1.104017,-0.104787
22824,-0.482180,2.204187,4.924447,0.381481,-0.610691,0.218868
22825,-0.707981,0.311124,4.655319,-2.557832,-0.029970,0.363061
22826,-1.445461,-0.770468,3.253937,-4.550142,0.524021,0.332125
22827,-2.428538,-2.429101,0.732718,-5.864507,0.926442,0.143179
22828,-2.903828,-4.871622,-2.586927,-6.524063,1.192623,-0.067170
22829,-3.403352,-8.439433,-6.299925,-6.243643,1.339215,-0.338917
22830,-3.953358,-13.769215,-8.746315,-4.828569,1.347746,-0.609639
22831,-5.132224,-21.103534,-9.500415,-1.918657,1.186620,-0.915506
22832,-4.734996,-26.765305,-8.794746,2.028099,0.746917,-1.125462
22833,-3.190159,-24.891730,-8.841227,6.129119,0.311311,-1.220991
22834,-2.649143,-16.631043,-8.589291,9.110802,-0.066490,-1.249344
22835,-2.722511,-8.875188,-7.321859,10.394031,-0.328622,-1.143665
22836,-2.663052,-4.618589,-5.142932,10.313470,-0.487013,-0.921161
22837,-2.467628,-1.570628,-2.387145,9.103903,-0.680944,-0.607403
22838,-1.664508,1.729236,2.051512,6.739265,-0.757529,-0.137964
22839,-0.642398,2.640364,3.883814,3.760364,-0.597548,0.167259
22840,-0.776187,-0.311028,3.463799,0.995032,-0.295633,0.367818
22841,-1.360945,-6.663630,1.305030,-0.476058,-0.079136,0.434476
22842,-2.209055,-14.320889,-0.414381,-0.226102,0.102948,0.376247
22843,-3.638149,-22.616841,-2.594368,1.731605,0.120260,0.251126
22844,-4.206108,-26.816316,-4.365598,4.935860,-0.253072,0.135351
22845,-2.831351,-24.155089,-5.127629,8.435658,-0.614728,0.069168
22846,-1.799080,-17.910021,-5.031966,11.183199,-0.798690,0.031580
22847,-1.767142,-11.862287,-4.437920,12.814446,-0.872527,0.056387
22848,-1.630849,-6.599358,-2.778251,13.353192,-0.891419,0.107393
22849,-0.915263,-3.004765,-0.170936,12.926095,-0.805248,0.262037
22850,-0.949402,-0.687408,2.655118,11.885429,-0.633578,0.413293
22851,-1.685199,1.325397,5.305608,10.438410,-0.470626,0.522864
22852,-2.135262,3.495889,7.647542,8.501580,-0.391771,0.613165
22853,-1.817964,3.428335,9.272488,6.205506,-0.226591,0.726756
22854,-1.425860,0.138673,9.029826,4.252411,-0.054904,0.786806
22855,-1.578403,-2.473534,7.900074,3.286856,-0.038060,0.765496
22856,-1.592507,-2.242381,7.334725,3.024745,-0.074395,0.700668
22857,-1.850640,-0.644575,7.276152,2.819272,-0.045024,0.625911
22858,-2.175407,-0.720367,7.235808,2.581195,0.030111,0.567859
22859,-2.168630,-3.417760,7.728188,2.623756,0.136981,0.540055
22860,-2.301122,-6.678007,7.950043,3.314590,0.178399,0.478007
22861,-2.183681,-5.948876,7.758942,4.409306,-0.002106,0.469697
22862,-2.145463,-0.258968,8.927004,4.907289,-0.159955,0.447760
22863,-2.454189,6.400663,10.565015,3.985089,-0.197166,0.451033
22864,-2.291020,8.975797,11.673424,1.872314,-0.104187,0.494481
22865,-2.138206,7.228399,11.639269,-0.303453,0.075342,0.481275
22866,-2.562480,4.922135,10.716900,-1.978924,0.089166,0.478106
22867,-2.265318,3.917398,10.262698,-3.313138,0.056974,0.482133
22868,-2.357997,3.371497,9.709002,-4.522034,0.014310,0.421498
22869,-2.357649,3.580407,9.474748,-5.829543,-0.086349,0.437977
22870,-2.088749,4.790078,9.203432,-7.587709,-0.149026,0.518071
22871,-2.163889,5.317997,7.894740,-9.859893,-0.138098,0.648216
22872,-2.479677,2.719502,6.588751,-12.001747,0.008310,0.697468
22873,-2.612316,-0.979906,4.136016,-13.491395,0.126749,0.716016
22874,-2.704398,-5.687977,1.795240,-13.911825,0.156547,0.774856
22875,-3.060540,-10.103026,0.193947,-13.157225,0.031838,0.778821
22876,-2.941883,-16.436834,-1.954615,-10.709044,-0.019490,0.722950
22877,-4.046002,-27.209619,-4.018607,-5.789925,-0.005883,0.383899
22878,-5.252550,-31.547934,-3.261364,0.244703,-0.567893,0.045235
22879,-2.143930,-27.548479,-3.404405,5.724601,-0.891772,0.010284
22880,-1.751057,-18.374347,-2.195074,9.280630,-1.124474,0.071863
22881,-1.303326,-8.890241,0.030056,10.728280,-1.207534,0.246121
22882,-1.551656,-2.322026,2.351075,10.617699,-1.176498,0.389876
22883,-1.438036,0.677454,4.676343,9.662151,-0.962799,0.498813
22884,-1.319685,2.547870,7.078076,8.357276,-0.744987,0.534951
22885,-1.784768,3.949271,8.560425,6.829403,-0.514587,0.444548
22886,-2.373163,6.270991,10.832367,4.808015,-0.427405,0.389571
22887,-1.837387,6.288517,11.575456,2.451782,-0.245513,0.291932
22888,-1.714710,2.633813,10.707262,0.406726,-0.099586,0.205074
22889,-2.031782,-1.539011,8.943441,-0.640137,-0.053407,0.128188
22890,-2.263016,-5.186346,7.426518,-0.560401,-0.037759,0.023833
22891,-2.192518,-7.092307,6.866791,0.226774,-0.132134,-0.045571
22892,-1.742122,-7.972704,6.499031,1.436442,-0.213324,-0.041084
22893,-1.913971,-7.361163,6.280217,2.763554,-0.336943,-0.000463
22894,-1.979539,-5.786734,6.316750,3.884420,-0.475333,0.066163
22895,-1.722185,-3.836505,6.258183,4.590933,-0.557787,0.176328
22896,-1.583781,-2.005400,6.104892,4.903255,-0.614196,0.301713
22897,-1.282592,-0.062706,6.188267,4.849264,-0.660698,0.409769
22898,-1.175735,2.565726,6.860192,4.334128,-0.703552,0.523127
22899,-1.017496,4.444245,7.683271,3.366799,-0.687579,0.589484
22900,-1.415858,4.957582,8.326882,2.244429,-0.628623,0.615338
22901,-1.558517,4.748507,9.086371,1.180648,-0.597806,0.629540
22902,-1.171603,2.976261,8.584497,0.320646,-0.533972,0.614231
22903,-1.265152,-0.155530,7.451700,0.088589,-0.469274,0.598570
22904,-1.562064,-1.940269,7.386284,0.564811,-0.522512,0.542913
22905,-1.350178,-1.313229,7.749878,1.219444,-0.626903,0.531593
22906,-1.233700,0.876247,8.435385,1.525181,-0.710238,0.588095
22907,-1.046882,3.029010,8.893313,1.349530,-0.718242,0.615053
22908,-0.881024,4.265217,9.318904,0.806101,-0.674100,0.628646
22909,-1.008648,4.627285,9.622989,0.098699,-0.622619,0.588847
22910,-1.118147,5.466136,10.356210,-0.708595,-0.617906,0.493635
22911,-0.739952,6.046583,10.698646,-1.679599,-0.546247,0.337300
22912,-0.501167,6.949083,11.307762,-2.857883,-0.485232,0.212860
22913,0.272653,7.830829,11.757856,-4.311735,-0.309977,0.048360
22914,0.600149,9.054661,11.620883,-6.113848,-0.096578,-0.084599
22915,1.662892,9.998469,10.467872,-8.350422,0.231754,-0.191715
22916,2.045229,9.857575,7.002342,-10.820883,0.611888,-0.312818
22917,0.644208,5.485805,1.010263,-12.957683,0.803201,-0.349322
22918,-0.739123,-3.404662,-1.422947,-13.444198,0.963242,-0.549446
22919,-1.788905,-16.772613,-3.203579,-11.582556,0.998293,-0.815040
22920,-4.162676,-29.277879,0.278232,-6.876150,0.624750,-1.143882
22921,-2.463205,-30.194048,3.012044,-1.044788,-0.317155,-1.212881
22922,-0.713889,-20.553557,5.462438,3.476248,-0.931447,-1.069792
22923,-0.880556,-10.946132,6.981452,5.691268,-1.306373,-0.808130
22924,-0.490967,-5.277713,7.659961,6.059886,-1.476856,-0.458334
22925,-0.240489,-1.707878,8.052495,5.289674,-1.481342,-0.195339
22926,0.328950,0.023974,8.269176,3.845941,-1.339286,-0.064534
22927,0.823052,1.998912,9.017607,2.131903,-1.046808,-0.086786
22928,1.370055,3.689910,9.815080,0.355787,-0.670837,-0.224084
22929,1.711151,4.076264,10.281337,-1.462876,-0.282589,-0.295856
22930,1.981833,2.765409,9.553089,-3.153216,0.071730,-0.329538
22931,0.887548,-0.152738,7.057133,-4.599573,0.192548,-0.285649
22932,-0.688669,-5.237873,5.961823,-5.109246,0.189798,-0.365462
22933,-0.796598,-10.229540,6.421595,-4.456337,0.041637,-0.542323
22934,-0.254405,-13.663861,6.767882,-2.950217,-0.218184,-0.646114
22935,0.165370,-13.936523,6.201568,-1.162632,-0.542165,-0.612295
22936,-0.032150,-12.266308,5.316692,0.381860,-0.903767,-0.525222
22937,0.366157,-10.520476,5.747211,1.579905,-1.192301,-0.449839
22938,1.168156,-8.664901,7.028536,2.405663,-1.338825,-0.361571
22939,0.918117,-6.757405,7.801895,2.809641,-1.366659,-0.252574
22940,0.702631,-5.465082,8.473128,2.852110,-1.306431,-0.119759
22941,0.806485,-4.018303,9.361655,2.611519,-1.198509,-0.061951
22942,0.836023,-2.079914,9.523036,2.061452,-1.068843,-0.094454
22943,1.116476,-0.848315,9.022056,1.293402,-0.937602,-0.187421
22944,1.758437,-0.410924,8.619789,0.454291,-0.782891,-0.335373
22945,2.264338,-0.973813,8.701980,-0.387069,-0.623310,-0.521125
22946,2.560377,-1.818355,9.256698,-1.127476,-0.463272,-0.689302
22947,2.360195,-3.326540,9.630011,-1.775122,-0.308393,-0.822457
22948,1.591688,-4.921047,8.165070,-2.217704,-0.265036,-0.915932
22949,-0.001604,-7.632160,5.532291,-2.298335,-0.462045,-0.907198
22950,-0.217000,-11.774666,5.917131,-1.430136,-0.632370,-0.950637
22951,1.197913,-15.093522,7.008856,0.299957,-0.863942,-0.952891
22952,2.848452,-14.942603,7.131858,2.330881,-1.148924,-0.855016
22953,3.245345,-11.354926,7.098013,3.907211,-1.405701,-0.642400
22954,3.374758,-7.155798,7.765155,4.659459,-1.550031,-0.373040
22955,3.233877,-4.223395,8.764767,4.726094,-1.523972,-0.190502
22956,2.267920,-1.435580,9.836811,4.433636,-1.387800,-0.204694
22957,1.160073,1.409773,10.876317,3.796415,-1.188703,-0.338563
22958,0.909442,2.438993,11.053551,2.767445,-0.963932,-0.505148
22959,1.351058,2.986683,11.008436,1.626484,-0.735264,-0.763857
22960,1.924886,3.468995,11.110245,0.376236,-0.545565,-1.083632
22961,2.822642,3.086459,11.028039,-1.018390,-0.412801,-1.349951
22962,4.132895,1.247225,10.573419,-2.402357,-0.267287,-1.493787
22963,4.504090,-1.925697,8.994100,-3.483970,-0.174425,-1.500268
22964,3.835981,-6.012128,7.625544,-3.870838,-0.146470,-1.419400
22965,3.202157,-9.948486,6.790114,-3.370232,-0.268738,-1.338953
22966,3.478433,-13.001739,6.585853,-2.102070,-0.484250,-1.192356
22967,4.167557,-14.389054,6.902312,-0.428739,-0.728271,-0.951048
22968,4.802330,-13.839205,6.614897,1.157390,-1.004189,-0.588913
22969,5.053339,-11.370530,6.123765,2.284708,-1.238562,-0.206178
22970,4.989855,-8.087175,6.000186,2.772527,-1.391578,0.110866
22971,4.805511,-5.175019,6.602103,2.740824,-1.437242,0.322970
22972,4.249171,-2.842993,8.019197,2.390459,-1.325592,0.408580
22973,3.015488,-1.560616,8.631267,1.813144,-1.160882,0.413543
22974,2.403473,-1.572132,8.695959,1.175301,-0.991272,0.365332
22975,2.556026,-1.659493,8.969096,0.610702,-0.851401,0.242687
22976,3.177348,-1.242296,9.515191,0.077974,-0.724314,0.071153
22977,3.799383,-0.748673,9.878166,-0.485394,-0.563332,-0.106222
22978,4.163557,-0.901793,9.414478,-1.084939,-0.421379,-0.261377
22979,4.090803,-1.570837,8.496497,-1.607310,-0.339964,-0.381633
22980,3.864263,-2.795000,7.409588,-1.998767,-0.355033,-0.451137
22981,3.913083,-4.680639,6.596697,-2.095341,-0.447806,-0.499384
22982,4.040974,-6.761372,6.253561,-1.829955,-0.592527,-0.497956
22983,4.474679,-8.662555,6.094548,-1.181166,-0.803311,-0.415095
22984,5.005406,-9.491413,6.410838,-0.231097,-1.025288,-0.294011
22985,5.406943,-9.087093,6.693736,0.754416,-1.245098,-0.124161
22986,5.726984,-7.462843,6.582798,1.550970,-1.415462,0.046159
22987,5.231049,-4.451721,6.487691,1.965758,-1.554038,0.148457
22988,4.796942,-1.137694,7.087283,1.818439,-1.618681,0.164005
22989,4.740561,1.136011,7.990260,1.151405,-1.546412,0.042122
22990,5.091736,2.886720,8.921187,0.079639,-1.380664,-0.160778
22991,5.564586,3.903518,9.021911,-1.322704,-1.103104,-0.465092
22992,5.932634,3.959926,7.875616,-2.810614,-0.783461,-0.804159
22993,6.157588,3.045411,6.419514,-4.120740,-0.462502,-1.149610
22994,6.301351,1.589589,5.506454,-5.129948,-0.191262,-1.440189
22995,6.127665,-1.345865,4.242020,-5.687617,0.016952,-1.630756
22996,5.230570,-5.979287,1.236235,-5.586264,-0.025194,-1.719691
22997,4.786870,-11.318572,1.107390,-4.385513,-0.257241,-1.744222
22998,5.101298,-14.890226,4.168976,-2.389992,-0.582910,-1.707234
22999,6.813661,-15.644365,6.514459,-0.192314,-1.002702,-1.576730
23000,8.687885,-12.983141,7.382417,1.563937,-1.325318,-1.300167
23001,9.122294,-9.554786,7.270751,2.471444,-1.515596,-0.896543
23002,8.977975,-6.189454,6.368946,2.567596,-1.636847,-0.513399
23003,8.707247,-3.395832,5.294264,2.064729,-1.708290,-0.237168
23004,8.676443,-2.560874,5.187332,1.291797,-1.591004,-0.129212
23005,7.824750,-2.171544,6.041080,0.538226,-1.402525,-0.153748
23006,6.723867,-1.385388,7.467338,-0.176082,-1.195324,-0.265794
23007,6.229012,-1.481675,8.553648,-0.914879,-0.928452,-0.427330
23008,6.156323,-2.097516,8.777678,-1.562593,-0.683085,-0.624329
23009,6.290880,-2.626709,9.033774,-2.042864,-0.472906,-0.815935
23010,7.328588,-3.591600,8.939777,-2.431050,-0.282717,-0.948469
23011,7.976144,-5.276233,7.822557,-2.662078,-0.116252,-0.980443
23012,8.071953,-7.603348,5.852659,-2.647163,-0.114417,-0.855928
23013,8.307293,-10.393792,5.549877,-2.081827,-0.197067,-0.623680
23014,8.775214,-11.938391,5.981786,-1.083147,-0.362181,-0.329503
23015,9.517279,-11.411973,6.313237,0.068586,-0.574471,-0.007212
23016,10.289529,-9.691799,6.677922,0.953127,-0.678056,0.326120
23017,10.648206,-8.795305,6.519377,1.438046,-0.711763,0.703564
23018,10.550775,-7.619612,6.097140,1.636240,-0.715395,1.022988
23019,10.054352,-6.438402,5.781910,1.603702,-0.671898,1.228665
23020,8.412862,-4.126847,5.226221,1.490053,-0.648640,1.243130
23021,5.960339,0.129147,4.771641,1.238926,-0.694950,0.959554
23022,4.141664,1.958006,4.461158,0.735540,-0.682906,0.610185
23023,3.129592,1.033796,4.552882,0.241679,-0.740130,0.274794
23024,3.364354,-1.581261,5.318313,0.057861,-0.726970,-0.117279
23025,3.877163,-3.894706,6.288108,0.249559,-0.651417,-0.486062
23026,4.406903,-4.129961,6.970404,0.545033,-0.585279,-0.814779
23027,5.025278,-2.631552,7.293246,0.627505,-0.470211,-1.085939
23028,5.499021,-1.365105,6.765598,0.289611,-0.342943,-1.262707
23029,6.229247,-2.102911,5.948128,-0.231227,-0.236291,-1.311676
23030,7.173063,-4.352327,5.046995,-0.554174,-0.181256,-1.290800
23031,7.747328,-6.476317,4.163611,-0.517227,-0.243496,-1.219528
23032,8.282611,-7.033828,3.569561,-0.207747,-0.413282,-1.081136
23033,9.230167,-7.209782,3.182408,0.182547,-0.569763,-0.884226
23034,10.345988,-8.211493,3.242105,0.633717,-0.643052,-0.636670
23035,10.688538,-9.131625,3.229016,1.189275,-0.721824,-0.345141
23036,10.243953,-8.707799,2.903203,1.747500,-0.872048,-0.023384
23037,9.309441,-6.295491,2.756090,2.052655,-1.023041,0.182092
23038,7.975443,-3.854034,2.547034,1.983841,-1.119769,0.272601
23039,6.755111,-0.765076,3.021338,1.694893,-1.218608,0.145927
23040,6.200241,0.170434,4.317645,1.162050,-1.187944,-0.036357
23041,6.267707,-1.001183,5.381065,0.695668,-1.119875,-0.186794
23042,6.433713,-2.738781,5.774515,0.479074,-1.082270,-0.328550
23043,6.375400,-4.158909,5.629257,0.459832,-1.039774,-0.423555
23044,5.979222,-4.668532,4.694342,0.439928,-1.077467,-0.465174
23045,6.369232,-5.011961,3.990118,0.477212,-1.088537,-0.531894
23046,6.922869,-4.580548,3.794476,0.625225,-1.031309,-0.652238
23047,7.227324,-2.971091,4.169496,0.780625,-0.964366,-0.809590
23048,7.834923,-1.730489,4.609079,0.812707,-0.845255,-0.970114
23049,8.388037,-1.234350,4.648209,0.723709,-0.692358,-1.110179
23050,8.759030,-1.181131,4.331102,0.549718,-0.562735,-1.205682
23051,9.079133,-1.505368,4.077001,0.310856,-0.460785,-1.248825
23052,9.453489,-1.979111,3.798767,0.046393,-0.385449,-1.252523
23053,9.667292,-2.321671,3.730950,-0.195789,-0.368730,-1.196245
23054,9.922255,-2.206937,3.861489,-0.438807,-0.397340,-1.100160
23055,10.144561,-1.817442,3.866898,-0.705261,-0.419305,-0.993574
23056,10.216085,-1.112046,3.945581,-1.040266,-0.424974,-0.944931
23057,10.188598,-1.159142,3.883866,-1.398204,-0.406165,-0.920715
23058,10.213498,-1.549914,3.964114,-1.708236,-0.376192,-0.897595
23059,10.168018,-2.153590,4.043351,-1.941679,-0.343672,-0.873765
23060,9.971841,-2.164042,3.992910,-2.112972,-0.320954,-0.856532
23061,9.547142,-1.568107,3.753691,-2.296769,-0.319633,-0.861482
23062,9.318508,-1.035633,3.456964,-2.533440,-0.311270,-0.873453
23063,9.431890,-1.355140,3.201653,-2.745917,-0.277645,-0.873916
23064,9.563078,-2.336042,2.955407,-2.792146,-0.234836,-0.862912
23065,9.673401,-3.725108,2.790797,-2.597540,-0.198786,-0.839852
23066,9.635921,-4.703698,2.610720,-2.182897,-0.199145,-0.806994
23067,9.674086,-4.970484,2.570808,-1.682918,-0.231599,-0.744599
23068,9.732482,-4.899710,2.612787,-1.186517,-0.277226,-0.643259
23069,9.769174,-4.518989,2.754938,-0.730926,-0.320764,-0.534421
23070,9.911246,-4.189315,3.158359,-0.334848,-0.349735,-0.414933
23071,9.907719,-3.405634,3.810986,-0.032675,-0.358040,-0.288638
23072,9.719424,-0.853991,5.189523,-0.123583,-0.328479,-0.192862
23073,10.112661,0.667684,6.414193,-0.760231,-0.186975,-0.082375
23074,9.995187,-1.686508,6.274392,-1.305842,-0.033849,0.064999
23075,9.573890,-3.563751,5.945552,-1.197954,-0.037354,0.121554
23076,9.145916,-3.420339,5.671731,-0.896902,-0.099362,0.088311
23077,9.586388,-2.887021,4.855880,-0.599981,-0.113398,0.015561
23078,9.997203,-2.853401,4.005090,-0.432571,-0.023059,-0.019925
23079,9.698741,-3.160235,3.364504,-0.284513,0.050485,-0.028370
23080,9.524262,-3.561562,3.068394,-0.109302,0.075133,-0.009864
23081,9.590844,-3.847826,2.824553,0.129386,0.069704,0.021961
23082,9.573250,-4.062225,2.472157,0.412601,0.048652,0.059934
23083,9.394660,-4.029789,2.183821,0.725402,0.014876,0.121938
23084,8.975657,-3.214053,2.307322,0.928459,0.001800,0.143513
23085,8.984925,-2.411970,2.432626,0.944420,0.008959,0.160282
23086,9.074070,-2.030816,2.559321,0.809337,0.029485,0.183902
23087,9.117757,-1.806100,2.629413,0.628090,0.053054,0.216823
23088,9.199333,-1.696760,2.700833,0.406565,0.076006,0.245272
23089,9.286350,-1.716583,2.658548,0.168048,0.104577,0.285514
23090,9.252572,-1.721178,2.517026,-0.065203,0.117759,0.299788
23091,9.144223,-1.669152,2.284405,-0.300410,0.123981,0.311060
23092,9.087833,-1.731663,2.120999,-0.520973,0.115476,0.306292
23093,9.126417,-1.926080,2.015210,-0.703179,0.110458,0.297318
23094,9.130138,-2.274696,1.920257,-0.817143,0.113350,0.280543
23095,9.077379,-2.615546,1.917953,-0.856122,0.099611,0.271813
23096,9.011246,-2.762795,1.854964,-0.834634,0.088571,0.248234
23097,8.969261,-3.028340,1.881048,-0.762594,0.075695,0.227242
23098,8.893402,-3.219503,1.865061,-0.626414,0.051152,0.207700
23099,8.884860,-3.247525,1.957329,-0.433847,0.016343,0.193943
23100,8.966766,-3.084511,2.088112,-0.243562,-0.029225,0.175107
23101,9.057484,-2.751396,2.290299,-0.090296,-0.058879,0.151986
23102,9.201108,-2.605696,2.481760,0.015844,-0.088585,0.136021
23103,9.313181,-2.424207,2.700561,0.095828,-0.117463,0.135666
23104,9.461730,-1.935310,2.959174,0.132165,-0.144229,0.120366
23105,9.519492,-1.440579,3.164420,0.079463,-0.128996,0.094560
23106,9.568579,-1.204434,3.239157,-0.021734,-0.108808,0.068564
23107,9.573136,-1.080570,3.223802,-0.158818,-0.089470,0.027370
23108,9.608441,-1.121958,3.186038,-0.311406,-0.058977,-0.014355
23109,9.657308,-1.375594,3.035306,-0.450472,-0.016296,-0.066545
23110,9.616858,-1.680949,2.844119,-0.560812,0.025980,-0.116990
23111,9.549825,-1.877576,2.687407,-0.656558,0.059466,-0.156920
23112,9.489419,-2.039110,2.603483,-0.733119,0.091600,-0.180651
23113,9.430679,-2.235413,2.477349,-0.788089,0.105444,-0.208367
23114,9.332100,-2.650422,2.236771,-0.801977,0.111841,-0.222393
23115,9.270094,-2.876598,2.134211,-0.767191,0.097401,-0.233203
23116,9.215403,-3.069902,2.102508,-0.717466,0.076512,-0.231847
23117,9.152184,-3.186286,2.117419,-0.646338,0.046267,-0.227409
23118,9.052673,-3.246946,2.111447,-0.561441,0.011019,-0.226223
23119,9.041828,-3.164585,2.218029,-0.484568,-0.011988,-0.235078
23120,9.061308,-3.315615,2.278522,-0.430296,-0.020303,-0.228638
23121,9.053015,-3.539301,2.242330,-0.342625,-0.034631,-0.219279
23122,8.972280,-3.545373,2.225706,-0.242297,-0.048245,-0.212767
23123,8.936549,-3.514449,2.226754,-0.144215,-0.053738,-0.194880
23124,8.963398,-3.052855,2.349901,-0.116323,-0.052075,-0.185310
23125,9.077063,-2.961227,2.422985,-0.157488,-0.042384,-0.161255
23126,9.138279,-2.849940,2.475216,-0.201288,-0.033710,-0.135064
23127,9.211805,-2.807762,2.565758,-0.266960,-0.022326,-0.113855
23128,9.331260,-3.067403,2.642491,-0.291540,-0.016205,-0.084755
23129,9.359392,-3.154205,2.647199,-0.248417,0.004794,-0.063724
23130,9.379965,-3.182511,2.649931,-0.195849,0.023366,-0.041912
23131,9.387751,-3.179269,2.575147,-0.129271,0.041582,-0.012293
23132,9.334299,-3.061246,2.521897,-0.062027,0.052420,0.016024
23133,9.316957,-2.803655,2.419029,-0.017002,0.048479,0.044105
23134,9.262846,-2.485318,2.391210,-0.002228,0.048658,0.067065
23135,9.322142,-2.340429,2.322441,-0.014305,0.043283,0.076075
23136,9.334975,-2.297755,2.314650,-0.039044,0.040852,0.090901
23137,9.369059,-2.317502,2.271179,-0.071968,0.037416,0.095666
23138,9.408807,-2.449253,2.202715,-0.090946,0.028819,0.081004
23139,9.417549,-2.531889,2.149757,-0.096563,0.027784,0.073302
23140,9.365399,-2.602521,2.057667,-0.082193,0.023350,0.059210
23141,9.386527,-2.564869,2.079956,-0.069964,0.019693,0.048090
23142,9.397071,-2.591189,2.055171,-0.075052,0.020969,0.039044
23143,9.347743,-2.553068,2.019964,-0.082607,0.018342,0.024374
23144,9.366709,-2.532094,2.056730,-0.098281,0.026354,0.019271
23145,9.373755,-2.490100,2.118164,-0.122056,0.023269,0.006343
23146,9.344968,-2.621708,2.186068,-0.140279,0.026366,0.000082
23147,9.367195,-2.679084,2.240861,-0.152985,0.035091,0.002706
23148,9.289226,-2.722567,2.211728,-0.157188,0.038990,-0.000033
23149,9.269291,-2.698518,2.203009,-0.168761,0.042826,0.000028
23150,9.283277,-2.703887,2.163286,-0.188969,0.055536,0.008843
23151,9.268702,-2.740866,2.159129,-0.200151,0.060144,0.014298
23152,9.253706,-2.778930,2.155192,-0.216779,0.071877,0.026232
23153,9.291616,-2.874287,2.127504,-0.217970,0.066326,0.033428
23154,9.234631,-2.976676,2.153834,-0.209427,0.074291,0.043534
23155,9.265036,-3.065534,2.093568,-0.180339,0.074775,0.051283
23156,9.268578,-3.081471,2.128509,-0.137024,0.072354,0.056858
23157,9.289206,-2.993661,2.184854,-0.095577,0.068910,0.053221
23158,9.271257,-2.901207,2.196864,-0.072579,0.070973,0.053317
23159,9.300963,-2.852140,2.244107,-0.055883,0.072576,0.054704
23160,9.355845,-2.791705,2.271615,-0.047137,0.076891,0.059134
23161,9.386132,-2.691223,2.350279,-0.060264,0.085074,0.056548
23162,9.439929,-2.682957,2.348677,-0.079636,0.088314,0.054101
