// Start Time: Unknown
// Update Rate: 100.0Hz
// Filter Profile: human (46.1)
// Firmware Version: 4.3.5
PacketCounter,Acc_X,Acc_Y,Acc_Z,Gyr_X,Gyr_Y,Gyr_Z
59249,9.621461,-1.502202,1.442936,0.085085,0.031849,-0.000791
59250,9.558424,-1.424066,1.298816,0.008852,0.018993,-0.003157
59251,9.582742,-1.473561,1.202902,-0.066934,0.016778,-0.008707
59252,9.584415,-1.526487,1.113304,-0.133784,0.005103,-0.011360
59253,9.581253,-1.544957,1.095354,-0.182532,0.008682,-0.014941
59254,9.525156,-1.431431,1.051234,-0.240589,-0.001423,-0.022265
59255,9.539331,-1.360841,0.891808,-0.326542,-0.014948,-0.020054
59256,9.611495,-1.335041,0.877009,-0.422148,-0.024243,-0.015782
59257,9.653865,-1.470767,0.786589,-0.510734,-0.013361,-0.011003
59258,9.795107,-1.790700,1.124292,-0.590637,0.010155,-0.001459
59259,9.857279,-2.298931,1.309676,-0.622535,0.042152,0.018177
59260,9.745964,-2.365582,1.559663,-0.569953,0.060596,0.025320
59261,9.727711,-2.347637,1.667927,-0.527963,0.071731,0.026973
59262,9.606129,-2.582616,1.597669,-0.450585,0.071008,0.042423
59263,9.576460,-2.859447,1.623443,-0.323323,0.052160,0.042503
59264,9.616522,-2.997443,1.534740,-0.139945,0.045135,0.043371
59265,9.693448,-2.820344,1.618559,0.038405,0.032231,0.037273
59266,9.682457,-2.577154,1.552682,0.152516,0.021863,0.048182
59267,9.603508,-2.341372,1.437503,0.212356,0.006743,0.063307
59268,9.536021,-2.106801,1.352391,0.218751,-0.028661,0.081857
59269,9.571648,-2.034946,1.266399,0.176228,-0.047188,0.097478
59270,9.552861,-1.960442,1.323070,0.130525,-0.082592,0.116264
59271,9.703405,-1.821658,1.589533,0.031055,-0.118986,0.147838
59272,9.768580,-2.185576,1.777906,-0.134877,-0.103555,0.195203
59273,9.797989,-2.773626,1.558137,-0.217857,-0.069599,0.251411
59274,10.017974,-2.947602,1.469061,-0.223624,-0.027777,0.315886
59275,10.132284,-2.540842,1.544645,-0.313056,0.023927,0.406689
59276,10.182070,-2.192884,1.720579,-0.511408,0.083334,0.482356
59277,10.138637,-2.343321,1.672445,-0.718726,0.131569,0.535993
59278,9.991904,-2.902334,1.484597,-0.819863,0.164520,0.570287
59279,9.779642,-3.622527,1.285826,-0.766629,0.162854,0.599198
59280,9.696291,-4.281802,1.199167,-0.595810,0.143035,0.617415
59281,9.651431,-4.700890,1.254372,-0.310836,0.120279,0.617987
59282,9.875848,-4.554626,1.547117,0.009366,0.097211,0.599609
59283,10.141197,-4.163200,1.886772,0.260138,0.070375,0.609970
59284,10.242495,-3.850182,1.699138,0.409847,0.033470,0.665381
59285,10.045089,-3.572159,1.135452,0.498819,-0.004747,0.726433
59286,9.792832,-3.348058,0.691680,0.489849,-0.069656,0.778056
59287,9.713679,-3.127525,0.599106,0.389007,-0.141866,0.861205
59288,9.812697,-3.130965,0.754276,0.223427,-0.188651,0.942599
59289,9.842422,-3.182459,0.921334,0.054314,-0.217530,1.017782
59290,9.844917,-3.174584,0.782384,-0.073899,-0.248538,1.073863
59291,9.876195,-3.256020,0.569302,-0.203895,-0.226959,1.135011
59292,9.757829,-3.672818,0.367753,-0.292165,-0.177986,1.194549
59293,9.652420,-4.555641,0.384014,-0.343486,-0.103426,1.249818
59294,9.588828,-5.518281,0.447548,-0.269697,-0.031942,1.354404
59295,9.599762,-6.366205,0.438764,-0.094995,0.017673,1.428616
59296,9.849176,-6.804345,0.722148,0.192758,0.039609,1.490047
59297,9.988443,-6.328569,1.287044,0.410179,0.052279,1.575672
59298,9.721795,-5.469831,1.466414,0.465005,0.042674,1.649331
59299,9.490211,-5.172238,1.725917,0.373450,-0.003965,1.712943
59300,9.331729,-5.576457,1.922540,0.298469,-0.065038,1.782585
59301,9.156472,-6.394192,1.655812,0.357255,-0.129814,1.823522
59302,9.032300,-7.106080,1.511017,0.593239,-0.178084,1.865923
59303,8.944457,-7.024553,1.555328,0.885475,-0.212352,1.867488
59304,9.005025,-6.252725,1.939911,1.065149,-0.201734,1.859506
59305,8.962565,-5.341016,2.445971,1.064051,-0.143126,1.831112
59306,8.522600,-4.648522,2.384616,0.948110,-0.063570,1.785389
59307,8.191704,-4.250787,1.709727,0.815061,-0.006975,1.722914
59308,8.008748,-4.496004,1.151752,0.720323,0.065856,1.676656
59309,8.060565,-5.214594,1.305390,0.692530,0.183866,1.654955
59310,7.832562,-5.897244,1.874565,0.717566,0.343934,1.647148
59311,7.502238,-6.392737,2.464915,0.757037,0.460718,1.618081
59312,7.337843,-6.181520,3.042183,0.789971,0.530768,1.554893
59313,7.174914,-5.578893,3.335687,0.718483,0.542584,1.490674
59314,7.168455,-5.572227,3.332455,0.567077,0.485239,1.456993
59315,7.260796,-6.297825,2.918397,0.476117,0.399250,1.442076
59316,7.317098,-7.099731,2.434514,0.539174,0.276102,1.419058
59317,7.194157,-7.532002,1.956982,0.706174,0.153220,1.386120
59318,7.386009,-7.503308,2.000167,0.872329,0.032903,1.354759
59319,7.520593,-7.021586,2.121605,0.935477,-0.028532,1.344325
59320,7.583433,-6.413894,2.100878,0.918860,-0.054903,1.311309
59321,7.505814,-5.948682,1.781137,0.857526,-0.048268,1.247920
59322,7.636048,-5.833891,1.869098,0.792314,0.012884,1.214508
59323,7.646553,-6.015909,1.911387,0.741707,0.140584,1.212332
59324,7.684757,-6.295012,2.470934,0.672886,0.307355,1.210644
59325,7.420644,-6.509441,3.032621,0.558777,0.511656,1.222804
59326,6.916620,-6.637345,3.355972,0.414425,0.652188,1.223474
59327,6.550664,-6.737696,3.402327,0.235460,0.733542,1.200568
59328,6.133154,-7.130172,2.960943,0.091591,0.738911,1.185967
59329,5.951899,-7.869618,2.706711,0.053158,0.674274,1.197467
59330,6.019200,-8.746796,3.024137,0.162124,0.593890,1.197938
59331,6.076589,-9.449806,2.918586,0.463307,0.483190,1.177502
59332,5.884622,-9.671895,2.466669,0.830496,0.325489,1.192811
59333,5.897034,-9.224640,2.521072,1.133692,0.206084,1.209858
59334,5.908503,-8.620380,2.688061,1.226456,0.123123,1.234405
59335,5.968180,-8.189849,2.599755,1.148449,0.053536,1.273874
59336,6.027888,-8.194200,2.408692,1.054638,0.012026,1.291254
59337,5.767178,-8.345888,1.662244,1.013019,-0.046482,1.289362
59338,5.592712,-8.796789,0.971326,1.037903,-0.147147,1.313791
59339,5.586745,-9.378033,1.102163,1.113189,-0.185564,1.368804
59340,5.199868,-9.568245,1.688015,1.200866,-0.186634,1.413535
59341,4.976652,-9.097922,3.084386,1.263869,-0.193695,1.422399
59342,4.923012,-8.020715,4.525130,1.178164,-0.152928,1.417651
59343,4.866444,-7.227795,5.246284,0.893928,-0.119156,1.446657
59344,4.750989,-7.270357,5.048901,0.548817,-0.081685,1.500630
59345,4.516503,-8.014947,4.196680,0.329565,-0.055472,1.535072
59346,4.257156,-9.020589,3.270787,0.332695,-0.055394,1.560089
59347,4.118853,-9.885839,2.813987,0.552356,-0.077922,1.567637
59348,3.993773,-10.173788,2.717366,0.923738,-0.104904,1.545494
59349,4.051488,-9.820057,3.205907,1.277523,-0.127092,1.513602
59350,4.151176,-9.102271,3.906747,1.516600,-0.123219,1.511876
59351,4.297099,-8.366196,4.807770,1.556642,-0.095786,1.524031
59352,4.451957,-7.742086,5.628955,1.402621,-0.031563,1.558822
59353,4.473010,-7.443313,6.068305,1.162692,0.057325,1.587748
59354,4.079941,-7.405859,5.656277,0.928281,0.113582,1.586888
59355,3.553948,-7.265261,4.566745,0.796187,0.111805,1.565799
59356,3.154555,-7.115769,3.523232,0.717458,0.087719,1.532284
59357,3.102076,-7.465812,3.084823,0.677750,0.083135,1.515468
59358,3.313044,-8.442154,3.734473,0.727148,0.163180,1.527975
59359,3.326615,-9.453218,4.602592,0.860224,0.290179,1.534307
59360,3.072821,-9.757381,5.444270,1.093360,0.423839,1.536246
59361,2.850884,-9.001356,6.059569,1.249109,0.508434,1.532813
59362,2.693120,-7.942402,6.112164,1.181980,0.545236,1.552551
59363,2.692747,-7.302061,5.969114,0.899872,0.550763,1.575932
59364,2.467410,-7.389248,5.620596,0.565849,0.526846,1.595404
59365,2.146247,-8.089839,5.093530,0.332655,0.434900,1.597685
59366,1.950779,-9.250301,4.439659,0.245195,0.289578,1.620738
59367,1.928631,-10.517493,3.684402,0.326090,0.108953,1.693028
59368,1.764764,-10.974606,3.063555,0.518332,-0.109850,1.712229
59369,1.779083,-10.371612,2.940580,0.594229,-0.363547,1.757167
59370,1.752126,-9.203507,3.382737,0.388888,-0.619042,1.827187
59371,1.790974,-7.807443,4.115930,-0.077875,-0.832880,1.866734
59372,1.475953,-6.784536,4.477610,-0.649401,-1.015196,1.863065
59373,1.143777,-7.248046,3.826978,-1.188102,-1.223345,1.832880
59374,1.126098,-9.400364,3.361035,-1.408184,-1.342220,1.829625
59375,1.015744,-12.125760,2.782431,-1.155576,-1.395112,1.923302
59376,0.685148,-14.462959,2.690676,-0.346065,-1.386782,1.949608
59377,0.770469,-14.679624,3.614984,0.804957,-1.307664,1.890834
59378,0.869716,-12.732123,4.615585,1.763698,-1.209130,1.917818
59379,1.141226,-9.797441,5.549282,2.251510,-1.094854,1.963195
59380,1.344377,-7.349819,6.165914,2.228336,-0.980632,2.005940
59381,1.299083,-5.949685,6.391787,1.753447,-0.903811,2.074156
59382,0.929551,-5.721726,6.217080,1.209431,-0.855251,2.103710
59383,0.510848,-6.219826,5.938231,0.807407,-0.843899,2.086039
59384,0.108900,-7.231485,5.269118,0.612623,-0.880079,2.076662
59385,-0.076495,-8.184971,4.496506,0.715344,-0.955215,2.043452
59386,-0.107204,-8.506155,3.988111,0.961313,-1.039550,1.995520
59387,-0.103077,-7.919492,4.030288,1.198559,-1.108572,1.966496
59388,-0.074998,-7.100036,4.293572,1.252495,-1.168827,1.951566
59389,-0.179870,-6.479665,4.362595,1.161905,-1.233257,1.951820
59390,-0.269131,-6.030377,4.286243,1.081118,-1.326961,1.918938
59391,-0.020756,-6.203322,4.548939,1.008693,-1.351047,1.909764
59392,-0.177587,-6.676528,4.593911,1.045523,-1.311447,1.914036
59393,-0.509467,-6.710890,4.505893,1.202295,-1.280237,1.884325
59394,-0.587635,-6.448731,4.448069,1.358495,-1.245930,1.854234
59395,-0.318876,-6.166611,4.813738,1.557049,-1.158659,1.828684
59396,-0.044318,-5.884105,5.741077,1.730251,-1.023764,1.791965
59397,0.032163,-5.093471,7.000968,1.862367,-0.870359,1.725264
59398,-0.146962,-3.747251,8.079658,1.806865,-0.754475,1.662078
59399,-0.408665,-2.672560,8.536675,1.279917,-0.711853,1.688479
59400,-0.656641,-2.555202,8.364021,0.503304,-0.675660,1.725034
59401,-0.881582,-3.520781,8.174893,-0.255731,-0.658719,1.711052
59402,-1.068799,-5.282574,7.478013,-0.810268,-0.697425,1.743937
59403,-1.290387,-6.779737,6.313320,-0.991563,-0.768254,1.780296
59404,-1.678258,-7.555955,4.660458,-0.797121,-0.896569,1.786778
59405,-2.098803,-6.995532,3.613709,-0.375451,-1.067240,1.691912
59406,-2.018923,-6.107798,3.632479,-0.060710,-1.270432,1.620278
59407,-1.832527,-5.621186,4.288277,0.122946,-1.465234,1.569959
59408,-1.704404,-5.567859,4.756454,0.226905,-1.657089,1.550802
59409,-1.309777,-6.071123,5.302800,0.368581,-1.787312,1.534369
59410,-0.771425,-7.099062,6.018735,0.584991,-1.767952,1.568181
59411,-0.370112,-7.015534,7.186997,1.006099,-1.654719,1.555344
59412,0.096854,-5.708130,8.619492,1.350741,-1.515846,1.512959
59413,0.486480,-3.819211,9.860185,1.421463,-1.283140,1.475969
59414,0.675862,-2.280204,10.764310,1.127220,-1.021035,1.457963
59415,0.483321,-1.645902,11.156243,0.577610,-0.779535,1.450887
59416,0.062504,-2.453468,10.421587,0.024877,-0.568765,1.441073
59417,-0.278265,-3.794162,9.644644,-0.208016,-0.378309,1.393727
59418,-0.718627,-5.145301,8.293407,-0.130715,-0.253247,1.355447
59419,-1.063673,-6.021834,6.860536,0.185272,-0.196946,1.346688
59420,-1.329739,-6.023588,5.986273,0.640200,-0.161413,1.283385
59421,-1.469530,-5.419250,5.494888,0.988459,-0.180285,1.241288
59422,-1.487755,-4.062868,5.518230,1.201754,-0.203328,1.171584
59423,-1.685295,-2.382303,5.916897,1.205413,-0.258445,1.035641
59424,-1.779575,-0.746104,6.637347,1.045220,-0.353801,0.849534
59425,-1.449580,-0.115610,8.159961,0.695223,-0.464937,0.695105
59426,-0.959565,-0.834222,9.135468,0.445207,-0.543020,0.521150
59427,-0.563586,-2.044255,9.941336,0.436402,-0.501321,0.335183
59428,-0.603392,-3.250994,10.186026,0.628217,-0.403001,0.214360
59429,-0.895532,-3.293395,10.135035,0.963859,-0.242313,0.044810
59430,-0.419993,-2.364954,11.131849,1.174017,-0.022094,-0.164804
59431,-0.002805,-0.085794,12.900125,1.178383,0.305257,-0.402591
59432,-0.035179,1.667669,13.750117,0.412755,0.606758,-0.588599
59433,-0.650189,-1.632032,10.617200,-0.841486,0.759216,-0.507020
59434,-1.383071,-5.468049,7.848824,-1.006094,0.807352,-0.420720
59435,-2.435571,-7.634976,6.365653,-0.755454,0.753994,-0.365915
59436,-2.953293,-7.587358,6.268154,-0.277285,0.580748,-0.357227
59437,-2.885922,-6.387562,6.480516,-0.014171,0.403475,-0.309597
59438,-2.690373,-5.022918,6.882214,-0.050989,0.235242,-0.264318
59439,-2.778985,-4.187857,7.035251,-0.376908,0.066942,-0.195382
59440,-3.093601,-3.931589,7.351024,-0.705124,-0.099175,-0.180692
59441,-2.879175,-4.195112,7.646093,-0.931247,-0.270779,-0.197411
59442,-2.229868,-4.882671,8.027422,-0.969991,-0.373963,-0.205575
59443,-1.557960,-5.701635,8.724823,-0.724478,-0.370787,-0.246762
59444,-1.005887,-5.978014,9.884400,-0.192317,-0.250079,-0.318865
59445,-0.522224,-4.947815,10.984804,0.432148,-0.032573,-0.434154
59446,-0.223884,-2.665967,11.970142,0.840667,0.226215,-0.586923
59447,-0.238589,-0.399964,12.050623,0.736218,0.466966,-0.746326
59448,-0.247061,0.375114,11.439242,0.112328,0.647490,-0.861643
59449,-0.365990,-0.629218,10.092530,-0.586639,0.774935,-0.932091
59450,-0.760540,-1.940477,8.815172,-1.059754,0.837657,-1.032354
59451,-1.308569,-3.378981,7.205115,-1.242515,0.828626,-1.110441
59452,-1.788596,-4.558205,5.933681,-1.160919,0.741933,-1.142299
59453,-2.408394,-4.902927,5.156621,-0.971126,0.624457,-1.177648
59454,-3.109089,-4.441540,5.049933,-0.870240,0.447186,-1.191579
59455,-3.872048,-3.488612,5.419235,-0.973406,0.276559,-1.206207
59456,-4.396364,-2.659563,5.836067,-1.305152,0.088434,-1.233488
59457,-4.281731,-2.625874,6.036282,-1.726925,-0.089841,-1.253879
59458,-3.327795,-3.212502,6.232860,-1.995035,-0.241914,-1.319327
59459,-1.561194,-4.825546,6.762548,-2.096120,-0.332890,-1.339510
59460,-0.093159,-6.603435,7.774693,-1.807236,-0.279223,-1.353648
59461,0.757653,-7.491822,8.897619,-1.203921,-0.150110,-1.409067
59462,1.003328,-7.281634,9.966602,-0.489696,0.073578,-1.485372
59463,0.897511,-6.323547,10.723162,0.129146,0.327797,-1.607920
59464,0.799450,-5.166393,10.730574,0.545502,0.568999,-1.748178
59465,0.779829,-4.043195,10.805363,0.770897,0.782613,-1.912950
59466,0.919475,-2.720155,10.801897,0.638320,0.953343,-2.069777
59467,0.969262,-1.430935,10.732747,0.201445,1.093778,-2.232656
59468,1.266987,-0.955466,10.392816,-0.588651,1.182116,-2.369792
59469,1.714741,-2.552086,9.139188,-1.465761,1.258028,-2.443532
59470,1.908115,-5.284815,7.983449,-1.878191,1.319812,-2.488567
59471,1.620370,-8.159057,6.928566,-1.633680,1.325526,-2.553489
59472,1.375743,-10.461480,6.051653,-0.740691,1.300456,-2.625280
59473,1.269267,-10.834790,6.071300,0.465053,1.282447,-2.766073
59474,1.127861,-9.358687,6.468976,1.288192,1.190405,-2.806857
59475,1.078884,-6.754055,7.258517,1.559676,1.110163,-2.814736
59476,0.964639,-3.871332,8.319263,1.217082,1.045617,-2.888884
59477,1.043269,-1.595650,8.453192,0.359339,0.959288,-2.977011
59478,1.604381,-1.990005,7.986927,-0.560393,0.913481,-3.012059
59479,2.266944,-5.059146,7.312980,-0.967684,0.956322,-3.041811
59480,2.567224,-8.944684,6.763158,-0.600278,1.027142,-3.007486
59481,2.620887,-11.766011,7.204471,0.533916,1.173699,-3.042251
59482,2.592328,-11.554509,8.007434,1.713329,1.330299,-3.040444
59483,2.093149,-8.262736,8.604709,2.392061,1.411722,-2.995370
59484,1.801008,-3.641218,9.424821,2.212633,1.434119,-3.013882
59485,1.922009,-0.114729,10.065691,1.012872,1.432262,-2.942026
59486,2.370539,-0.202164,9.998705,-0.708506,1.516601,-2.804365
59487,2.835360,-4.097136,9.160338,-1.787585,1.674949,-2.720711
59488,2.912393,-9.212048,7.628956,-1.857186,1.780462,-2.564327
59489,2.726487,-13.455501,5.989086,-0.680983,1.887627,-2.524399
59490,2.555703,-13.910541,5.837799,0.884685,1.961190,-2.554368
59491,2.209663,-11.376026,5.983544,1.845144,1.877507,-2.439309
59492,1.641873,-7.045349,6.307837,2.133455,1.745700,-2.412876
59493,1.378722,-2.970977,6.664513,1.478609,1.501508,-2.432129
59494,1.736247,-1.038378,6.978475,0.220801,1.265135,-2.341588
59495,2.290345,-2.936476,6.767692,-0.926356,1.155991,-2.250884
59496,2.760465,-6.852547,6.735160,-1.370353,1.122347,-2.135380
59497,2.975650,-10.797597,6.866763,-0.882566,1.158245,-2.068359
59498,2.959852,-12.549719,7.549988,0.290840,1.309105,-2.099798
59499,2.564453,-11.692622,8.305553,1.441397,1.398002,-2.039936
59500,2.269637,-8.671578,8.901929,2.298882,1.445158,-2.054612
59501,1.950340,-5.068236,9.416068,2.597065,1.452174,-2.128266
59502,1.968463,-2.423977,9.979624,2.225330,1.397994,-2.167363
59503,2.112533,-1.535637,9.877025,1.476207,1.335552,-2.189380
59504,2.269721,-2.285698,9.285704,0.896108,1.270608,-2.251341
59505,2.504994,-3.583411,9.012236,0.605525,1.205856,-2.321944
59506,2.649277,-4.545066,8.795784,0.614424,1.138490,-2.386134
59507,2.698163,-4.672458,9.240561,0.711355,1.056687,-2.435486
59508,2.782558,-4.549866,9.622711,0.725986,0.967880,-2.448250
59509,2.901331,-4.330370,9.761367,0.634021,0.888174,-2.443045
59510,2.858867,-4.009093,9.604642,0.518403,0.810714,-2.439611
59511,2.809930,-3.741338,9.402589,0.455525,0.735502,-2.469083
59512,2.802567,-3.552256,9.168968,0.406857,0.691150,-2.483919
59513,2.526653,-3.584190,8.261782,0.376462,0.610493,-2.489238
59514,2.951090,-4.393001,7.876094,0.449861,0.532943,-2.490857
59515,3.480644,-5.643623,7.826560,0.675695,0.509090,-2.476786
59516,3.907427,-6.517856,8.252801,1.056375,0.535964,-2.435236
59517,3.861451,-6.033652,9.083411,1.422882,0.600935,-2.379597
59518,3.579825,-4.296696,9.964785,1.557683,0.644956,-2.333701
59519,3.416654,-2.137661,10.585598,1.344192,0.703644,-2.321285
59520,3.148429,-0.783876,10.448403,0.754239,0.775693,-2.319067
59521,2.736769,-0.755759,10.028384,0.002907,0.789928,-2.259777
59522,2.771972,-1.722608,9.693596,-0.531837,0.775141,-2.268622
59523,2.997148,-2.935153,9.276266,-0.861242,0.764064,-2.263261
59524,3.065028,-3.986862,8.920507,-0.906822,0.728846,-2.238990
59525,3.255578,-4.467966,9.127905,-0.830466,0.693498,-2.205947
59526,3.338359,-4.643365,9.420808,-0.728608,0.676786,-2.154660
59527,3.240424,-5.003509,9.372702,-0.601466,0.644031,-2.090863
59528,3.214354,-5.469392,9.543942,-0.373109,0.631247,-2.032289
59529,3.120893,-5.654027,9.342276,-0.097705,0.638436,-1.977464
59530,2.867703,-5.269896,8.901348,0.147256,0.602744,-1.917867
59531,2.705223,-4.211672,8.700399,0.291228,0.558222,-1.909940
59532,2.079562,-2.934626,7.299664,0.254694,0.446704,-1.907713
59533,2.321012,-2.266404,6.783713,0.139875,0.266573,-1.859916
59534,3.343832,-2.517787,7.114298,-0.142837,0.300185,-1.693542
59535,3.607282,-3.022451,7.654671,-0.521788,0.414369,-1.517951
59536,3.281139,-2.947375,7.896791,-0.888692,0.546134,-1.412974
59537,2.875317,-2.487093,8.667806,-1.311375,0.726119,-1.368766
59538,2.524420,-2.611754,10.027219,-1.786742,0.916638,-1.324413
59539,2.296921,-3.286570,10.039297,-2.204106,0.967731,-1.400551
59540,2.413817,-4.411627,8.911837,-2.295264,0.947486,-1.482371
59541,1.868624,-5.535788,7.957859,-2.035108,0.893554,-1.492116
59542,1.440522,-6.396430,7.604038,-1.519211,0.736310,-1.460553
59543,1.729370,-7.223989,7.476915,-0.785930,0.562988,-1.417845
59544,2.327534,-7.518555,7.829977,0.109494,0.443392,-1.384906
59545,2.617040,-6.714077,8.534194,0.891521,0.390414,-1.352019
59546,2.700746,-5.056606,9.101279,1.366884,0.358798,-1.324091
59547,2.812204,-2.938902,9.808374,1.433929,0.373203,-1.330933
59548,2.690315,-1.037689,10.166383,1.058065,0.425074,-1.325926
59549,2.294677,0.371154,9.732755,0.376632,0.434937,-1.367842
59550,2.671162,0.471215,9.339236,-0.357879,0.460908,-1.386569
59551,2.738121,-0.951451,8.908198,-0.853587,0.575475,-1.385448
59552,2.482606,-2.784294,9.103235,-0.973092,0.636139,-1.389954
59553,2.473367,-3.991179,9.843396,-0.811292,0.706620,-1.382418
59554,2.334325,-3.867438,10.095454,-0.622747,0.727828,-1.388536
59555,2.319078,-3.204193,9.543938,-0.567656,0.668462,-1.418668
59556,2.227097,-3.277364,8.856755,-0.585002,0.611628,-1.447068
59557,2.211415,-3.786917,8.570158,-0.542836,0.540892,-1.478219
59558,2.495937,-4.187694,8.956285,-0.452516,0.492607,-1.478589
59559,3.197362,-4.514317,10.860721,-0.430239,0.506527,-1.444569
59560,3.702906,-5.112800,12.410248,-0.475296,0.571646,-1.350687
59561,3.207904,-5.905988,11.903103,-0.353175,0.645150,-1.251416
59562,2.421214,-6.064426,10.643915,0.058727,0.607310,-1.252538
59563,2.568102,-6.587968,9.667035,0.400760,0.595246,-1.079931
59564,1.925959,-5.814446,9.066687,0.589201,0.505349,-1.011002
59565,0.968230,-3.525675,7.207068,0.567445,0.309032,-1.085904
59566,0.078694,-0.987575,3.152952,0.560615,-0.072394,-1.301575
59567,2.521342,-1.841939,2.194512,0.379091,-0.274628,-1.240152
59568,4.201316,-5.400535,5.007876,0.452863,0.083471,-0.897414
59569,3.806662,-6.840408,8.830157,0.942133,0.360988,-0.755264
59570,2.619958,-3.285176,10.442089,1.274946,0.579358,-0.745924
59571,1.461297,1.642320,11.255237,0.738521,0.560755,-0.884782
59572,1.535171,3.776416,12.050685,-1.066413,0.550600,-0.899947
59573,1.219057,0.084215,9.270839,-2.911964,0.490767,-0.823707
59574,1.595296,-4.861470,7.873828,-3.009918,0.406357,-0.745878
59575,1.573243,-8.688465,7.521796,-2.140373,0.337233,-0.797883
59576,1.975190,-9.652791,7.426727,-0.677973,0.292344,-0.933426
59577,2.050131,-7.888048,7.604869,0.427159,0.271820,-0.920929
59578,1.981104,-4.841121,8.081262,1.088680,0.259185,-0.941179
59579,2.051094,-2.182279,8.980918,1.026676,0.245827,-0.936454
59580,2.201066,-0.907544,9.675388,0.472520,0.225467,-0.893308
59581,2.279619,-1.369035,9.600998,-0.205605,0.230384,-0.848207
59582,2.316429,-2.646620,9.459309,-0.611602,0.229973,-0.830707
59583,2.369663,-3.894039,9.208580,-0.762026,0.238086,-0.818737
59584,2.209195,-4.511675,9.143639,-0.675396,0.250231,-0.802815
59585,2.077558,-4.543377,9.400486,-0.552681,0.253182,-0.797905
59586,2.023456,-4.374195,9.392313,-0.469850,0.266633,-0.785795
59587,1.862917,-4.497544,9.202218,-0.395053,0.267477,-0.780093
59588,1.778949,-4.718067,8.879381,-0.279618,0.247685,-0.784803
59589,1.637837,-4.676846,8.005131,-0.152381,0.186926,-0.802485
59590,1.690106,-4.312625,7.057198,-0.007834,0.082119,-0.810008
59591,2.000826,-4.046390,6.829001,0.080423,0.024787,-0.780203
59592,2.267677,-4.093148,6.851762,0.079519,0.027008,-0.685544
59593,2.215716,-4.296280,6.799879,0.000209,0.031701,-0.581613
59594,2.267229,-4.905854,7.550643,-0.107443,0.082756,-0.468266
59595,2.132232,-5.347808,8.553991,-0.230608,0.131994,-0.365305
59596,2.219987,-5.228724,9.390170,-0.365573,0.129085,-0.304060
59597,2.328755,-4.624318,9.555571,-0.546440,0.115798,-0.267183
59598,2.392823,-4.408803,9.558911,-0.798599,0.096663,-0.241595
59599,2.251846,-5.264614,9.591222,-1.017078,0.058619,-0.170536
59600,1.830595,-6.546809,8.895105,-1.005361,-0.018550,-0.058568
59601,1.463363,-7.310946,7.787852,-0.662124,-0.124986,0.006247
59602,1.634987,-6.538665,7.421062,-0.258064,-0.263679,0.084608
59603,2.015302,-5.366168,7.370534,-0.089604,-0.366624,0.189736
59604,2.303578,-4.617249,6.981442,-0.193576,-0.461288,0.284733
59605,2.766655,-5.042158,6.360934,-0.376623,-0.513963,0.414432
59606,3.181860,-6.372002,6.492509,-0.490924,-0.426689,0.576221
59607,2.692822,-7.294496,6.868205,-0.372388,-0.318410,0.667613
59608,2.520372,-7.120820,8.162931,-0.213059,-0.266925,0.749637
59609,2.327841,-5.804851,9.593734,-0.230530,-0.236272,0.807389
59610,2.128876,-4.215968,10.098182,-0.548792,-0.271274,0.823571
59611,2.061038,-3.654699,9.919947,-1.105550,-0.312715,0.852887
59612,2.011542,-4.913284,9.135928,-1.574171,-0.375692,0.912790
59613,2.009039,-6.996743,7.906611,-1.650996,-0.452899,0.992896
59614,2.049067,-9.100470,6.764568,-1.231135,-0.531707,1.069415
59615,2.263205,-10.980524,6.369365,-0.394513,-0.612463,1.085933
59616,2.823243,-11.964046,7.080446,0.689402,-0.637453,1.122435
59617,3.199346,-11.492979,7.615912,1.762509,-0.631717,1.212053
59618,3.240336,-9.562180,7.585347,2.612905,-0.652538,1.344189
59619,2.687703,-6.179889,7.408796,3.009238,-0.677634,1.391782
59620,2.233375,-2.907845,7.935739,2.772468,-0.722324,1.393036
59621,1.924919,-0.750931,7.982832,1.832869,-0.813247,1.444891
59622,2.628483,-1.130702,7.926800,0.618564,-0.861852,1.535916
59623,3.202621,-3.520840,7.661123,-0.226269,-0.738458,1.579973
59624,3.187842,-6.316920,7.681981,-0.364169,-0.590930,1.625530
59625,2.820188,-7.644961,7.958135,0.199561,-0.476409,1.627032
59626,2.595487,-6.406922,9.016057,0.836700,-0.407238,1.650874
59627,2.534657,-3.947675,9.877966,1.027157,-0.389809,1.700094
59628,2.568584,-2.341491,10.444051,0.660519,-0.421676,1.769117
59629,2.571646,-2.726254,9.970543,0.129285,-0.500080,1.826746
59630,2.628403,-3.924092,9.499846,-0.001302,-0.556845,1.803051
59631,2.580724,-5.005707,8.940771,0.112565,-0.597121,1.770811
59632,2.586642,-5.083335,9.251164,0.366078,-0.628058,1.757922
59633,2.637822,-4.193583,9.334241,0.449023,-0.658978,1.734305
59634,2.801150,-3.159720,9.174844,0.297802,-0.717105,1.737847
59635,3.063222,-2.824959,9.088264,0.032037,-0.752548,1.772928
59636,3.107842,-3.101326,8.785693,-0.193966,-0.798434,1.818704
59637,3.415255,-3.798578,8.082905,-0.261711,-0.838989,1.897845
59638,3.825695,-4.527593,8.117944,-0.163964,-0.808185,1.960515
59639,3.824580,-5.157987,8.741051,0.014845,-0.700580,2.033451
59640,3.421484,-5.048117,9.454744,0.186978,-0.609201,2.064550
59641,3.017375,-4.516247,9.775139,0.236522,-0.554751,2.070996
59642,2.753594,-3.939776,9.756226,0.094987,-0.545641,2.083526
59643,2.688147,-3.781901,9.650397,-0.202091,-0.555276,2.119491
59644,2.801366,-4.344504,9.396568,-0.480008,-0.582365,2.150298
59645,2.812985,-5.463123,9.173297,-0.564725,-0.600162,2.168505
59646,2.588378,-6.502769,9.014011,-0.342740,-0.617685,2.166740
59647,2.326552,-7.157344,8.681659,0.013749,-0.657649,2.180965
59648,2.394819,-6.967039,8.673742,0.383980,-0.679529,2.216479
59649,2.515837,-5.849565,8.700125,0.547243,-0.703200,2.232877
59650,2.653041,-4.452220,8.763123,0.483275,-0.721284,2.236282
59651,2.527004,-3.462765,8.817047,0.212030,-0.734225,2.250937
59652,2.465466,-3.211024,8.957073,-0.122706,-0.735580,2.272877
59653,2.521679,-3.825249,8.861662,-0.447572,-0.722316,2.330280
59654,2.535294,-4.770650,8.930609,-0.575401,-0.663118,2.316794
59655,2.191116,-5.850114,8.173817,-0.532610,-0.646617,2.334164
59656,2.051849,-6.560785,7.990277,-0.293144,-0.636515,2.355072
59657,2.086283,-6.715122,7.993261,-0.014030,-0.624363,2.365445
59658,2.166500,-6.328853,8.418415,0.247023,-0.611655,2.372279
59659,2.138800,-5.641511,8.900124,0.381970,-0.595414,2.380305
59660,2.081798,-4.901062,9.091707,0.326060,-0.602433,2.415787
59661,2.047799,-4.153249,9.341058,0.097190,-0.610777,2.444359
59662,2.110225,-3.913772,9.414858,-0.287530,-0.632785,2.468787
59663,2.042892,-4.442013,9.129871,-0.696021,-0.672379,2.513872
59664,1.969505,-5.399211,8.817953,-1.025712,-0.724671,2.579837
59665,1.994481,-6.231857,8.405077,-1.261872,-0.786319,2.653153
59666,2.066611,-6.590818,7.982739,-1.357308,-0.861149,2.704728
59667,2.036044,-6.557259,7.599578,-1.315309,-0.940234,2.695882
59668,1.928686,-6.857945,7.445208,-1.104277,-0.982674,2.670745
59669,1.549694,-7.419801,7.393897,-0.728050,-0.984999,2.644757
59670,1.096713,-7.826161,7.282127,-0.184415,-0.977062,2.634006
59671,0.929712,-7.485260,7.469897,0.373981,-0.950580,2.612606
59672,1.094425,-6.336149,7.838964,0.767014,-0.913770,2.597320
59673,1.357019,-4.411891,8.486253,0.935240,-0.842162,2.549908
59674,1.293632,-2.627004,9.145484,0.818727,-0.750357,2.460624
59675,0.811941,-1.687146,9.585048,0.446204,-0.667878,2.381165
59676,0.274026,-1.694029,9.738624,-0.001210,-0.609072,2.315969
59677,0.027074,-2.588707,9.544520,-0.331843,-0.556104,2.219065
59678,0.211408,-4.144915,9.047801,-0.470168,-0.515855,2.150809
59679,0.467408,-5.652783,8.245118,-0.391011,-0.492385,2.111341
59680,0.773717,-6.475925,7.639994,-0.321020,-0.488149,2.150028
59681,0.977561,-6.296740,7.823294,-0.568002,-0.529294,2.270056
59682,1.123336,-5.520486,8.612355,-1.185631,-0.593365,2.420284
59683,1.086085,-4.695403,9.151521,-2.010010,-0.667774,2.525803
59684,0.583858,-4.656805,8.639349,-2.782942,-0.718322,2.575987
59685,-0.227582,-5.606949,7.415499,-3.231152,-0.785203,2.583270
59686,-0.648877,-7.460497,6.250859,-3.295300,-0.893825,2.607112
59687,-1.064240,-9.521900,5.167338,-2.843529,-1.015030,2.638194
59688,-1.294565,-10.144776,4.499559,-1.943193,-1.150064,2.561946
59689,-0.942716,-8.857195,4.874843,-1.062346,-1.283116,2.518371
59690,-0.602364,-6.985930,5.462668,-0.432443,-1.370510,2.471638
59691,-0.511999,-5.384097,6.290676,-0.158514,-1.408323,2.425287
59692,-0.709388,-4.735713,6.922733,-0.167897,-1.434744,2.387640
59693,-0.862366,-4.757823,7.714494,-0.220826,-1.387972,2.315307
59694,-1.022349,-4.923029,8.171195,-0.234865,-1.339459,2.212956
59695,-0.800058,-5.006996,8.637045,-0.194962,-1.262589,2.114153
59696,-0.732836,-4.890741,9.203453,-0.149960,-1.138332,2.019880
59697,-0.677638,-5.177614,9.266118,-0.172092,-1.031659,1.957353
59698,-0.636231,-5.897321,9.031967,-0.128392,-0.926751,1.939300
59699,-0.979359,-6.057773,8.600974,-0.017921,-0.854959,1.895622
59700,-1.219713,-5.795526,8.162584,0.039835,-0.855122,1.866149
59701,-1.330411,-5.354409,7.874695,-0.063238,-0.841044,1.859388
59702,-1.609209,-5.217654,7.678812,-0.378980,-0.871894,1.875011
59703,-1.752112,-5.582360,7.738005,-0.686857,-0.912834,1.898320
59704,-2.111590,-6.185771,7.427052,-0.913537,-0.977701,1.894788
59705,-2.333959,-7.123198,6.876805,-0.940289,-1.046460,1.900642
59706,-2.507048,-7.651883,6.025542,-0.882632,-1.136784,1.919416
59707,-2.518467,-7.609964,5.373159,-0.706894,-1.266539,1.932393
59708,-2.305472,-7.228841,5.259966,-0.514392,-1.397559,1.907366
59709,-2.095308,-6.663359,5.606639,-0.296216,-1.503013,1.885994
59710,-1.804459,-6.416196,6.141616,-0.122470,-1.575697,1.876006
59711,-1.606787,-6.391896,6.824645,-0.011626,-1.600963,1.887349
59712,-1.328097,-6.425534,7.623017,0.063171,-1.554747,1.871383
59713,-0.985086,-6.799904,8.283225,0.165534,-1.457080,1.863714
59714,-0.758061,-7.072911,8.751979,0.410081,-1.296452,1.857878
59715,-0.614084,-7.175173,8.741310,0.759730,-1.124429,1.845196
59716,-0.457433,-7.500051,8.354148,1.184336,-0.909772,1.863064
59717,-0.602571,-7.768154,7.656293,1.772300,-0.697063,1.878529
59718,-1.027013,-7.178064,6.937676,2.387948,-0.526324,1.896215
59719,-1.591626,-4.877372,6.941949,2.801912,-0.390781,1.915591
59720,-2.141725,-1.408395,7.496668,2.921233,-0.249951,1.803194
59721,-2.498602,1.954255,8.532696,2.386845,-0.245048,1.716725
59722,-2.564451,4.273289,9.341148,1.306149,-0.246976,1.617502
59723,-2.566521,5.004899,9.735856,-0.199039,-0.270495,1.473632
59724,-2.663490,3.386116,9.108032,-1.541273,-0.362254,1.321662
59725,-2.797138,0.546664,8.202992,-2.395054,-0.490612,1.143267
59726,-2.752306,-2.738642,7.209297,-2.614274,-0.603388,1.007370
59727,-2.812433,-5.532196,6.991439,-2.200608,-0.674400,0.887596
59728,-2.708962,-7.323052,7.312855,-1.473192,-0.670580,0.764025
59729,-2.215297,-7.519742,8.540723,-0.651410,-0.562161,0.649886
59730,-1.809679,-5.919180,10.122795,-0.012543,-0.353504,0.548692
59731,-1.528127,-4.200332,11.366936,0.271670,-0.100240,0.452279
59732,-1.431483,-3.579886,11.251318,0.215715,0.152004,0.402975
59733,-1.681406,-3.126417,10.734707,0.198601,0.380456,0.308842
59734,-2.138416,-2.616879,9.876882,0.049098,0.518555,0.203078
59735,-2.632045,-2.730712,8.714638,-0.217364,0.588371,0.141310
59736,-3.263955,-3.729468,7.037342,-0.457225,0.562499,0.077299
59737,-3.500589,-4.478739,5.678244,-0.530344,0.464663,-0.006067
59738,-3.759727,-4.379545,5.036074,-0.555628,0.323538,-0.097991
59739,-3.871892,-3.533751,5.122261,-0.634280,0.159297,-0.188368
59740,-3.608379,-2.689298,5.635162,-0.870556,-0.012804,-0.280838
59741,-3.051476,-2.717016,6.258903,-1.181352,-0.136563,-0.403539
59742,-2.598034,-3.758828,6.600631,-1.357377,-0.196961,-0.531547
59743,-2.274591,-5.226019,6.983298,-1.270072,-0.205250,-0.661007
59744,-1.883862,-6.568773,7.745230,-0.882052,-0.108704,-0.783856
59745,-1.277280,-7.375213,8.871376,-0.164358,0.120073,-0.928195
59746,-0.489374,-7.584158,9.932169,0.756622,0.485412,-1.086070
59747,0.223067,-6.851380,10.479465,1.771690,0.963177,-1.275033
59748,0.650828,-5.032241,10.090103,2.462876,1.423116,-1.450283
59749,0.591535,-2.341373,8.688683,2.690339,1.793339,-1.650742
59750,-0.058697,0.443952,7.858917,2.181459,1.987460,-1.889140
59751,-1.005974,1.854401,7.615487,0.917164,2.044041,-1.973300
59752,-2.220851,0.615324,6.685542,-0.651176,2.009871,-1.955377
59753,-3.108862,-2.503566,5.107048,-1.846599,1.891968,-1.876560
59754,-3.867696,-5.992327,3.162025,-2.387927,1.678406,-1.751830
59755,-4.339866,-8.440996,1.737471,-2.344399,1.408789,-1.652146
59756,-4.616224,-9.369339,1.329921,-1.997808,1.149926,-1.552174
59757,-4.779439,-9.316748,2.073103,-1.695236,0.897240,-1.423338
59758,-4.739403,-8.866626,3.489869,-1.461130,0.676974,-1.327894
59759,-4.454720,-8.600030,4.712398,-1.305565,0.485480,-1.244294
59760,-4.037213,-8.573698,5.549591,-1.114438,0.365622,-1.150445
59761,-3.798648,-8.301862,6.397308,-0.829578,0.343648,-1.080826
59762,-3.695771,-7.221501,7.477196,-0.562695,0.379099,-1.061778
59763,-3.279969,-5.581613,8.571746,-0.400980,0.491655,-1.115175
59764,-2.613167,-4.124937,9.711361,-0.439801,0.689603,-1.212950
59765,-1.670803,-3.767821,10.473228,-0.742415,0.948915,-1.273476
59766,-0.992860,-4.828329,10.176941,-1.017429,1.255939,-1.340628
59767,-0.819334,-6.316763,8.797535,-1.095490,1.527485,-1.379583
59768,-1.122216,-7.025683,7.671391,-0.834609,1.735103,-1.442415
59769,-1.710570,-6.436110,6.839441,-0.662663,1.844143,-1.482960
59770,-2.163869,-5.100688,6.459263,-0.723220,1.873424,-1.541643
59771,-2.445359,-3.881942,6.106599,-1.069893,1.850089,-1.641783
59772,-2.446598,-3.721303,5.603202,-1.666494,1.804810,-1.751019
59773,-2.116743,-5.267926,4.728938,-2.257948,1.751616,-1.810975
59774,-1.812070,-7.211640,4.083512,-2.542575,1.682761,-1.855560
59775,-1.383003,-9.097732,3.481020,-2.567369,1.601967,-1.810393
59776,-1.117943,-10.080296,2.984102,-2.259430,1.589232,-1.785264
59777,-1.001220,-10.014158,2.842663,-1.804833,1.604354,-1.791292
59778,-0.904610,-9.402126,3.277564,-1.374428,1.647054,-1.792701
59779,-1.037332,-8.795076,3.396161,-1.019953,1.709699,-1.798799
59780,-1.219699,-8.136694,3.208343,-0.656678,1.773035,-1.877186
59781,-1.181879,-7.157022,2.651529,-0.393059,1.805602,-2.007589
59782,-1.092422,-6.160837,2.073038,-0.299745,1.827949,-2.159450
59783,-1.218675,-5.280651,0.907128,-0.377989,1.779586,-2.334507
59784,-1.100148,-5.000786,-0.386730,-0.673418,1.626403,-2.431138
59785,-0.638578,-5.212739,-0.729598,-0.962677,1.457650,-2.533300
59786,-0.029320,-5.666395,0.277318,-1.287278,1.298231,-2.667666
59787,0.512664,-6.465301,1.496268,-1.634721,1.180425,-2.763179
59788,1.055630,-7.653273,2.183598,-1.893920,1.099145,-2.808858
59789,1.307521,-8.779934,1.907066,-1.953812,1.043451,-2.846404
59790,1.225532,-9.463080,1.380729,-1.797221,1.022242,-2.908332
59791,1.244329,-9.967793,0.865816,-1.694235,0.973176,-2.912785
59792,1.551698,-11.115215,-0.168000,-1.732597,0.875153,-2.761775
59793,2.159711,-12.916894,-1.193783,-1.657886,0.828257,-2.669538
59794,2.584480,-13.955469,-1.385150,-1.284992,0.827531,-2.673497
59795,2.440306,-13.644918,-1.557199,-0.887149,0.761767,-2.648786
59796,2.293896,-12.017048,-1.327818,-0.606678,0.638014,-2.637483
59797,2.438567,-10.260808,-0.808309,-0.632112,0.524800,-2.618906
59798,2.678950,-9.199501,-0.571089,-0.935382,0.397611,-2.605560
59799,3.346387,-9.869329,-0.736707,-1.393565,0.273754,-2.530954
59800,4.059117,-11.559982,-0.678437,-1.640684,0.220504,-2.424087
59801,4.521224,-13.201528,-0.625550,-1.553335,0.228269,-2.330867
59802,4.406016,-14.200308,-0.724269,-1.153763,0.272621,-2.237098
59803,4.192321,-14.252586,-0.859679,-0.563706,0.302952,-2.190853
59804,4.193384,-13.092416,-0.600071,0.011420,0.301409,-2.159450
59805,4.259427,-11.136284,0.118506,0.394200,0.305932,-2.157972
59806,4.229531,-9.048369,1.125203,0.422785,0.312692,-2.167198
59807,4.165618,-7.293146,2.106840,0.092375,0.324895,-2.169552
59808,4.276722,-6.269321,2.959151,-0.545043,0.339438,-2.145022
59809,4.415519,-6.690007,2.980484,-1.258724,0.382607,-2.084703
59810,4.528704,-8.284513,2.515352,-1.757910,0.448173,-2.019989
59811,4.583576,-10.303182,1.734755,-1.977051,0.514095,-1.918525
59812,4.576459,-11.998715,1.259760,-1.797435,0.593853,-1.841879
59813,4.653823,-12.447446,1.373772,-1.363366,0.671553,-1.815412
59814,4.630222,-12.012501,2.120607,-0.908450,0.746344,-1.777318
59815,4.380127,-11.366158,2.208805,-0.540367,0.791977,-1.759381
59816,4.292908,-10.760623,2.064373,-0.265428,0.766749,-1.732748
59817,4.147552,-9.942893,1.861903,-0.165787,0.697322,-1.699834
59818,4.285620,-8.922529,1.738102,-0.278165,0.591446,-1.671814
59819,4.379569,-7.896682,1.548593,-0.519609,0.504242,-1.680554
59820,4.732483,-7.394663,1.625751,-0.856516,0.418326,-1.687456
59821,5.037509,-7.655508,1.360812,-1.051580,0.367214,-1.695493
59822,5.133495,-8.472277,0.413632,-1.018908,0.287395,-1.724718
59823,5.358646,-9.352720,-0.473150,-0.743534,0.214770,-1.729340
59824,5.988088,-10.298929,-0.846052,-0.377996,0.221419,-1.667111
59825,6.493502,-10.823590,-0.826591,0.003828,0.320141,-1.565505
59826,6.685169,-10.601715,0.031697,0.311304,0.467392,-1.473613
59827,6.764132,-9.597505,2.120305,0.419963,0.689570,-1.404350
59828,5.995772,-8.022185,2.477940,0.301223,0.857436,-1.346289
59829,5.322831,-6.806242,1.524126,-0.045309,0.864199,-1.308330
59830,5.433677,-6.445121,1.375008,-0.503613,0.848745,-1.294904
59831,5.941575,-7.274903,1.387754,-0.958659,0.792289,-1.295189
59832,6.562273,-9.402596,0.721826,-1.072700,0.656465,-1.238663
59833,7.026033,-11.433885,0.024100,-0.659343,0.490780,-1.183178
59834,7.470113,-12.097975,-0.457065,0.083693,0.302790,-1.115889
59835,7.721515,-10.762572,-0.221717,0.762591,0.115248,-1.021360
59836,7.703754,-8.269623,0.180686,1.010934,-0.047589,-0.994570
59837,8.132312,-6.501506,0.859692,0.814443,-0.118124,-0.949563
59838,8.424168,-6.005895,1.311856,0.398650,-0.008766,-0.838385
59839,7.648474,-6.002923,0.396564,0.146177,0.090596,-0.840888
59840,7.563266,-6.126901,0.368184,0.076378,0.180228,-0.844196
59841,7.431767,-6.339086,0.807824,0.038256,0.387179,-0.785819
59842,6.969268,-5.799248,1.766230,-0.065973,0.602845,-0.790379
59843,6.128037,-4.781116,2.445090,-0.262540,0.819415,-0.871814
59844,5.258525,-3.677102,2.743965,-0.632980,0.948594,-0.942518
59845,4.703725,-3.812950,1.842218,-1.125427,0.960626,-0.967397
59846,4.820879,-4.900684,0.893856,-1.401996,0.968637,-1.039018
59847,5.503431,-6.273317,0.325643,-1.454956,0.946465,-1.090169
59848,6.912762,-7.390196,0.296124,-1.229484,0.849421,-1.167013
59849,8.478528,-8.502553,0.000660,-0.785660,0.694986,-1.212339
59850,9.415376,-8.988901,-0.371581,-0.140881,0.572841,-1.241898
59851,9.413260,-8.205316,-0.279261,0.468798,0.442729,-1.228798
59852,9.293712,-6.696051,0.328822,0.807511,0.293201,-1.181405
59853,9.389895,-5.106660,1.446696,0.774074,0.241259,-1.129154
59854,9.491855,-3.768342,2.330623,0.468689,0.247066,-1.089304
59855,9.304959,-2.628508,2.517171,0.031330,0.301318,-1.105235
59856,8.332569,-1.934951,0.892603,-0.464038,0.318133,-1.134201
59857,8.286694,-2.678793,-0.011822,-0.821428,0.295041,-1.153964
59858,8.613092,-4.313014,-0.420293,-1.011733,0.413480,-1.144936
59859,8.468156,-5.628167,-0.705294,-0.976953,0.563226,-1.199359
59860,8.151692,-5.265250,0.142856,-0.860328,0.731040,-1.304378
59861,7.702052,-3.211846,1.277322,-0.975792,0.859478,-1.446974
59862,7.882675,-0.894481,1.147193,-1.474311,0.787531,-1.661306
59863,9.699276,0.623949,0.621113,-2.296869,0.630085,-1.850637
59864,11.720574,0.090104,1.131826,-3.277263,0.658430,-1.696974
59865,11.762259,-3.879064,0.368419,-3.737495,0.625222,-1.467460
59866,10.971850,-9.482802,-0.650542,-3.143023,0.513225,-1.200708
59867,9.741307,-13.423812,-1.532442,-1.187751,0.429350,-1.380061
59868,9.529379,-11.644955,-0.404898,0.881807,0.271023,-1.439921
59869,9.571561,-7.713702,0.463769,2.324842,0.182677,-1.467538
59870,9.913211,-3.356781,1.668120,2.808148,0.139702,-1.554202
59871,10.580958,-0.306824,2.879392,2.389234,0.117542,-1.436672
59872,10.608403,0.343164,3.054446,1.317560,0.193863,-1.186682
59873,10.022007,-0.469123,2.158082,0.439090,0.267793,-1.156145
59874,9.762964,-1.427109,1.398889,-0.258554,0.301929,-1.177027
59875,9.632132,-2.967223,0.735557,-0.682911,0.336277,-1.128408
59876,9.816600,-4.502287,0.602766,-0.818120,0.359203,-1.065600
59877,10.201893,-5.301161,0.717249,-0.644986,0.368784,-1.060566
59878,10.066696,-5.128301,0.884315,-0.372513,0.399111,-1.019178
59879,9.478424,-4.355617,1.353681,-0.115920,0.369967,-0.965876
59880,9.174346,-3.824948,1.538324,0.033468,0.288468,-0.895908
59881,9.080265,-3.863636,1.439474,0.183740,0.210167,-0.832647
59882,9.173405,-4.019475,1.402269,0.386929,0.141066,-0.802993
59883,9.406707,-3.928745,1.540101,0.594641,0.097765,-0.780528
59884,9.680973,-3.620370,1.829439,0.726825,0.077199,-0.741501
59885,9.958213,-3.183934,1.983022,0.762593,0.076737,-0.687206
59886,10.031459,-2.699833,2.056372,0.724683,0.075209,-0.632726
59887,9.886891,-2.310808,1.880941,0.618134,0.074245,-0.576531
59888,9.748242,-2.112545,1.801063,0.513237,0.047515,-0.516230
59889,9.660696,-1.946060,1.592605,0.345424,-0.036226,-0.420326
59890,10.081665,-1.736102,1.764891,0.082105,-0.153146,-0.269566
59891,10.887680,-1.398341,1.873660,-0.302603,-0.231713,-0.094592
59892,11.614476,-0.714328,1.858051,-0.690313,-0.249115,0.037813
59893,11.674897,-0.006972,1.696092,-1.098847,-0.223049,0.139092
59894,10.859658,0.266946,1.242090,-1.445775,-0.176034,0.208905
59895,9.918904,-0.322517,0.689513,-1.701198,-0.168105,0.187474
59896,9.448451,-1.686708,0.205149,-1.784638,-0.150522,0.146015
59897,9.232667,-3.258317,-0.210375,-1.643888,-0.118218,0.101825
59898,9.057675,-4.691139,-0.409651,-1.249077,-0.049773,0.037299
59899,8.769222,-5.267361,-0.133960,-0.651178,0.002263,-0.073543
59900,8.586044,-4.734454,0.414274,-0.052458,0.031505,-0.154351
59901,8.502561,-3.722692,0.954358,0.372164,0.043054,-0.208000
59902,8.648788,-2.864410,1.343352,0.617117,0.032382,-0.246295
59903,8.861176,-2.590298,1.549069,0.720038,0.004169,-0.270369
59904,9.125564,-2.616255,1.717299,0.788510,-0.021780,-0.270685
59905,9.307148,-2.538039,1.984718,0.813215,-0.042166,-0.263929
59906,9.623969,-2.197118,2.021869,0.763226,-0.057271,-0.244405
59907,9.921440,-1.824690,1.891692,0.613903,-0.059344,-0.212528
59908,10.106280,-1.661254,1.746706,0.416961,-0.048532,-0.178601
59909,10.031349,-1.809314,1.508764,0.240136,-0.033817,-0.149481
59910,9.950743,-2.005010,1.430682,0.123793,-0.025013,-0.110018
59911,9.836351,-2.180142,1.394988,0.070003,-0.014318,-0.081137
59912,9.801782,-2.286600,1.421265,0.047598,-0.006500,-0.048654
59913,9.809771,-2.298671,1.451613,0.051871,0.000334,-0.026367
59914,9.782655,-2.281208,1.549045,0.061385,0.008783,-0.007441
59915,9.807008,-2.126833,1.590487,0.056069,0.013768,0.004616
59916,9.783007,-2.066352,1.551856,0.047647,0.017548,0.020214
59917,9.741836,-2.025622,1.567193,0.046210,0.013155,0.022406
59918,9.715607,-2.042504,1.446134,0.044871,0.014461,0.025888
59919,9.724090,-2.073023,1.430514,0.054643,0.008975,0.038809
59920,9.713825,-2.047966,1.450378,0.078339,0.006014,0.043607
59921,9.665337,-1.992730,1.435703,0.095581,0.002083,0.049702
59922,9.654310,-1.830323,1.370517,0.094617,0.001290,0.053479
59923,9.614839,-1.735152,1.295006,0.073673,0.001132,0.054985
59924,9.606900,-1.723261,1.266389,0.055687,-0.003302,0.053502
59925,9.619882,-1.690711,1.283839,0.043830,0.001542,0.038525
59926,9.663985,-1.602355,1.263553,0.015145,0.001555,0.025955
59927,9.679797,-1.648861,1.276028,-0.024899,0.009738,0.014997
59928,9.639286,-1.765158,1.202672,-0.048053,0.009695,0.003041
59929,9.646200,-1.782084,1.231944,-0.056630,0.001948,-0.002704
59930,9.673684,-1.640863,1.221531,-0.091120,-0.002743,-0.009747
59931,9.655312,-1.428290,1.341162,-0.183737,-0.003246,-0.008528
59932,9.678571,-1.335584,1.465082,-0.321714,-0.015698,0.004269
59933,9.652471,-1.489279,1.442551,-0.458259,-0.016790,0.008970
59934,9.738001,-1.744057,1.394547,-0.562922,-0.029538,0.026380
59935,9.735520,-2.055414,1.250391,-0.600036,-0.024412,0.040111
59936,9.657858,-2.293808,1.183376,-0.566773,-0.024497,0.046598
59937,9.597226,-2.356297,1.152804,-0.484621,-0.020680,0.042279
59938,9.576002,-2.229215,1.185277,-0.414691,-0.016488,0.030686
59939,9.541227,-2.136037,1.202682,-0.362931,-0.009270,0.014907
59940,9.522461,-2.239567,1.139626,-0.328239,0.000916,0.002710
59941,9.470237,-2.470340,1.027559,-0.257473,-0.000529,-0.001480
59942,9.462123,-2.672968,0.963256,-0.136312,-0.000604,-0.012589
59943,9.539552,-2.670641,0.964641,0.007533,0.001295,-0.010676
59944,9.551313,-2.553471,0.993330,0.128064,-0.002227,-0.001076
59945,9.572566,-2.380911,1.137563,0.210240,-0.012850,0.003817
59946,9.613566,-2.113895,1.313127,0.239869,-0.018578,0.005387
59947,9.628771,-1.785932,1.323735,0.224992,-0.021447,0.002547
59948,9.655589,-1.637082,1.344986,0.145249,-0.025060,0.004801
59949,9.704084,-1.700655,1.335175,0.054203,-0.020714,0.007031
59950,9.714552,-1.804141,1.330808,-0.007192,-0.022307,0.008825
59951,9.672916,-1.911989,1.274737,-0.039110,-0.009549,0.004639
59952,9.637004,-1.961790,1.232123,-0.057164,-0.000621,0.004007
59953,9.616096,-2.051828,1.223645,-0.067071,-0.000719,0.008722
59954,9.540973,-2.135824,1.211727,-0.054988,0.005831,0.009299
59955,9.557867,-2.186999,1.198009,-0.025344,0.012775,0.005862
59956,9.487340,-2.136268,1.185631,0.011953,0.020011,0.003119
59957,9.532014,-2.115190,1.210465,0.027261,0.020598,0.004521
59958,9.524668,-2.097828,1.183971,0.039027,0.016182,0.006034
59959,9.585490,-2.121374,1.219257,0.054094,0.018306,0.001654
59960,9.586873,-2.042420,1.330771,0.064851,0.019851,-0.001200
59961,9.580074,-1.870110,1.397557,0.051515,0.027053,-0.004983
59962,9.571688,-1.846902,1.395672,0.005949,0.029431,-0.002053
59963,9.577101,-1.789096,1.411117,-0.046064,0.030844,0.002213
59964,9.587919,-1.827721,1.346661,-0.085463,0.035916,-0.000132
59965,9.608000,-1.893475,1.263251,-0.112682,0.040897,-0.012541
59966,9.631854,-1.961357,1.280123,-0.132698,0.042047,-0.010745
59967,9.615487,-1.916805,1.271341,-0.150363,0.042628,-0.018043
59968,9.590177,-1.914471,1.320899,-0.163859,0.044965,-0.036337
59969,9.690494,-1.973564,1.364301,-0.184694,0.051336,-0.046246
59970,9.712647,-2.111255,1.296017,-0.184075,0.067249,-0.053009
59971,9.689052,-2.192546,1.191060,-0.146942,0.082587,-0.073162
59972,9.630806,-2.089864,1.249600,-0.083273,0.090754,-0.090245
59973,9.627851,-1.995915,1.290312,-0.038693,0.101133,-0.107425
59974,9.609977,-1.930604,1.338192,-0.005186,0.111896,-0.123772
59975,9.601539,-2.038645,1.297831,0.026686,0.112936,-0.135707
59976,9.607343,-2.181147,1.315870,0.074663,0.109367,-0.134449
59977,9.584992,-2.318947,1.282455,0.136287,0.102757,-0.122203
59978,9.614416,-2.239621,1.308654,0.189095,0.089685,-0.104595
59979,9.640271,-2.080650,1.342608,0.224913,0.073311,-0.090178
59980,9.687136,-1.909966,1.398085,0.208912,0.056528,-0.065896
59981,9.782667,-1.805230,1.442422,0.177422,0.046492,-0.045657
59982,9.755482,-1.792299,1.521485,0.129466,0.043088,-0.038945
59983,9.707212,-1.801786,1.427705,0.088717,0.042320,-0.029915
59984,9.622935,-1.856399,1.315351,0.061201,0.042408,-0.034603
59985,9.599311,-1.863386,1.196533,0.046153,0.046817,-0.040248
59986,9.543717,-1.921147,1.136691,0.046183,0.047580,-0.053380
59987,9.519636,-1.991824,1.082215,0.063148,0.051950,-0.061292
59988,9.474538,-2.001957,1.089143,0.082382,0.049516,-0.064640
59989,9.501358,-1.922679,1.132116,0.111138,0.049575,-0.070903
59990,9.531932,-1.922836,1.167805,0.125045,0.046614,-0.080320
59991,9.570380,-1.874249,1.168393,0.133957,0.040258,-0.082484
59992,9.562164,-1.907503,1.233351,0.130087,0.037344,-0.082564
59993,9.555662,-1.945705,1.274139,0.126720,0.031916,-0.086118
59994,9.532468,-1.939088,1.303714,0.132689,0.029584,-0.087050
