// Start Time: Unknown
// Update Rate: 100.0Hz
// Filter Profile: human (46.1)
// Firmware Version: 4.3.5
PacketCounter,Acc_X,Acc_Y,Acc_Z,Gyr_X,Gyr_Y,Gyr_Z
62538,9.808702,-2.314445,1.547428,0.018682,-0.014593,0.028849
62539,9.786166,-2.328119,1.547693,0.011590,-0.020579,0.041329
62540,9.799394,-2.363258,1.538959,-0.001044,-0.012503,0.051103
62541,9.660144,-2.359760,1.560289,-0.000849,-0.015222,0.064861
62542,9.604266,-2.302917,1.595538,-0.009223,-0.010184,0.072727
62543,9.459435,-2.295428,1.583354,-0.022563,-0.008237,0.078054
62544,9.420931,-2.289846,1.537243,-0.026031,0.001560,0.078731
62545,9.312744,-2.295241,1.571337,-0.021922,0.005566,0.065877
62546,9.271427,-2.334819,1.554516,-0.013902,0.011220,0.063082
62547,9.286709,-2.324169,1.520875,0.009642,0.025864,0.051287
62548,9.261795,-2.279325,1.517861,0.021788,0.029521,0.042550
62549,9.267343,-2.181803,1.519521,0.029910,0.036336,0.028277
62550,9.274373,-2.142623,1.529404,0.016608,0.044876,0.020917
62551,9.346995,-2.079175,1.480204,-0.009406,0.043138,0.016095
62552,9.490506,-2.155712,1.502525,-0.029366,0.039942,0.013238
62553,9.784078,-2.147876,1.533584,-0.037727,0.035272,0.019491
62554,9.958322,-2.167329,1.613478,-0.025281,0.035130,0.028552
62555,9.900918,-2.054923,1.591505,-0.028217,0.041247,0.039552
62556,9.686406,-1.897128,1.565366,-0.035789,0.037329,0.051487
62557,9.562687,-1.817853,1.546899,-0.063097,0.024351,0.060018
62558,9.519220,-1.739123,1.515439,-0.092881,0.023699,0.057693
62559,9.553294,-1.700749,1.553344,-0.123175,0.014779,0.058927
62560,9.470957,-1.648695,1.557083,-0.157226,0.018910,0.048828
62561,9.479331,-1.673674,1.569193,-0.186857,0.019526,0.035107
62562,9.483438,-1.757587,1.500114,-0.204776,0.019842,0.019039
62563,9.439163,-1.847888,1.454185,-0.214651,0.025813,0.000215
62564,9.449840,-1.993310,1.425302,-0.203688,0.027136,-0.023229
62565,9.406380,-2.078941,1.379582,-0.179000,0.033549,-0.044067
62566,9.372759,-2.180569,1.347451,-0.140166,0.033278,-0.063462
62567,9.343565,-2.226529,1.342778,-0.102019,0.031215,-0.084568
62568,9.336955,-2.260136,1.337257,-0.069870,0.028933,-0.097884
62569,9.384262,-2.290089,1.342483,-0.053469,0.029582,-0.108549
62570,9.435480,-2.265822,1.375015,-0.044411,0.026395,-0.114767
62571,9.490361,-2.187613,1.434780,-0.042009,0.027218,-0.121728
62572,9.452746,-2.215496,1.363963,-0.064727,0.031399,-0.124896
62573,9.431243,-2.327347,1.345432,-0.084083,0.026887,-0.132837
62574,9.466752,-2.388965,1.309879,-0.087386,0.031953,-0.136551
62575,9.495147,-2.479769,1.376650,-0.082514,0.036164,-0.137888
62576,9.493142,-2.461399,1.344712,-0.070314,0.038189,-0.136812
62577,9.452044,-2.470358,1.349170,-0.061377,0.039831,-0.138403
62578,9.432905,-2.468872,1.352634,-0.061710,0.040782,-0.134878
62579,9.437578,-2.521751,1.306532,-0.056610,0.034827,-0.139697
62580,9.472119,-2.517302,1.320097,-0.048316,0.032893,-0.133283
62581,9.518367,-2.590917,1.352347,-0.039856,0.026206,-0.131473
62582,9.557629,-2.598880,1.345082,-0.027107,0.029384,-0.123038
62583,9.591959,-2.595405,1.358610,-0.022164,0.022086,-0.116483
62584,9.630975,-2.599377,1.404995,-0.024261,0.013552,-0.100418
62585,9.611246,-2.601879,1.406705,-0.029795,0.013652,-0.079565
62586,9.590953,-2.612182,1.353504,-0.038103,0.005197,-0.054057
62587,9.575062,-2.625985,1.387143,-0.047529,-0.003023,-0.030769
62588,9.570728,-2.613343,1.405782,-0.059358,-0.012123,-0.000518
62589,9.517188,-2.618743,1.391756,-0.071647,-0.023475,0.026337
62590,9.540890,-2.666979,1.446032,-0.091447,-0.032214,0.052539
62591,9.566092,-2.788646,1.395806,-0.114835,-0.042261,0.089231
62592,9.600313,-2.814839,1.432758,-0.129853,-0.057860,0.123718
62593,9.587300,-2.919095,1.441879,-0.140951,-0.075554,0.159714
62594,9.599327,-3.135485,1.458689,-0.137544,-0.097151,0.202249
62595,9.674866,-3.329411,1.415765,-0.120718,-0.113864,0.254890
62596,9.770971,-3.406126,1.392789,-0.086661,-0.137102,0.319030
62597,9.794906,-3.406883,1.306618,-0.071038,-0.155620,0.386879
62598,9.838460,-3.404773,1.217011,-0.075005,-0.186272,0.472802
62599,9.910829,-3.327281,0.940320,-0.107259,-0.218675,0.563381
62600,9.992990,-3.295357,0.595425,-0.152771,-0.264168,0.666900
62601,10.126353,-3.511663,0.757334,-0.214834,-0.282533,0.786000
62602,10.117670,-3.961276,1.067153,-0.276027,-0.277850,0.916845
62603,10.195182,-4.170318,1.702449,-0.304297,-0.254321,1.019502
62604,10.613985,-3.811542,2.922002,-0.391301,-0.144938,1.130788
62605,10.994535,-3.041164,3.817770,-0.623220,0.052030,1.224399
62606,11.304230,-2.453752,4.214189,-1.010133,0.292768,1.316893
62607,11.298236,-2.815840,3.371328,-1.459238,0.528833,1.425321
62608,11.608349,-4.510938,2.676523,-1.802544,0.687564,1.549227
62609,11.467398,-7.186847,1.749366,-1.765356,0.763238,1.840298
62610,10.006843,-10.347836,0.119246,-1.040890,0.689942,1.947310
62611,9.043503,-12.224489,-1.313001,0.435072,0.477909,1.768093
62612,8.854275,-11.579434,-1.759620,1.874799,0.157377,1.789529
62613,9.251253,-9.349863,-1.055791,2.980873,-0.066259,1.855703
62614,9.770128,-6.276850,0.629263,3.527005,-0.148955,1.831893
62615,10.146779,-3.171333,2.084025,3.459118,-0.084749,1.769006
62616,10.179027,-0.514548,2.854895,2.871035,0.049225,1.774177
62617,9.820217,0.878891,2.958677,1.898617,0.229851,1.845221
62618,9.141126,0.822172,2.891109,0.842004,0.420157,1.850973
62619,8.476030,0.151004,3.049207,-0.157718,0.615457,1.788046
62620,7.478933,-0.690509,2.954571,-1.047761,0.771066,1.699878
62621,6.400553,-1.952825,2.390954,-1.742408,0.812746,1.613251
62622,5.936061,-3.741680,1.921053,-2.111307,0.736851,1.599198
62623,6.045771,-6.293616,1.912690,-2.096792,0.604921,1.591859
62624,6.265075,-9.463869,1.547869,-1.579863,0.423909,1.633456
62625,6.183332,-12.277593,1.028927,-0.466522,0.191261,1.574625
62626,6.773023,-12.137384,0.949742,0.930712,-0.014749,1.455281
62627,7.221866,-9.691563,1.178983,1.921804,-0.215767,1.422401
62628,7.858807,-6.467819,2.149195,2.294368,-0.302689,1.354177
62629,8.388152,-3.889570,3.081870,1.993040,-0.274714,1.329497
62630,8.570163,-2.618471,3.399432,1.321853,-0.195056,1.363650
62631,8.237798,-3.011589,2.890223,0.647494,-0.088680,1.353760
62632,7.984684,-3.993210,2.348680,0.264816,0.027386,1.305278
62633,7.870640,-5.022535,2.173855,0.049093,0.169911,1.282928
62634,7.626770,-5.727874,2.467599,-0.087993,0.351333,1.276056
62635,7.128823,-6.041437,2.638344,-0.240565,0.486199,1.264420
62636,6.775423,-6.255774,2.909509,-0.383675,0.585523,1.236326
62637,6.620858,-6.846940,2.983013,-0.492738,0.607679,1.228991
62638,6.406846,-8.082603,2.610650,-0.434856,0.552579,1.256777
62639,6.290643,-9.400689,2.599945,-0.067868,0.449377,1.235089
62640,6.359972,-9.975292,2.629345,0.480138,0.317663,1.206044
62641,6.102780,-9.654072,2.029232,0.992945,0.112616,1.234049
62642,6.337541,-8.440085,2.024491,1.298210,-0.080741,1.277397
62643,6.502595,-6.825513,2.121325,1.280654,-0.199037,1.288101
62644,6.813169,-5.583684,2.651089,1.013928,-0.264536,1.285786
62645,6.910150,-5.449434,2.816054,0.643872,-0.236576,1.266763
62646,6.768502,-5.940478,2.456611,0.462109,-0.186556,1.207649
62647,6.732337,-6.439986,2.246229,0.395946,-0.079138,1.178823
62648,6.808538,-6.742260,2.591690,0.345318,0.095907,1.178452
62649,6.452039,-6.689160,3.170058,0.222231,0.287376,1.159342
62650,5.863834,-6.669973,3.500574,0.014054,0.450950,1.145104
62651,5.440431,-6.853292,3.800035,-0.202912,0.551627,1.115948
62652,5.162429,-7.431051,3.806885,-0.353641,0.586460,1.105713
62653,5.025074,-8.690729,3.656287,-0.319800,0.532749,1.114206
62654,5.035109,-10.383103,3.033417,-0.070859,0.380394,1.186730
62655,4.804554,-11.611856,2.090635,0.429335,0.182435,1.248033
62656,4.924710,-11.125646,1.861863,1.006238,-0.017144,1.240810
62657,4.996176,-9.543455,1.962912,1.259101,-0.189282,1.295466
62658,5.070360,-7.921350,2.357230,1.245565,-0.313707,1.301382
62659,5.243599,-7.228250,2.689781,1.039126,-0.385971,1.298473
62660,5.402515,-7.561010,2.826691,0.880871,-0.363690,1.310570
62661,5.334382,-7.846020,2.977981,0.832845,-0.267477,1.295060
62662,5.134488,-7.678615,3.144185,0.822674,-0.151967,1.282436
62663,4.971971,-7.330283,3.780917,0.728109,0.002930,1.273802
62664,4.532677,-6.940382,4.399998,0.501503,0.188302,1.268758
62665,3.964013,-6.762203,4.734261,0.213397,0.315655,1.246851
62666,3.599590,-7.045881,4.816942,-0.114536,0.386207,1.243470
62667,3.475191,-8.059752,4.728369,-0.318137,0.410383,1.250073
62668,3.300101,-9.567688,4.022534,-0.333992,0.354597,1.277772
62669,3.328537,-10.715601,3.667454,-0.059524,0.242137,1.294691
62670,3.266596,-10.975406,3.109274,0.302733,0.106160,1.325945
62671,3.223094,-10.295290,2.912534,0.647875,-0.052434,1.353000
62672,3.146090,-9.148568,3.088327,0.786920,-0.176631,1.377392
62673,2.803469,-8.194818,3.067880,0.746179,-0.300320,1.382471
62674,2.331813,-7.787269,2.899363,0.660964,-0.446885,1.353124
62675,2.049786,-7.629361,2.805129,0.638557,-0.604552,1.291036
62676,2.014773,-7.353055,2.842678,0.642617,-0.728107,1.235635
62677,2.168559,-6.663544,3.256983,0.636490,-0.798107,1.163994
62678,2.928331,-6.260890,4.358852,0.423458,-0.764841,1.164851
62679,3.344434,-6.231038,5.593529,0.035626,-0.560589,1.182614
62680,3.415686,-6.282362,6.855452,-0.530473,-0.249099,1.189562
62681,2.824599,-6.804965,6.124361,-1.145897,-0.000409,1.191853
62682,2.468970,-8.456396,3.964492,-1.553739,0.098309,1.213151
62683,2.541589,-10.931292,2.899721,-1.569981,0.143925,1.277862
62684,2.403327,-13.474295,3.291926,-1.096228,0.219074,1.290152
62685,1.349705,-15.749900,2.216351,-0.197841,0.083707,1.298305
62686,1.027922,-16.435662,1.349165,1.076907,-0.174345,1.263731
62687,1.331638,-14.520982,0.991575,2.176295,-0.439093,1.296149
62688,1.976113,-11.093799,1.576020,2.778750,-0.642814,1.333595
62689,2.490980,-7.945190,3.196774,2.619092,-0.738977,1.382177
62690,2.593404,-6.242298,4.510504,1.916344,-0.775218,1.457443
62691,2.330992,-6.583571,4.668189,1.110028,-0.800017,1.516585
62692,2.118202,-7.810814,4.214226,0.684467,-0.778181,1.503482
62693,1.997998,-9.077147,3.399899,0.595438,-0.752976,1.514651
62694,2.055602,-9.766472,3.433614,0.696538,-0.645774,1.564495
62695,1.867936,-9.500726,4.046308,0.823725,-0.498637,1.597289
62696,1.647057,-8.797041,5.062204,0.806304,-0.328207,1.620829
62697,1.242954,-8.073287,5.964083,0.672251,-0.160380,1.617573
62698,0.992463,-7.975300,6.172647,0.459151,-0.023658,1.631782
62699,0.713245,-8.796880,5.529884,0.363900,0.034746,1.663799
62700,0.456289,-9.759470,4.727541,0.474859,0.010698,1.689042
62701,0.111174,-10.368923,4.059926,0.727499,-0.080955,1.710059
62702,-0.024398,-10.082655,3.704217,0.991619,-0.228569,1.730095
62703,-0.021174,-8.902645,3.793013,1.110553,-0.384774,1.735407
62704,-0.083814,-7.899200,4.277957,0.992147,-0.517619,1.753145
62705,-0.152429,-7.649343,4.666132,0.729107,-0.626201,1.782867
62706,-0.398976,-8.065019,4.821112,0.525266,-0.703674,1.802308
62707,-0.638603,-8.420399,4.762524,0.513825,-0.765161,1.801530
62708,-0.920575,-8.300604,4.549131,0.706135,-0.818870,1.773987
62709,-0.707658,-7.836597,5.213805,0.921534,-0.833273,1.759614
62710,-0.546327,-7.284249,6.479967,1.007719,-0.711645,1.797673
62711,-0.255488,-6.286707,8.480872,0.862632,-0.507463,1.826915
62712,-0.063128,-5.564861,10.538775,0.371739,-0.181443,1.866435
62713,-0.073609,-5.458253,11.238052,-0.373305,0.186170,1.917225
62714,-0.563360,-5.865281,10.152196,-0.978463,0.534582,1.919686
62715,-1.297611,-7.244191,7.535800,-1.356851,0.734282,1.950239
62716,-1.852995,-9.061157,6.175778,-1.274245,0.823686,1.956617
62717,-2.708460,-10.251165,4.933427,-0.882974,0.778772,1.937464
62718,-3.317535,-10.891631,3.664744,-0.251080,0.555255,1.851637
62719,-3.240868,-10.633327,3.128880,0.430456,0.335631,1.743245
62720,-3.212958,-9.904195,2.489161,1.017753,0.104070,1.679009
62721,-3.199250,-9.035769,1.923901,1.463170,-0.161735,1.645042
62722,-2.977839,-8.368173,2.290215,1.728839,-0.392753,1.612101
62723,-2.993543,-7.577775,2.705696,1.803783,-0.587878,1.562527
62724,-2.991816,-6.787145,3.087087,1.713847,-0.787119,1.494444
62725,-2.811884,-6.370428,3.446696,1.560814,-0.946802,1.446556
62726,-2.533181,-6.702421,3.827274,1.408421,-1.010804,1.447975
62727,-2.592506,-7.141212,4.187079,1.353311,-1.036848,1.472365
62728,-2.459644,-7.239252,4.771933,1.313787,-1.039346,1.503748
62729,-2.252470,-6.826536,5.708346,1.257540,-0.966104,1.536284
62730,-2.007174,-6.196399,6.619178,1.085573,-0.856687,1.564296
62731,-2.050408,-5.499733,7.221789,0.823814,-0.713569,1.586605
62732,-2.401419,-4.953596,7.336742,0.544063,-0.595079,1.606425
62733,-2.784751,-4.889024,7.099146,0.244541,-0.532323,1.625533
62734,-3.170619,-5.071383,6.743399,0.024548,-0.509563,1.652108
62735,-3.526359,-5.417647,6.502411,-0.114591,-0.526829,1.638813
62736,-3.604535,-6.042771,6.003808,-0.171867,-0.592170,1.638166
62737,-3.404209,-6.585449,5.521460,-0.137518,-0.658117,1.641685
62738,-3.233947,-6.715967,5.313214,-0.067208,-0.738812,1.651809
62739,-3.108496,-6.582116,5.153315,-0.037313,-0.826653,1.688718
62740,-3.211104,-6.130344,5.240101,-0.054692,-0.897314,1.716634
62741,-3.465509,-5.506984,5.231489,-0.118417,-0.972379,1.709367
62742,-3.676460,-5.025502,5.084806,-0.249328,-1.056243,1.704149
62743,-3.639434,-4.635736,4.979443,-0.347333,-1.132961,1.668503
62744,-3.233682,-5.154074,5.552469,-0.360392,-1.174242,1.627399
62745,-2.781916,-6.530952,6.363832,-0.170694,-1.153521,1.627422
62746,-2.590273,-7.591050,6.819022,0.306720,-1.092362,1.629937
62747,-2.414010,-7.816186,7.094582,0.937056,-0.997459,1.659892
62748,-2.196540,-6.955191,7.647573,1.546003,-0.799339,1.717175
62749,-2.277161,-4.924031,8.780343,1.927621,-0.525759,1.743392
62750,-2.530141,-2.430759,9.674275,1.919804,-0.283007,1.701850
62751,-2.797238,0.035866,10.136232,1.412008,-0.082779,1.672636
62752,-3.324658,1.470246,9.541594,0.391698,0.096624,1.619376
62753,-4.080184,0.883845,8.418246,-0.583655,0.179528,1.568530
62754,-4.327611,-1.363827,7.496548,-1.202421,0.183253,1.504262
62755,-4.432556,-4.061350,5.973752,-1.278134,0.128068,1.458757
62756,-4.429647,-5.936127,4.756520,-0.776377,0.009993,1.386571
62757,-4.524385,-5.905483,4.701016,-0.197159,-0.113201,1.297876
62758,-4.788314,-4.004664,4.259102,0.035412,-0.318699,1.208476
62759,-4.790862,-1.837744,4.044163,-0.161520,-0.580150,1.127781
62760,-4.670121,-0.832413,4.724270,-0.665169,-0.785799,1.027532
62761,-4.450583,-1.635933,5.568950,-1.175646,-0.962658,0.920543
62762,-3.864828,-3.738351,6.647047,-1.384268,-1.079882,0.843329
62763,-3.303791,-5.768380,7.909464,-1.141196,-1.046302,0.816233
62764,-3.071891,-6.213894,9.303215,-0.587628,-0.900332,0.772922
62765,-2.814499,-5.031138,10.698631,-0.098738,-0.657997,0.704392
62766,-2.547616,-3.243052,11.505499,0.080160,-0.375934,0.644640
62767,-2.635740,-1.657895,11.616355,-0.125543,-0.051127,0.573052
62768,-3.256449,-1.306409,10.553758,-0.571270,0.174324,0.521817
62769,-4.095703,-1.779228,9.363024,-0.960421,0.302003,0.464616
62770,-4.995828,-2.906496,7.944458,-1.213373,0.336436,0.403039
62771,-5.637669,-4.229143,6.263412,-1.259653,0.251059,0.339854
62772,-5.752059,-5.008187,4.761736,-1.130305,0.077328,0.249520
62773,-5.700051,-5.108881,4.120598,-0.983661,-0.128493,0.179385
62774,-5.626366,-4.585859,4.294838,-0.941754,-0.349501,0.128254
62775,-5.195726,-4.376543,5.310782,-1.007554,-0.552596,0.061261
62776,-4.413738,-5.108559,6.313144,-1.008054,-0.663367,0.010906
62777,-3.951461,-6.280210,7.142134,-0.726944,-0.677799,-0.040259
62778,-3.836391,-6.598401,8.205806,-0.156208,-0.591729,-0.097090
62779,-3.737968,-5.298765,9.456397,0.396519,-0.430405,-0.210815
62780,-3.099676,-3.603930,10.452626,0.662686,-0.236308,-0.364024
62781,-2.308002,-2.997880,10.692835,0.551790,0.046451,-0.524169
62782,-2.004073,-3.293092,10.090955,0.485363,0.352120,-0.703439
62783,-2.071097,-3.714619,8.790785,0.521655,0.566617,-0.874198
62784,-2.615684,-3.879413,7.305559,0.639156,0.717452,-1.016298
62785,-3.334480,-3.688022,5.681887,0.733833,0.720206,-1.118680
62786,-4.150671,-3.010929,4.776206,0.709835,0.642940,-1.230094
62787,-4.666148,-2.470169,4.878438,0.363817,0.472342,-1.321865
62788,-4.658805,-2.660359,5.955619,-0.207003,0.332808,-1.370950
62789,-4.550686,-3.476425,6.510256,-0.831766,0.232930,-1.375029
62790,-4.221827,-5.444040,5.859475,-1.379973,0.088502,-1.276077
62791,-4.296200,-7.720965,4.477929,-1.615455,-0.064900,-1.115937
62792,-5.179737,-9.299056,3.539918,-1.459847,-0.237324,-0.978176
62793,-5.819370,-9.106992,4.033749,-1.016386,-0.467413,-0.910229
62794,-5.692503,-8.171668,5.323086,-0.689130,-0.653050,-0.779522
62795,-5.036419,-7.224615,7.272357,-0.486827,-0.690998,-0.662123
62796,-4.414761,-6.331852,8.733102,-0.433706,-0.624029,-0.569633
62797,-3.903712,-5.450151,9.923511,-0.498072,-0.460424,-0.515613
62798,-3.295722,-4.917920,10.532230,-0.647040,-0.227732,-0.488309
62799,-2.787122,-5.067595,10.461502,-0.702487,0.033424,-0.500554
62800,-2.531815,-5.918899,9.767951,-0.524245,0.285202,-0.537688
62801,-2.762768,-6.404272,9.274132,-0.087875,0.490397,-0.615076
62802,-3.062448,-5.907622,8.760666,0.412980,0.598775,-0.738995
62803,-3.241054,-4.913654,8.179287,0.768434,0.633238,-0.860876
62804,-3.510395,-3.870801,7.670266,0.910132,0.614687,-1.026422
62805,-3.599602,-2.727533,7.486058,0.846438,0.558028,-1.231955
62806,-3.499690,-1.619533,7.856478,0.605050,0.489005,-1.448885
62807,-3.050318,-1.196168,8.518739,0.196546,0.442426,-1.645597
62808,-2.459037,-1.854748,8.828209,-0.155104,0.458838,-1.847760
62809,-1.859888,-3.129833,9.040966,-0.285919,0.519824,-2.048444
62810,-1.424331,-4.694047,8.924137,-0.224698,0.594698,-2.219414
62811,-1.038475,-6.385510,8.502416,-0.045703,0.669255,-2.305670
62812,-0.816033,-7.296326,8.300054,0.279681,0.750993,-2.378677
62813,-0.847023,-7.144168,8.314076,0.516502,0.820513,-2.421525
62814,-1.149855,-6.292500,8.174394,0.537031,0.866224,-2.457404
62815,-1.414288,-6.178215,8.282917,0.475832,0.881889,-2.491407
62816,-1.682219,-7.464919,8.517426,0.381546,0.916308,-2.496427
62817,-2.341356,-9.576255,8.496836,0.381409,0.944443,-2.395484
62818,-2.899170,-12.673190,7.411393,0.498436,0.919149,-2.154788
62819,-3.311454,-14.603566,6.491738,1.124112,0.929654,-1.991849
62820,-3.384689,-13.509636,6.433627,1.920713,0.908799,-1.873894
62821,-3.557026,-10.003902,6.895158,2.633629,0.874428,-1.857947
62822,-3.363104,-5.588108,7.658562,3.097823,0.839508,-1.969640
62823,-3.043399,-1.354066,8.650696,3.137797,0.773972,-2.169217
62824,-2.168535,1.584900,9.605179,2.462741,0.603778,-2.233133
62825,-0.996118,1.895270,9.995322,1.125531,0.508737,-2.101612
62826,-0.276461,0.297478,9.796607,-0.170318,0.525205,-2.095437
62827,0.324909,-1.902296,9.004408,-1.348944,0.562915,-2.107089
62828,0.418977,-4.589179,7.048872,-1.892143,0.625107,-2.114990
62829,0.067608,-6.038224,5.770007,-1.672616,0.696634,-2.278566
62830,-0.156561,-7.022035,5.529269,-0.997284,0.749533,-2.426713
62831,-0.003394,-8.144135,6.042377,-0.012159,0.862652,-2.522907
62832,0.255602,-8.871732,6.946158,1.250750,1.030203,-2.626569
62833,-0.003353,-8.156758,7.530408,2.355501,1.148531,-2.684850
62834,-0.254645,-5.901006,8.105869,3.060048,1.189542,-2.706834
62835,-0.412772,-2.448616,8.910532,3.148431,1.200970,-2.825410
62836,-0.065402,0.601877,9.662753,2.248314,1.139801,-2.910665
62837,0.866490,1.439868,9.385675,0.672911,1.087394,-2.843904
62838,1.812422,-0.576728,8.844898,-0.714151,1.123960,-2.866936
62839,2.388179,-4.870856,8.071205,-1.599785,1.149268,-2.797146
62840,2.072122,-9.557396,7.114808,-1.305520,1.167614,-2.771110
62841,1.737694,-11.983002,6.988265,-0.086596,1.203189,-2.893604
62842,1.453658,-11.601685,7.385662,1.185157,1.187173,-2.904830
62843,1.218683,-9.242532,7.516572,2.063172,1.130281,-2.866018
62844,0.975189,-6.119620,7.785411,2.363242,1.068093,-2.885104
62845,0.430272,-3.294804,6.912492,2.082129,0.904420,-2.919656
62846,0.938113,-2.259903,7.034931,1.510703,0.775060,-2.928112
62847,1.522830,-3.423486,7.463296,0.968330,0.829634,-2.907685
62848,1.911831,-5.327174,8.352620,0.753657,0.897333,-2.893561
62849,2.236180,-6.513282,9.015575,0.745897,1.005852,-2.855029
62850,2.177317,-6.213472,9.220842,0.647830,1.112473,-2.767999
62851,2.554938,-5.433694,9.750669,0.305128,1.209461,-2.656865
62852,2.803714,-4.479425,10.517031,-0.257504,1.342380,-2.604342
62853,2.409211,-4.940024,9.974340,-0.827886,1.392511,-2.528586
62854,2.041355,-6.939015,8.791008,-1.039747,1.364793,-2.429256
62855,1.552215,-9.544114,7.293082,-0.701614,1.304442,-2.306471
62856,0.940308,-11.289342,6.104654,0.238319,1.188667,-2.262396
62857,0.609529,-10.473530,6.140986,1.327287,1.027825,-2.265212
62858,0.645848,-8.291576,6.687108,2.066173,0.852116,-2.235796
62859,1.046526,-5.637802,8.084589,2.301353,0.736521,-2.230308
62860,1.357019,-3.281983,9.296227,2.010297,0.665574,-2.219518
62861,1.279058,-1.505088,9.260636,1.379843,0.612141,-2.244551
62862,1.574641,-1.720451,8.638592,0.683583,0.587546,-2.222124
62863,2.078824,-3.213181,8.630081,0.303179,0.724171,-2.235403
62864,1.975798,-4.903405,8.226822,0.176230,0.858337,-2.206371
62865,1.640928,-5.622740,8.502339,0.387092,0.951752,-2.197254
62866,1.215049,-4.678263,9.173005,0.524618,1.023794,-2.226472
62867,0.781034,-3.026009,9.606610,0.449079,1.023662,-2.256857
62868,0.759647,-1.858893,9.789065,0.091752,0.965760,-2.292148
62869,1.286747,-1.878306,9.792822,-0.359792,0.944889,-2.341360
62870,1.661659,-2.752754,9.512735,-0.670822,0.947838,-2.385586
62871,1.891454,-4.337208,9.160439,-0.783021,0.938368,-2.401606
62872,2.208287,-5.912397,9.111938,-0.637214,0.919603,-2.385908
62873,2.467121,-6.642731,9.042049,-0.298630,0.890042,-2.364716
62874,2.524402,-6.447536,9.081078,0.099459,0.853559,-2.340106
62875,2.315025,-5.659642,9.310031,0.395369,0.803627,-2.320500
62876,2.347831,-5.195325,9.531395,0.502782,0.763824,-2.261809
62877,2.275381,-4.483386,9.437642,0.526789,0.728334,-2.234560
62878,1.710040,-3.138406,8.463484,0.498206,0.638442,-2.299792
62879,1.760001,-2.901313,7.582107,0.348102,0.532250,-2.294519
62880,2.373024,-3.943892,7.362113,0.245749,0.515762,-2.230628
62881,3.087474,-5.475747,7.750823,0.246275,0.586205,-2.163679
62882,2.953184,-6.077765,8.394126,0.389571,0.700855,-2.089978
62883,2.219314,-4.826808,9.173203,0.458999,0.733178,-2.034894
62884,1.837480,-2.607602,9.648073,0.236460,0.724007,-2.025295
62885,1.926338,-1.193895,10.039238,-0.324793,0.761425,-2.037922
62886,1.819385,-1.822461,9.499043,-1.022561,0.802804,-1.999274
62887,1.625605,-3.384605,9.118763,-1.390633,0.795609,-2.017894
62888,1.705352,-4.794837,8.789473,-1.481217,0.743941,-2.030017
62889,2.018244,-5.575254,8.617109,-1.352082,0.681083,-2.033409
62890,2.238326,-6.016245,8.553300,-1.120895,0.627856,-2.003300
62891,2.279430,-6.391900,8.294726,-0.823513,0.563105,-1.954864
62892,2.278577,-6.576400,7.479063,-0.457017,0.501440,-1.897634
62893,2.262233,-6.335561,6.717668,-0.006042,0.428478,-1.846355
62894,2.705296,-6.012926,6.676910,0.436063,0.439319,-1.753740
62895,2.909438,-5.475544,7.410379,0.755329,0.474503,-1.613546
62896,3.027606,-4.759972,8.862041,0.841403,0.575441,-1.485613
62897,2.740521,-4.088926,9.914233,0.559763,0.659790,-1.365921
62898,2.172653,-3.602791,9.999184,0.092715,0.693431,-1.304992
62899,1.861620,-3.669412,9.614272,-0.438707,0.658042,-1.258039
62900,1.538643,-3.971685,9.010870,-0.891978,0.603456,-1.226100
62901,1.308620,-4.329886,8.857985,-1.194954,0.516513,-1.211086
62902,1.484431,-4.916358,8.817827,-1.387593,0.441430,-1.167152
62903,1.628347,-5.637832,8.648129,-1.358649,0.403578,-1.134009
62904,1.766226,-6.266172,8.630470,-1.087798,0.398668,-1.114705
62905,1.742474,-6.597115,8.837048,-0.692669,0.428356,-1.099532
62906,1.675356,-6.211600,9.095145,-0.321830,0.436825,-1.079855
62907,1.718569,-5.320306,9.234131,-0.117633,0.420451,-1.072989
62908,1.876663,-4.953255,9.307968,-0.107067,0.411598,-1.054287
62909,1.954391,-5.124105,9.348345,-0.189401,0.409467,-1.012961
62910,1.722381,-5.122759,8.988356,-0.255904,0.384003,-0.999686
62911,1.060561,-4.458844,7.074636,-0.292673,0.298614,-1.016854
62912,0.870175,-4.120595,5.366556,-0.210157,0.169002,-1.070356
62913,1.460271,-5.461084,4.995848,0.015629,0.141130,-1.058117
62914,2.196485,-6.974550,5.818504,0.576022,0.204354,-0.979551
62915,2.488406,-7.287665,7.730834,1.113389,0.349303,-0.916770
62916,1.870413,-5.444559,9.433662,1.312712,0.451505,-0.829462
62917,1.333645,-2.627981,10.179370,0.890960,0.411063,-0.798230
62918,1.433594,-1.285318,10.359603,-0.114136,0.350966,-0.767838
62919,1.579135,-2.252035,10.263635,-1.064532,0.324497,-0.778701
62920,1.599129,-4.708946,9.676494,-1.497063,0.262036,-0.789641
62921,1.537893,-6.768696,8.829492,-1.209881,0.218833,-0.801558
62922,1.501942,-6.835637,8.291183,-0.549789,0.147823,-0.814081
62923,2.177015,-6.496569,8.566446,-0.025574,0.130418,-0.760294
62924,2.313547,-6.120193,9.089293,0.287094,0.168339,-0.666628
62925,1.579609,-5.274135,8.226737,0.397202,0.114914,-0.609095
62926,0.891102,-3.718042,5.638248,0.439036,-0.095595,-0.597146
62927,1.966248,-4.088485,4.777343,0.378222,-0.210221,-0.503059
62928,2.930287,-6.536322,5.992014,0.446343,-0.097139,-0.282022
62929,2.760851,-7.866406,8.098735,0.736719,0.003879,-0.071355
62930,2.199638,-6.512754,9.259713,0.885186,-0.014687,0.104944
62931,1.859670,-4.093532,9.462163,0.575393,-0.073954,0.257625
62932,1.452923,-2.887459,9.260161,-0.205686,-0.157253,0.406581
62933,1.584510,-3.895248,8.784965,-0.946569,-0.264174,0.535340
62934,1.974109,-6.065383,8.448305,-1.310725,-0.354571,0.664315
62935,2.287675,-8.032247,8.088778,-1.152134,-0.425858,0.813972
62936,2.403640,-8.851576,7.844013,-0.700504,-0.486712,0.961558
62937,2.511181,-8.556323,7.582009,-0.227794,-0.543550,1.099820
62938,2.596307,-8.012421,7.438379,0.091587,-0.590548,1.251475
62939,2.658471,-7.873128,7.080453,0.378405,-0.634017,1.406103
62940,2.730109,-7.867591,6.828599,0.732774,-0.725008,1.532713
62941,2.927016,-7.178331,7.000453,1.108649,-0.806760,1.679851
62942,3.318403,-6.244805,7.337237,1.365394,-0.853250,1.838061
62943,3.981045,-5.992947,8.109005,1.398794,-0.801918,2.073997
62944,4.163313,-6.415506,8.604263,1.235848,-0.715885,2.332234
62945,4.019063,-7.056055,8.734339,0.995826,-0.645067,2.538505
62946,3.724752,-7.173931,8.712927,0.784976,-0.593018,2.703634
62947,3.446109,-6.588279,8.870999,0.572230,-0.557889,2.817305
62948,3.078747,-5.661801,8.982642,0.287893,-0.537840,2.870939
62949,2.635269,-4.882937,9.240094,0.009568,-0.532297,2.873869
62950,2.249990,-4.639521,9.373522,-0.253916,-0.546950,2.860152
62951,1.959249,-4.854024,9.381206,-0.358582,-0.550217,2.806036
62952,1.596919,-5.166273,9.363340,-0.305959,-0.575922,2.745394
62953,1.445870,-5.280016,9.448169,-0.163893,-0.597599,2.693109
62954,1.523079,-5.041351,9.493883,-0.005735,-0.614594,2.643957
62955,1.603522,-4.608277,9.500029,0.128405,-0.599194,2.581533
62956,1.582459,-4.213827,9.684813,0.207785,-0.589268,2.522766
62957,1.334981,-3.741976,9.616914,0.244895,-0.548343,2.438324
62958,0.986353,-2.979900,9.047410,0.256681,-0.557509,2.331458
62959,0.957097,-2.507119,8.365677,0.210168,-0.591805,2.234979
62960,1.080005,-2.595871,7.892871,0.153475,-0.577173,2.164335
62961,1.206010,-3.331727,8.013117,0.103203,-0.544167,2.112493
62962,1.373171,-4.111088,8.383434,0.108594,-0.489241,2.070578
62963,1.541387,-4.199493,9.163422,0.146056,-0.409895,2.032238
62964,1.383947,-3.539057,9.985905,0.099875,-0.345569,2.005822
62965,1.374938,-2.838367,10.504358,-0.118621,-0.309472,1.982212
62966,1.305218,-2.707591,10.528329,-0.460607,-0.297805,1.971086
62967,1.236360,-3.428475,10.154616,-0.699774,-0.310417,1.956966
62968,1.158990,-4.441583,9.767934,-0.727068,-0.328665,1.928661
62969,1.019233,-5.150863,9.445788,-0.530821,-0.365171,1.901047
62970,0.938643,-5.247268,9.185970,-0.275812,-0.407381,1.875789
62971,1.004631,-4.931121,8.809174,-0.094726,-0.458708,1.864489
62972,1.116455,-4.416335,8.871002,-0.010178,-0.480524,1.848672
62973,0.892309,-3.808470,8.975212,-0.041140,-0.489537,1.813585
62974,0.617263,-3.348362,8.929609,-0.119509,-0.536549,1.773919
62975,0.636175,-3.533576,8.524875,-0.234422,-0.558630,1.752984
62976,0.770463,-4.282660,8.223665,-0.309602,-0.551309,1.766457
62977,0.769603,-5.294467,8.038239,-0.293505,-0.492705,1.764265
62978,0.796330,-6.062647,8.360099,-0.097491,-0.415682,1.752858
62979,0.604851,-5.689368,8.578681,0.178054,-0.351969,1.741940
62980,0.778567,-4.860713,9.559276,0.302846,-0.277519,1.737507
62981,0.724210,-4.056041,10.476918,0.168198,-0.174300,1.757133
62982,0.575066,-3.725896,10.679193,-0.181199,-0.144818,1.782638
62983,0.649195,-4.492097,10.348357,-0.538607,-0.122078,1.813270
62984,0.486127,-5.625245,9.860229,-0.705008,-0.123446,1.842659
62985,0.416184,-7.070736,8.978932,-0.662996,-0.225703,1.897760
62986,0.586990,-8.704951,8.232470,-0.394841,-0.301418,1.997458
62987,0.340792,-9.325862,6.922957,-0.004519,-0.416335,2.089768
62988,0.447393,-8.919405,5.971689,0.341928,-0.633294,2.201721
62989,0.812858,-7.675195,6.271505,0.594404,-0.778013,2.305651
62990,0.644952,-6.328853,6.884916,0.697821,-0.918573,2.397194
62991,0.400664,-5.564940,7.142140,0.586414,-1.080754,2.503072
62992,0.100476,-5.136125,6.679762,0.366268,-1.205974,2.599691
62993,0.141001,-5.239814,6.491807,0.105385,-1.290989,2.681048
62994,0.700051,-6.235590,7.068566,-0.069791,-1.279237,2.792705
62995,1.240984,-7.338829,8.622307,0.018168,-1.128356,2.889970
62996,1.005592,-7.216613,9.794868,0.350320,-0.942080,2.957482
62997,0.574548,-5.795526,10.309050,0.689061,-0.797718,2.985878
62998,0.408878,-3.811280,10.290328,0.820335,-0.628831,2.999948
62999,0.048874,-2.064948,10.187798,0.644462,-0.487241,2.994788
63000,-0.230641,-1.026631,10.072557,0.222011,-0.404848,2.990302
63001,-0.435615,-0.885068,9.771282,-0.268394,-0.367870,2.980006
63002,-0.635540,-1.412500,9.297632,-0.614196,-0.376921,2.936505
63003,-0.771479,-2.223089,8.966026,-0.789997,-0.416979,2.877218
63004,-0.883277,-2.762206,8.886045,-0.762908,-0.469489,2.796035
63005,-0.852592,-3.082363,9.138263,-0.693252,-0.527148,2.712623
63006,-0.862891,-3.268006,9.342752,-0.577243,-0.551767,2.649858
63007,-0.988535,-2.700308,9.290769,-0.472716,-0.589324,2.545638
63008,-0.994621,-1.805115,8.884927,-0.442119,-0.649540,2.439907
63009,-1.059674,-1.210151,8.278969,-0.473690,-0.712046,2.310188
63010,-0.864464,-1.474894,8.085105,-0.544484,-0.742801,2.217074
63011,-0.763958,-2.333405,8.274572,-0.562913,-0.707498,2.144958
63012,-0.902693,-3.099088,8.646631,-0.441365,-0.640783,2.059723
63013,-1.117000,-3.270969,9.148774,-0.260289,-0.567795,1.950709
63014,-1.150720,-2.998155,9.871000,-0.057663,-0.463430,1.847024
63015,-1.210504,-2.763671,10.330278,0.001625,-0.331453,1.775253
63016,-1.391670,-2.598795,10.434517,-0.065124,-0.212317,1.732532
63017,-1.677554,-2.812963,9.989330,-0.242534,-0.136017,1.714545
63018,-1.969943,-3.384701,9.493628,-0.414071,-0.125523,1.725308
63019,-2.238971,-3.977025,8.901195,-0.542634,-0.158773,1.765410
63020,-2.485429,-4.560687,8.360501,-0.646100,-0.250933,1.809414
63021,-2.539458,-4.916499,7.842592,-0.672724,-0.399345,1.817196
63022,-2.537255,-4.737647,7.247019,-0.671081,-0.586664,1.836030
63023,-2.357536,-4.314877,6.992841,-0.634061,-0.757156,1.867894
63024,-2.210918,-3.792238,7.321476,-0.580209,-0.892736,1.848601
63025,-1.952266,-3.652804,7.966951,-0.521988,-0.993349,1.796016
63026,-1.421907,-3.952033,8.173769,-0.485611,-1.049997,1.793836
63027,-1.010043,-4.277905,8.496423,-0.423253,-1.040098,1.801849
63028,-0.833285,-4.541377,9.108756,-0.362971,-0.954614,1.765572
63029,-0.627483,-4.715488,9.963478,-0.201656,-0.800602,1.733205
63030,-0.563938,-4.408072,10.680434,0.011223,-0.606113,1.691173
63031,-0.668252,-3.426099,11.322956,0.157954,-0.412063,1.632682
63032,-0.931437,-2.562203,11.410421,0.079816,-0.225330,1.621581
63033,-1.465242,-2.100753,10.805176,-0.151370,-0.096015,1.608242
63034,-1.831620,-2.532770,9.808569,-0.436830,-0.056092,1.595382
63035,-2.072063,-3.436629,8.949067,-0.648873,-0.069902,1.590476
63036,-2.182403,-4.330782,8.077369,-0.730978,-0.136781,1.590030
63037,-2.237703,-4.930122,7.244313,-0.735899,-0.247340,1.599799
63038,-2.387134,-4.750864,6.625430,-0.760425,-0.364413,1.619615
63039,-2.607541,-3.946220,6.518664,-0.911325,-0.538177,1.637560
63040,-2.650953,-2.905645,7.039149,-1.294042,-0.701831,1.652079
63041,-2.838783,-2.155911,7.842211,-1.860133,-0.853816,1.665420
63042,-2.874353,-2.191224,8.462826,-2.505145,-0.983524,1.685293
63043,-2.704490,-3.600604,8.317566,-3.012952,-1.071883,1.695157
63044,-2.268123,-6.188371,7.965033,-3.008968,-1.091423,1.683941
63045,-1.764773,-8.678063,8.095383,-2.244378,-0.988333,1.596668
63046,-1.272017,-9.326995,9.425543,-0.802609,-0.778404,1.452692
63047,-0.705732,-7.315583,10.988819,0.607003,-0.541857,1.328276
63048,-0.257711,-3.637915,12.239150,1.647653,-0.232832,1.182236
63049,-0.459011,0.379346,13.156695,1.916655,0.090426,0.977409
63050,-1.069021,3.145401,12.841399,1.162252,0.358391,0.792383
63051,-2.067106,3.760002,10.617658,-0.088612,0.528389,0.623808
63052,-3.229796,2.430895,8.082669,-1.219966,0.544813,0.478998
63053,-4.315493,-0.604935,5.260836,-1.957492,0.388943,0.354675
63054,-4.421670,-3.773674,3.706371,-1.896094,0.105262,0.186211
63055,-3.718662,-5.647643,3.767883,-1.442184,-0.174562,0.018037
63056,-2.966274,-5.860063,5.235274,-0.798332,-0.376617,-0.146637
63057,-2.513820,-4.722197,6.921752,-0.411949,-0.527239,-0.247210
63058,-2.100206,-3.589548,8.407526,-0.296915,-0.578898,-0.345286
63059,-1.642594,-3.295552,9.627874,-0.401219,-0.504692,-0.449367
63060,-1.073149,-4.026948,10.491409,-0.454136,-0.318859,-0.522306
63061,-0.589860,-5.027506,11.033127,-0.315052,-0.032591,-0.591683
63062,-0.132346,-5.653152,11.245287,0.022379,0.344236,-0.657160
63063,-0.102203,-5.470580,10.973695,0.411380,0.790808,-0.716338
63064,-0.855017,-4.605868,10.301631,0.716549,1.114632,-0.771968
63065,-1.369193,-3.642364,8.673014,0.772804,1.302989,-0.813998
63066,-1.995026,-3.301367,7.283200,0.544394,1.365650,-0.825893
63067,-2.773946,-3.627142,6.184209,0.095985,1.330806,-0.793289
63068,-3.686053,-4.248015,4.965078,-0.385726,1.195569,-0.744730
63069,-4.344025,-5.227326,3.352852,-0.861067,0.944768,-0.633212
63070,-5.064299,-6.290502,1.679261,-1.195302,0.611647,-0.477470
63071,-5.445231,-6.806949,1.348076,-1.322637,0.214500,-0.418523
63072,-5.205991,-6.602291,2.366133,-1.328780,-0.174041,-0.373789
63073,-4.357216,-6.197163,4.108937,-1.251838,-0.490897,-0.341757
63074,-3.469448,-6.040390,5.835001,-1.110414,-0.657461,-0.310802
63075,-2.543836,-6.142706,7.876360,-0.887634,-0.671159,-0.322587
63076,-1.480978,-5.874274,10.035373,-0.501603,-0.484466,-0.376258
63077,-0.544377,-4.668900,11.874775,-0.110567,-0.110740,-0.516948
63078,0.046204,-2.960781,12.811179,0.048807,0.378771,-0.667752
63079,0.284941,-1.495027,12.721024,-0.006308,0.914169,-0.857120
63080,0.167418,-1.167911,11.530799,-0.223266,1.403800,-1.072806
63081,-0.269104,-2.060358,9.677507,-0.333575,1.771329,-1.287160
63082,-0.630407,-3.240188,7.880603,-0.342893,1.983373,-1.479705
63083,-1.204226,-4.008839,5.930027,-0.237453,2.036027,-1.657081
63084,-1.978477,-4.178530,4.416802,-0.261011,1.933776,-1.819726
63085,-2.725303,-4.151793,3.126240,-0.553376,1.731449,-1.905369
63086,-3.275460,-3.940503,2.177359,-1.064976,1.427836,-1.984700
63087,-3.427169,-4.488093,1.522470,-1.662979,1.072792,-2.032896
63088,-3.328918,-5.987331,1.639041,-2.113640,0.735220,-2.026645
63089,-3.065814,-7.881227,2.121063,-2.245549,0.415876,-1.991388
63090,-2.690881,-9.453071,2.143141,-1.994671,0.148447,-1.961239
63091,-2.402216,-10.131163,3.111524,-1.427590,-0.015716,-1.963903
63092,-2.187437,-9.482354,4.881086,-0.884856,-0.074821,-1.923505
63093,-1.895517,-7.897006,6.728456,-0.527948,-0.052720,-1.912424
63094,-1.280835,-6.410223,8.669610,-0.489730,0.070892,-1.928073
63095,-0.722511,-5.665964,9.702038,-0.713827,0.302254,-1.933933
63096,-0.410725,-5.462546,9.944472,-0.993484,0.603549,-1.953881
63097,-0.332365,-6.195321,9.107906,-1.284579,0.907314,-1.946553
63098,-0.604603,-7.752326,7.662272,-1.473976,1.171778,-1.890496
63099,-1.042496,-9.406100,6.192624,-1.384287,1.357186,-1.841087
63100,-1.533748,-10.360982,5.051181,-1.016422,1.413838,-1.825970
63101,-1.716431,-10.415595,4.118979,-0.594196,1.365710,-1.832291
63102,-1.597688,-9.623015,3.299744,-0.398194,1.236545,-1.809848
63103,-1.371775,-8.286640,2.912256,-0.528245,1.006953,-1.798890
63104,-0.888225,-7.329339,2.865032,-1.069395,0.737924,-1.754687
63105,-0.572986,-7.196195,2.687946,-1.803468,0.469885,-1.715176
63106,-0.376461,-8.155763,2.690404,-2.431818,0.204706,-1.684444
63107,-0.473965,-9.599014,2.361579,-2.704109,-0.035748,-1.656394
63108,-0.577369,-10.704668,1.848992,-2.497250,-0.249107,-1.669072
63109,-0.188930,-11.620460,1.972361,-1.907470,-0.369071,-1.690388
63110,0.480345,-12.186144,3.264751,-1.116211,-0.321801,-1.709233
63111,0.947398,-11.465876,5.100463,-0.305027,-0.146263,-1.743029
63112,1.154746,-9.743668,6.706307,0.256018,0.082691,-1.778006
63113,1.307311,-7.315334,7.764717,0.455492,0.334336,-1.838002
63114,1.851603,-5.326344,7.854839,0.076259,0.553803,-1.895701
63115,2.563989,-5.341974,7.016669,-0.722345,0.760318,-1.887175
63116,2.988246,-6.833771,5.508381,-1.463382,0.961030,-1.869390
63117,2.689861,-9.251407,3.434822,-1.873348,1.063825,-1.825287
63118,1.771689,-11.782104,1.722822,-1.718806,1.099928,-1.775272
63119,0.812288,-13.173228,0.748284,-1.121219,1.017920,-1.792433
63120,0.537135,-12.767824,0.800748,-0.364628,0.820734,-1.833080
63121,0.717187,-11.355079,1.105682,0.167365,0.585396,-1.830562
63122,0.929879,-9.490905,1.716614,0.367222,0.358558,-1.816535
63123,1.174876,-7.619245,2.315519,0.218660,0.162350,-1.834713
63124,1.500802,-6.057634,2.968604,-0.200829,-0.007194,-1.868631
63125,2.093273,-5.328361,3.632241,-0.772335,-0.097228,-1.906540
63126,2.370561,-5.690906,3.586560,-1.281863,-0.112075,-1.959210
63127,2.830359,-7.098273,3.484606,-1.530271,-0.057813,-2.010095
63128,3.174969,-9.071947,3.440544,-1.391647,0.089238,-2.034798
63129,3.302395,-10.847538,3.487943,-0.922526,0.268722,-2.042961
63130,3.255152,-11.630129,3.544728,-0.241066,0.455760,-2.043896
63131,3.112564,-10.526227,3.672613,0.248456,0.585173,-2.019198
63132,3.173439,-8.172246,3.527239,0.287577,0.631728,-1.980859
63133,3.441406,-5.995343,3.441415,-0.239920,0.641331,-1.972715
63134,3.905869,-5.327539,3.425816,-1.175746,0.618087,-1.938923
63135,4.243152,-6.982926,2.779647,-2.005039,0.573485,-1.905657
63136,4.372683,-9.945176,1.659528,-2.324982,0.478901,-1.845066
63137,4.346498,-13.120033,0.560812,-1.968049,0.348241,-1.771606
63138,4.495367,-14.717655,-0.239908,-1.222076,0.212092,-1.698042
63139,4.762006,-13.038347,0.444317,-0.503116,0.114324,-1.624929
63140,4.440062,-9.859693,0.970792,-0.329422,-0.023576,-1.596247
63141,4.224284,-6.792654,1.695525,-0.666001,-0.238222,-1.616265
63142,5.203667,-6.013086,2.570438,-1.409379,-0.394559,-1.527741
63143,6.274320,-8.143379,2.922754,-2.039050,-0.384592,-1.416752
63144,6.900187,-11.158064,3.095965,-2.170821,-0.273893,-1.314807
63145,6.768355,-13.295580,3.186011,-1.668814,-0.081188,-1.262145
63146,6.349791,-13.250775,3.581937,-0.897278,0.126271,-1.230511
63147,5.960716,-11.600394,3.963167,-0.264877,0.313641,-1.183469
63148,5.643225,-9.568970,4.050772,0.062408,0.482067,-1.146668
63149,5.324846,-8.105710,3.737568,0.086908,0.608626,-1.130468
63150,4.821165,-7.258262,2.989245,-0.025917,0.676313,-1.153108
63151,4.360646,-7.039492,2.198641,-0.177922,0.689708,-1.174765
63152,4.206805,-6.947117,2.024028,-0.298205,0.661332,-1.227472
63153,4.503870,-6.909782,1.958445,-0.383132,0.589197,-1.295521
63154,4.870841,-7.094882,1.703122,-0.383069,0.487582,-1.362766
63155,5.037838,-7.616861,1.125787,-0.261964,0.380583,-1.444759
63156,5.186042,-8.324176,0.427164,0.029984,0.251698,-1.500923
63157,5.268520,-8.536949,0.007196,0.415054,0.123282,-1.550732
63158,5.486448,-7.738848,0.253652,0.709004,-0.002866,-1.573618
63159,5.731581,-6.235278,0.823443,0.742465,-0.095462,-1.628515
63160,6.003206,-4.540345,0.937402,0.481966,-0.187564,-1.735906
63161,6.800170,-3.334996,1.170308,-0.082131,-0.273012,-1.741141
63162,7.582595,-4.033593,1.408961,-0.784131,-0.201150,-1.628977
63163,7.725298,-5.879124,1.360812,-1.214384,-0.062361,-1.572339
63164,7.411199,-7.670946,1.213385,-1.286543,0.118091,-1.524408
63165,6.380168,-8.384199,1.594077,-1.005179,0.362206,-1.533409
63166,5.230112,-7.637082,2.300694,-0.718825,0.553720,-1.527917
63167,4.140521,-6.033721,2.212633,-0.643534,0.744773,-1.552507
63168,3.393768,-4.431160,2.103979,-0.872872,0.860694,-1.620174
63169,3.500289,-3.717125,1.653316,-1.396928,0.881456,-1.684857
63170,4.671335,-4.762784,0.796714,-1.877504,0.869018,-1.736830
63171,6.327328,-7.186198,0.038261,-2.054397,0.813544,-1.739709
63172,7.885825,-9.607284,-0.668175,-1.666947,0.726129,-1.748362
63173,9.057142,-10.453382,-0.799315,-0.911206,0.637561,-1.798743
63174,9.493915,-9.379869,-0.331277,-0.247107,0.534455,-1.741222
63175,9.649220,-7.605911,0.581753,0.066176,0.427877,-1.679199
63176,9.963509,-6.140775,1.561446,-0.026356,0.387053,-1.585135
63177,9.979876,-5.328829,1.723858,-0.361930,0.401865,-1.472030
63178,9.430396,-4.577267,0.683936,-0.634828,0.392799,-1.473383
63179,9.904075,-4.232212,0.729867,-0.809636,0.395997,-1.491986
63180,10.349466,-4.226705,0.857441,-0.965680,0.515668,-1.438448
63181,10.425248,-4.536253,0.722223,-1.172316,0.637180,-1.387727
63182,10.130330,-4.838339,0.617314,-1.361534,0.712654,-1.345768
63183,9.752067,-4.789497,0.920885,-1.471489,0.726219,-1.377019
63184,9.385411,-4.944851,0.570099,-1.464183,0.669707,-1.428543
63185,9.138015,-5.667823,0.063609,-1.293213,0.525194,-1.482902
63186,9.472406,-6.570107,-0.015415,-0.897112,0.306468,-1.530799
63187,10.206537,-6.998057,0.803191,-0.354754,0.110853,-1.549124
63188,10.537264,-6.882878,1.315123,0.199429,-0.040660,-1.498020
63189,10.710137,-6.035752,1.725728,0.667142,-0.161518,-1.412828
63190,10.755031,-4.755821,1.858417,0.893937,-0.253580,-1.294037
63191,10.767246,-3.517523,2.274703,0.892481,-0.282135,-1.242206
63192,10.975955,-2.280471,2.963918,0.668903,-0.204226,-1.186398
63193,10.703636,-1.820517,3.166064,0.153012,-0.070960,-0.986306
63194,10.105148,-2.104933,2.481927,-0.267530,0.032686,-0.941437
63195,9.987584,-2.651975,1.896745,-0.513893,0.117355,-0.927320
63196,9.899479,-3.252925,1.757973,-0.635351,0.232547,-0.922975
63197,9.451882,-3.545376,1.869394,-0.690392,0.324794,-0.930436
63198,8.947407,-3.205279,1.833713,-0.791153,0.353168,-0.946880
63199,8.625844,-3.065657,1.429626,-0.929988,0.306146,-0.987128
63200,8.935500,-3.687727,1.020624,-0.993550,0.196454,-1.005941
63201,9.740585,-4.836802,0.799479,-0.849807,0.053109,-0.980642
63202,10.555407,-6.098787,0.673290,-0.420050,-0.048803,-0.919985
63203,10.791940,-6.278583,0.996000,0.214094,-0.069153,-0.840150
63204,10.331348,-5.414455,1.025108,0.747627,-0.139270,-0.702747
63205,10.110563,-3.851987,1.224266,1.089830,-0.218333,-0.583382
63206,10.161388,-2.169360,1.600194,1.095289,-0.253387,-0.509084
63207,10.177328,-1.028296,2.038755,0.755189,-0.267289,-0.420039
63208,10.209227,-0.234485,2.115310,0.262941,-0.274932,-0.363095
63209,10.627427,-0.215777,2.157086,-0.291991,-0.240384,-0.266818
63210,10.452182,-0.935176,1.958141,-0.674443,-0.148861,-0.195905
63211,10.125833,-1.740716,1.946160,-0.906262,-0.073783,-0.178056
63212,9.437720,-2.477173,1.672199,-0.981564,-0.002089,-0.180672
63213,9.222476,-3.182059,1.487717,-0.910194,0.029680,-0.215013
63214,9.220300,-3.528367,1.660300,-0.723684,0.092222,-0.288807
63215,9.135533,-3.601429,1.671129,-0.501915,0.126187,-0.347548
63216,9.115373,-3.514145,1.487993,-0.294909,0.115268,-0.392066
63217,9.231255,-3.356940,1.307708,-0.110587,0.084509,-0.422829
63218,9.448689,-3.329022,1.478605,0.062626,0.044878,-0.444791
63219,9.629462,-3.526957,1.618548,0.263789,0.011361,-0.435422
63220,9.744663,-3.741451,1.722879,0.464458,-0.018524,-0.396759
63221,9.683903,-3.432847,1.471545,0.688891,-0.054849,-0.361114
63222,9.756117,-2.489500,1.123528,0.780001,-0.081249,-0.344164
63223,10.012154,-1.804693,1.195237,0.656267,-0.089268,-0.287142
63224,10.244872,-1.545836,1.676362,0.383481,-0.055689,-0.228989
63225,10.209353,-1.666403,1.939618,0.069086,-0.012339,-0.168734
63226,9.978769,-1.739859,1.735775,-0.179713,0.008828,-0.129693
63227,9.823151,-1.931543,1.448912,-0.359156,0.006449,-0.099602
63228,9.691752,-2.370032,1.175600,-0.429898,0.008341,-0.067525
63229,9.561756,-2.992168,1.023039,-0.392757,0.000408,-0.035284
63230,9.519761,-3.393253,0.942873,-0.237245,-0.018664,-0.013735
63231,9.572813,-3.443303,0.963675,-0.036614,-0.026862,0.004008
63232,9.605784,-3.288254,1.090807,0.145689,-0.029661,0.021177
63233,9.603540,-2.975060,1.224515,0.264050,-0.037556,0.044950
63234,9.597173,-2.594256,1.314261,0.322724,-0.041141,0.056054
63235,9.596815,-2.355017,1.334965,0.323881,-0.051922,0.071495
63236,9.650326,-2.189292,1.466569,0.288132,-0.046278,0.085552
63237,9.658031,-2.034236,1.559561,0.223383,-0.041994,0.087903
63238,9.631828,-1.985335,1.511386,0.147592,-0.038024,0.098601
63239,9.611975,-2.049205,1.468103,0.102138,-0.025755,0.091913
63240,9.552576,-2.128657,1.365659,0.090201,-0.019106,0.081848
63241,9.444817,-2.119386,1.252653,0.107639,-0.013961,0.065546
63242,9.443797,-2.123208,1.253870,0.129946,-0.013644,0.046918
63243,9.536664,-2.075330,1.189972,0.154323,-0.018066,0.030793
63244,9.612498,-2.104778,1.169042,0.175124,-0.018426,0.017336
63245,9.593931,-2.160376,1.128425,0.200252,-0.030509,0.001824
63246,9.606455,-2.094639,1.194582,0.228345,-0.036546,-0.002442
63247,9.617466,-2.111770,1.204266,0.239923,-0.045300,-0.004706
63248,9.645622,-2.103301,1.184792,0.242337,-0.049748,0.005284
63249,9.612216,-2.047815,1.212080,0.226343,-0.059825,0.009731
63250,9.580890,-2.091081,1.214364,0.207374,-0.062164,0.023924
63251,9.555743,-2.142636,1.193364,0.180147,-0.068517,0.040118
63252,9.548950,-2.190659,1.228464,0.168900,-0.068423,0.050403
63253,9.527512,-2.205807,1.222965,0.157350,-0.070165,0.057104
63254,9.511936,-2.202388,1.319509,0.154235,-0.059639,0.050438
63255,9.524158,-2.140829,1.381352,0.136742,-0.043851,0.049286
63256,9.479397,-2.121603,1.414313,0.105439,-0.027748,0.037777
63257,9.478721,-2.097403,1.538613,0.075389,-0.010812,0.022831
63258,9.528140,-2.205627,1.638929,0.040790,0.007517,0.015807
63259,9.535687,-2.311254,1.595848,0.030502,0.022484,0.012567
63260,9.547374,-2.377795,1.570122,0.044019,0.036187,0.012885
63261,9.536286,-2.305935,1.550577,0.061175,0.047906,0.015960
63262,9.573662,-2.217156,1.514479,0.066975,0.059220,0.020164
63263,9.558154,-2.133010,1.465254,0.064808,0.063108,0.032131
63264,9.628460,-2.151988,1.419051,0.068961,0.064324,0.033011
63265,9.654361,-2.149145,1.406942,0.078835,0.069449,0.034927
63266,9.665104,-2.217191,1.386527,0.098194,0.070418,0.032015
63267,9.697892,-2.168823,1.337244,0.115068,0.073424,0.037493
63268,9.738983,-2.094462,1.335661,0.128447,0.072328,0.031596
63269,9.705901,-2.087619,1.333709,0.135930,0.069712,0.031729
63270,9.697787,-2.081928,1.365714,0.153772,0.064836,0.036207
63271,9.669129,-2.035876,1.378815,0.162244,0.059605,0.033150
63272,9.665439,-1.990551,1.425963,0.158670,0.065327,0.032028
63273,9.681254,-1.966674,1.406224,0.151248,0.071718,0.033593
63274,9.665007,-1.986481,1.391729,0.155121,0.077920,0.025069
63275,9.624721,-1.952823,1.326882,0.149177,0.081144,0.019919
63276,9.614538,-1.828296,1.294978,0.142966,0.087747,0.009007
63277,9.641762,-1.770893,1.268962,0.106776,0.087526,0.007884
63278,9.612769,-1.774481,1.299417,0.078607,0.096209,-0.004756
63279,9.565794,-1.784146,1.272951,0.045729,0.093661,-0.010467
63280,9.539384,-1.833594,1.265061,0.027089,0.093467,-0.016645
63281,9.551166,-1.898102,1.246494,0.011027,0.091782,-0.022119
63282,9.552117,-1.994359,1.234944,0.006380,0.092671,-0.023259
63283,9.532925,-2.050060,1.204048,0.011498,0.090636,-0.034590
63284,9.528420,-2.085530,1.197832,0.034968,0.085367,-0.039496
63285,9.537615,-2.135207,1.147279,0.057972,0.084377,-0.039348
63286,9.526611,-2.162407,1.163748,0.088675,0.076762,-0.042317
63287,9.569662,-2.081345,1.160893,0.108538,0.070372,-0.042493
63288,9.542612,-2.028557,1.172224,0.113388,0.061792,-0.046111
63289,9.599281,-1.979287,1.210095,0.105385,0.062809,-0.048063
63290,9.547182,-1.977466,1.202843,0.082587,0.056056,-0.053057
63291,9.511978,-2.020682,1.268395,0.059797,0.049933,-0.049031
63292,9.438515,-2.049033,1.343499,0.038141,0.059157,-0.049487
63293,9.399506,-2.115240,1.307597,0.012292,0.060324,-0.044947
63294,9.455132,-2.119224,1.361000,-0.010108,0.075644,-0.042407
63295,9.465915,-2.049035,1.430304,-0.035074,0.093984,-0.044337
63296,9.483262,-1.986789,1.478454,-0.092356,0.113435,-0.045146
63297,9.394978,-1.986008,1.514182,-0.163084,0.131837,-0.045493
63298,9.469692,-2.066816,1.521026,-0.231748,0.147161,-0.046849
63299,9.512424,-2.192710,1.531849,-0.281592,0.153526,-0.042879
63300,9.496737,-2.298424,1.462734,-0.315369,0.164798,-0.040650
63301,9.498748,-2.346035,1.432873,-0.319833,0.151838,-0.031465
63302,9.454518,-2.424759,1.449690,-0.317378,0.138919,-0.013360
63303,9.528145,-2.562854,1.467585,-0.288372,0.115583,0.004519
63304,9.559537,-2.726413,1.477964,-0.230696,0.098878,0.025258
63305,9.602926,-2.754503,1.449210,-0.147258,0.074055,0.047159
63306,9.643237,-2.685251,1.442488,-0.071833,0.050169,0.066951
63307,9.722631,-2.494808,1.464131,-0.017068,0.031293,0.086841
63308,9.746395,-2.348645,1.453402,0.009553,0.012664,0.103484
63309,9.730035,-2.293390,1.483024,0.012188,0.002970,0.121066
63310,9.689962,-2.237567,1.476976,0.017583,-0.003989,0.119173
63311,9.635597,-2.167752,1.514959,0.018313,-0.007924,0.121433
63312,9.627013,-2.119838,1.520866,0.015507,-0.008278,0.117168
63313,9.569285,-2.088181,1.542594,0.009890,-0.009003,0.108586
63314,9.536191,-2.089598,1.529566,0.010815,-0.002875,0.097570
63315,9.524308,-2.078269,1.520228,0.005514,0.003579,0.090469
63316,9.486998,-2.083802,1.562074,0.006438,0.003840,0.072470
63317,9.451779,-2.068764,1.518306,0.008333,0.007878,0.067251
63318,9.470094,-2.115062,1.538121,0.013746,0.002468,0.061602
63319,9.406866,-2.103409,1.513296,0.020783,0.001346,0.052457
63320,9.397171,-2.152798,1.552028,0.028042,-0.001626,0.045293
63321,9.413355,-2.183718,1.539360,0.033099,-0.012087,0.043491
63322,9.512779,-2.219508,1.554696,0.046740,-0.016697,0.043465
63323,9.560116,-2.258304,1.554273,0.059939,-0.017619,0.039475
63324,9.569346,-2.281145,1.563605,0.075430,-0.019788,0.037950
63325,9.544938,-2.282281,1.528723,0.083718,-0.017388,0.039873
63326,9.575352,-2.293033,1.541506,0.092202,-0.022702,0.036826
63327,9.624407,-2.278538,1.525575,0.097458,-0.018834,0.032443
63328,9.612619,-2.311780,1.532679,0.107307,-0.019605,0.027648
63329,9.622100,-2.332532,1.543402,0.115476,-0.012219,0.020121
63330,9.572283,-2.348990,1.561064,0.123950,-0.015373,0.022454
63331,9.572047,-2.348984,1.562518,0.132740,-0.017227,0.019315
63332,9.532158,-2.384853,1.590050,0.138972,-0.017574,0.015458
63333,9.558624,-2.432050,1.589279,0.148762,-0.015563,0.025131
63334,9.542564,-2.502918,1.583064,0.160908,-0.017566,0.022871
