// Start Time: Unknown
// Update Rate: 100.0Hz
// Filter Profile: human (46.1)
// Firmware Version: 4.3.5
PacketCounter,Acc_X,Acc_Y,Acc_Z,Gyr_X,Gyr_Y,Gyr_Z
28927,9.365091,-2.300322,2.183102,0.184397,0.008452,0.019798
28928,9.345189,-2.277884,2.156742,0.161220,0.020565,0.017748
28929,9.265538,-2.258837,2.127105,0.135385,0.027665,0.014594
28930,9.277125,-2.280525,2.110275,0.107768,0.032397,0.009730
28931,9.288765,-2.302154,2.093423,0.089545,0.037207,0.001892
28932,9.296829,-2.233429,2.061503,0.073087,0.047300,-0.007175
28933,9.321102,-2.278064,2.022387,0.023156,0.047091,-0.009487
28934,9.349076,-2.412833,1.998537,0.016209,0.055507,-0.016159
28935,9.372857,-2.513248,2.017850,0.018558,0.055730,-0.024730
28936,9.345131,-2.500740,1.971220,0.029284,0.053315,-0.023935
28937,9.364500,-2.461812,1.950568,0.028360,0.053629,-0.026291
28938,9.364118,-2.458854,1.956126,0.021452,0.051988,-0.026501
28939,9.376379,-2.479374,1.939063,0.013746,0.048890,-0.023673
28940,9.330790,-2.495953,1.884257,0.017725,0.047218,-0.018232
28941,9.320495,-2.511986,1.901956,0.016810,0.040421,-0.017065
28942,9.355395,-2.538466,1.848737,0.034037,0.038940,-0.014527
28943,9.306378,-2.570511,1.860309,0.042180,0.025619,-0.008871
28944,9.386555,-2.578520,1.865640,0.053752,0.014607,-0.004596
28945,9.412521,-2.537968,1.896086,0.062762,0.011052,-0.003088
28946,9.433127,-2.549411,1.897002,0.068888,0.008319,0.003114
28947,9.371440,-2.559237,1.929081,0.068117,0.003927,0.009116
28948,9.357476,-2.486912,1.928476,0.063403,0.005356,0.009105
28949,9.336307,-2.474348,1.931795,0.054098,-0.000651,0.018026
28950,9.387314,-2.482627,1.916598,0.051612,0.000906,0.021192
28951,9.443655,-2.543768,2.013865,0.062331,-0.008586,0.025544
28952,9.500879,-2.549124,2.052484,0.077456,-0.007757,0.029712
28953,9.475809,-2.551968,2.123117,0.105408,-0.007440,0.032464
28954,9.447143,-2.464236,2.178188,0.131924,-0.005799,0.028978
28955,9.390537,-2.422333,2.239780,0.141368,-0.007367,0.031324
28956,9.370963,-2.371169,2.340835,0.151137,-0.002327,0.026171
28957,9.389312,-2.223879,2.552880,0.146772,0.009884,0.018045
28958,9.500513,-1.973843,2.792053,0.115002,0.034907,0.003935
28959,9.588214,-1.749327,2.938580,0.035342,0.086720,-0.002464
28960,9.554321,-1.650782,2.880259,-0.097776,0.158773,-0.014157
28961,9.447568,-1.852576,2.777246,-0.238410,0.216161,-0.023011
28962,9.395963,-1.983312,2.817526,-0.404390,0.253875,-0.012572
28963,9.422423,-1.946286,2.881609,-0.570114,0.287025,-0.010165
28964,9.526779,-2.115248,2.959477,-0.719055,0.310568,0.002874
28965,9.538696,-2.622516,3.005216,-0.797061,0.334256,0.019098
28966,9.644872,-3.087514,3.186968,-0.775429,0.345799,0.042596
28967,9.885127,-3.149553,3.406347,-0.704347,0.373408,0.072864
28968,10.009682,-2.899319,3.383007,-0.664859,0.429316,0.104209
28969,10.008288,-2.610144,3.281397,-0.744131,0.500205,0.151296
28970,9.856302,-2.592862,2.995101,-0.879942,0.577373,0.188291
28971,9.718375,-2.888369,3.147668,-1.009393,0.636091,0.251073
28972,9.811295,-3.217677,3.586608,-1.095114,0.706390,0.305502
28973,10.040087,-3.531712,3.798424,-1.167842,0.786255,0.361853
28974,10.082062,-3.684802,3.646205,-1.242504,0.884307,0.430802
28975,9.933803,-3.582591,3.430863,-1.336786,0.959141,0.506600
28976,9.591634,-3.695234,3.190669,-1.445776,1.010167,0.587391
28977,9.216696,-4.272751,2.598650,-1.546341,1.009819,0.674801
28978,8.720454,-5.095936,1.800405,-1.604421,0.934570,0.798344
28979,7.682754,-6.064633,0.331673,-1.679337,0.727678,1.005724
28980,6.729235,-7.560290,0.082562,-1.415047,0.285713,1.213051
28981,7.845650,-9.141924,2.267687,-0.327757,-0.302652,1.251119
28982,10.616844,-10.708197,2.828200,1.136025,-0.552327,1.221460
28983,11.487685,-10.961339,2.171579,2.765260,-0.505489,1.206435
28984,10.707183,-9.021425,1.023590,4.134353,-0.578167,1.263567
28985,10.002347,-6.529468,0.253075,5.016585,-0.694453,1.310980
28986,9.488707,-4.644629,0.388323,5.346443,-0.765240,1.336032
28987,9.190247,-3.670309,1.102551,5.300168,-0.827755,1.341589
28988,9.302928,-2.949856,2.523676,5.079769,-0.838202,1.339009
28989,10.360122,-1.668345,6.133857,4.895763,-0.672452,1.263457
28990,11.673723,0.617065,8.892808,4.362916,-0.127010,1.143561
28991,11.168355,2.536434,8.566906,3.270169,0.580784,1.098868
28992,9.552829,3.762424,6.988309,1.837832,1.126849,0.999795
28993,8.313408,3.845883,5.230604,0.131894,1.530291,0.861701
28994,7.724827,2.050589,4.811237,-1.488101,1.820548,0.749652
28995,7.939756,-0.925485,4.913825,-2.657464,2.021529,0.665667
28996,8.461511,-4.055168,4.976536,-3.201883,2.211706,0.656265
28997,8.796204,-6.463010,4.789216,-3.228429,2.363301,0.717204
28998,7.835661,-8.824296,3.186861,-2.827668,2.418233,0.867498
28999,6.109857,-11.260521,1.487255,-2.079475,2.216470,1.063362
29000,4.924658,-13.097072,1.284485,-0.810486,1.699043,1.262063
29001,4.678620,-13.739262,3.150994,0.893975,1.084568,1.357264
29002,6.496636,-12.701631,4.993324,2.747666,0.398136,1.448909
29003,9.074629,-10.024185,5.469687,4.235328,0.045197,1.561235
29004,10.004327,-6.777742,4.605816,4.954162,-0.050220,1.760581
29005,9.266504,-4.395243,4.137732,5.025234,-0.108728,1.951026
29006,8.613285,-3.596849,4.734063,4.731617,-0.197509,2.072048
29007,8.874553,-3.610561,6.286184,4.399766,-0.205632,2.043792
29008,9.216211,-3.070414,8.565870,4.157658,0.009893,1.935226
29009,9.369123,-2.075244,10.010806,3.862175,0.396088,1.785663
29010,8.682168,-1.234058,9.733944,3.388836,0.871109,1.659719
29011,7.733878,-0.588014,8.900361,2.813769,1.276734,1.483647
29012,7.325989,0.170389,8.639533,2.181558,1.629031,1.223862
29013,7.146465,0.266083,8.908215,1.454086,1.950590,1.036403
29014,6.982694,-0.461140,8.908820,0.688034,2.194018,0.954555
29015,6.515901,-1.858791,8.014139,-0.039931,2.333276,0.995652
29016,5.449823,-3.772960,6.777744,-0.685300,2.336526,1.175727
29017,4.040377,-5.915692,6.490151,-0.933106,2.130126,1.397212
29018,3.481982,-7.868517,6.933166,-0.688316,1.712093,1.586861
29019,4.122293,-9.640644,7.980819,0.115733,1.235786,1.709588
29020,5.141425,-11.174218,7.770814,1.308680,0.777154,1.876321
29021,5.685335,-11.361012,6.638480,2.640592,0.372190,2.043643
29022,5.496831,-9.632250,6.174189,3.776100,0.050757,2.149345
29023,5.507092,-7.224399,6.003992,4.417914,-0.231818,2.195867
29024,5.950847,-5.228671,6.564138,4.641068,-0.373756,2.175598
29025,6.620890,-3.388371,8.355386,4.529451,-0.307364,2.083983
29026,6.637646,-2.372293,9.727694,4.229274,-0.007229,1.916803
29027,6.285006,-2.002935,10.566909,3.900429,0.373478,1.657286
29028,5.957883,-1.338300,11.003832,3.605936,0.915190,1.300865
29029,5.556557,0.099244,10.649451,3.221765,1.489238,0.878427
29030,5.453395,2.119258,10.393036,2.639031,2.068036,0.438533
29031,5.728414,3.864395,10.204131,1.687589,2.626433,0.055063
29032,5.845254,4.504628,10.310070,0.449380,3.169302,-0.223431
29033,5.817656,3.542584,10.186886,-0.837664,3.645449,-0.417251
29034,5.497301,1.163567,8.672222,-1.965277,4.026898,-0.467017
29035,3.763161,-2.285455,5.465355,-2.660042,4.233730,-0.333488
29036,1.147066,-6.060122,3.408332,-2.708022,4.127953,-0.114840
29037,-0.834772,-9.130664,3.503517,-2.131762,3.698703,0.090837
29038,-1.306001,-10.647821,4.534486,-1.105688,3.025847,0.285639
29039,-0.839548,-10.924413,4.303397,0.000262,2.269965,0.570032
29040,-0.407802,-10.326477,3.611734,1.050808,1.632103,0.912120
29041,-0.841533,-8.934656,3.736556,1.907410,1.062283,1.181192
29042,-0.515196,-7.272977,4.525318,2.504595,0.479203,1.381694
29043,0.443104,-5.535353,5.710118,2.823249,0.094957,1.513686
29044,1.210111,-4.174200,7.300886,2.923134,-0.082353,1.608350
29045,1.475904,-3.014149,9.113295,2.880863,-0.079844,1.647266
29046,1.094406,-2.209254,10.459634,2.806104,0.074117,1.624776
29047,0.627562,-1.569466,11.249947,2.712652,0.304792,1.508659
29048,0.754605,-0.685162,11.620829,2.571368,0.603440,1.294448
29049,1.490588,0.897941,11.841987,2.298591,0.960929,1.033584
29050,2.227933,2.531454,11.853759,1.793936,1.391044,0.777240
29051,2.631434,3.310229,11.874004,1.070684,1.845350,0.565239
29052,2.643079,3.061660,11.156546,0.192257,2.264211,0.437141
29053,1.571098,1.408118,9.445492,-0.684412,2.533297,0.503085
29054,-0.295223,-1.251242,7.993922,-1.294369,2.578541,0.695533
29055,-1.960979,-4.734303,6.849155,-1.514777,2.303884,1.034753
29056,-3.076566,-8.125530,6.415904,-1.179052,1.770844,1.451606
29057,-3.715365,-9.864340,6.256171,-0.429339,0.959654,1.901748
29058,-2.945793,-9.803643,6.716530,0.605832,0.043802,2.373590
29059,-1.175509,-9.323275,6.687480,1.672638,-0.693336,2.841050
29060,0.017023,-8.293198,6.563887,2.696272,-1.204616,3.238983
29061,0.751618,-6.225750,7.282966,3.578752,-1.648888,3.543656
29062,2.067057,-3.362161,8.924850,4.202906,-1.928309,3.760897
29063,3.329624,-0.465306,10.439897,4.407378,-1.952862,3.869857
29064,3.970875,1.610887,12.067409,4.321632,-1.698809,3.895604
29065,3.547901,3.025756,12.639859,4.134101,-1.326907,3.828844
29066,3.562020,4.764863,12.371301,3.802526,-0.949672,3.618074
29067,4.165046,7.466258,12.062792,3.287642,-0.408746,3.201026
29068,4.640908,10.202583,12.077655,2.578441,0.233018,2.679750
29069,4.958096,11.493897,12.527559,1.685074,0.881620,2.186071
29070,4.872414,11.295684,12.630157,0.785927,1.510839,1.729741
29071,3.959683,9.757391,11.736962,-0.035053,2.062214,1.378221
29072,1.868781,7.378737,9.643727,-0.670673,2.478636,1.169545
29073,-0.579690,4.774689,7.672641,-1.096011,2.670863,1.042364
29074,-2.370574,1.342926,6.195600,-1.287692,2.670911,1.019086
29075,-3.545201,-2.191246,5.123067,-1.219893,2.511939,1.094887
29076,-4.312985,-5.091847,3.956019,-1.029034,2.178436,1.323881
29077,-4.168238,-7.044331,4.380301,-0.809002,1.690041,1.652677
29078,-2.574906,-7.493766,5.761244,-0.427964,1.242019,1.969986
29079,-0.648123,-6.620079,6.722772,0.101163,0.909723,2.289961
29080,0.554348,-4.674413,7.061756,0.500841,0.679568,2.660211
29081,0.468285,-2.414992,6.978076,0.553291,0.552530,3.069437
29082,-0.424841,-0.864866,6.538088,0.332122,0.388674,3.478476
29083,-0.905308,0.042916,6.818571,0.132077,0.199014,3.794242
29084,-0.587594,1.332630,8.256133,0.173854,0.066523,3.950436
29085,0.423377,2.277210,9.892917,0.320445,0.011725,4.000188
29086,1.570969,2.341316,10.799978,0.548453,0.067692,3.976038
29087,2.678345,2.163355,10.551493,0.870126,0.226970,3.889889
29088,3.335601,3.647597,10.391744,1.479617,0.531044,3.554670
29089,4.019170,8.893359,10.507995,2.009741,0.860039,2.914707
29090,5.382257,14.608079,10.843198,1.987207,1.331564,2.208777
29091,6.462907,17.517641,11.365414,1.350258,1.976724,1.561024
29092,6.046568,17.547208,11.664559,0.470402,2.739649,0.947202
29093,3.706211,15.503897,10.723986,-0.457526,3.406792,0.388787
29094,1.101787,12.511668,9.344282,-1.198590,3.760597,-0.032309
29095,-0.399830,9.239788,7.284832,-1.768688,3.831562,-0.361945
29096,-1.402924,5.581077,4.598818,-2.179261,3.734416,-0.492112
29097,-2.361379,1.248437,3.251955,-2.303227,3.411606,-0.456902
29098,-3.633126,-2.735903,3.044529,-2.112056,2.877914,-0.256497
29099,-4.742506,-5.569912,3.047102,-1.571681,2.199255,0.036371
29100,-5.443985,-7.162621,2.989898,-0.658162,1.463253,0.376761
29101,-5.539694,-6.853758,2.524312,0.063325,0.619816,0.873417
29102,-5.347473,-5.343860,2.167922,0.306199,-0.147342,1.415176
29103,-5.077120,-3.526865,2.495076,0.266424,-0.872311,1.903604
29104,-4.078717,-1.838022,3.485203,0.142480,-1.531574,2.348105
29105,-2.703779,-0.259222,5.332122,0.139990,-2.037321,2.669767
29106,-0.978492,1.176429,7.917567,0.253240,-2.342641,2.834542
29107,0.946279,2.419817,10.608598,0.511256,-2.402576,2.858609
29108,2.392189,3.626312,11.848488,0.887943,-2.241623,2.747710
29109,3.112825,5.876367,12.455663,1.322795,-1.928630,2.528637
29110,3.177147,9.205626,12.313779,1.595985,-1.529221,2.202247
29111,3.382494,12.176940,12.634520,1.571249,-1.029623,1.790818
29112,3.586104,13.739072,13.521396,1.238842,-0.432009,1.298787
29113,3.819462,13.918133,14.287131,0.794336,0.249257,0.706899
29114,3.125783,14.010267,14.384645,0.433207,0.948481,0.061697
29115,1.628011,13.898387,12.294430,-0.121750,1.581229,-0.472352
29116,-0.396299,11.780902,10.072566,-0.894949,2.097910,-0.820757
29117,-2.107208,7.339452,8.186915,-1.677936,2.329505,-0.937556
29118,-2.912766,1.608357,6.614726,-2.219666,2.308351,-0.848755
29119,-3.351445,-4.442181,4.510066,-2.317407,2.077457,-0.548943
29120,-4.464098,-8.161644,1.680556,-1.847471,1.689604,-0.159941
29121,-5.587230,-8.957924,1.676743,-0.955406,1.105959,0.250579
29122,-5.519521,-7.496962,2.428989,0.038583,0.363258,0.757168
29123,-3.772203,-4.484075,3.204038,0.664346,-0.361594,1.288626
29124,-1.995146,-1.132625,3.926956,0.760553,-0.879236,1.739459
29125,-0.852458,1.440237,4.770390,0.619817,-1.322508,2.052775
29126,0.177965,3.733306,6.484113,0.613945,-1.644600,2.152054
29127,1.376872,5.829335,8.223353,0.763572,-1.832083,2.025409
29128,2.919291,6.588701,9.093834,0.991964,-1.954242,1.773592
29129,4.496625,7.519171,9.217555,1.285224,-1.949776,1.420444
29130,6.308287,10.284463,10.632855,1.531420,-1.762396,0.829145
29131,7.127244,14.545729,11.908541,1.531195,-1.359128,0.107133
29132,6.869363,18.346619,13.067382,1.053258,-0.931220,-0.630739
29133,6.276495,19.169508,13.424263,0.187236,-0.484838,-1.373057
29134,5.263859,16.817364,13.462394,-0.579080,-0.082139,-2.042457
29135,4.236151,13.214875,12.462062,-1.168762,0.310600,-2.655111
29136,3.414626,8.501097,11.108606,-1.564796,0.610365,-3.071345
29137,2.464031,3.519513,9.293656,-1.747351,0.889027,-3.249429
29138,0.200895,-1.680569,7.689556,-1.783519,0.999289,-3.191698
29139,-2.599818,-5.888119,5.326477,-1.568004,0.898644,-2.916219
29140,-5.188544,-7.741944,3.552272,-1.339078,0.527603,-2.526743
29141,-6.094229,-7.768225,3.473396,-1.168605,-0.041917,-2.036349
29142,-5.189392,-6.944494,3.964873,-0.929110,-0.656768,-1.572705
29143,-3.325780,-5.673631,4.490354,-0.709826,-1.288836,-0.957126
29144,-1.617817,-3.639182,5.613144,-0.490626,-1.751845,-0.383006
29145,-0.578791,-1.468650,6.813588,-0.277404,-2.122458,0.043117
29146,0.539581,0.535032,8.254444,0.023295,-2.425844,0.295344
29147,1.558073,2.682253,9.658489,0.477439,-2.566093,0.306338
29148,3.036596,4.134189,10.464798,1.025681,-2.622858,0.153512
29149,4.266605,5.455797,10.631040,1.585864,-2.524695,-0.084742
29150,5.721747,9.554498,12.060847,1.995742,-2.200837,-0.651327
29151,6.437645,15.348802,14.046258,1.894247,-1.650918,-1.353559
29152,6.025663,18.971961,15.525310,1.080343,-1.073028,-1.996507
29153,4.912932,19.402518,15.599800,-0.191952,-0.529804,-2.675239
29154,3.301757,15.789542,15.420834,-1.378209,-0.009808,-3.342680
29155,2.406994,9.730502,14.955338,-2.044179,0.463525,-3.847429
29156,1.688357,3.766010,13.957773,-2.170092,0.905523,-4.122021
29157,0.790661,-0.379120,11.918647,-2.033811,1.164557,-4.152336
29158,-0.719691,-2.687482,8.805198,-1.879926,1.144980,-3.929940
29159,-2.293950,-4.011497,6.202143,-1.845479,0.868603,-3.592380
29160,-3.553893,-5.023830,5.407646,-1.911991,0.391124,-3.120195
29161,-4.517234,-5.492330,5.877149,-1.929814,-0.171406,-2.624500
29162,-4.988320,-6.550613,5.892736,-1.592458,-0.805973,-2.119485
29163,-4.483980,-6.821717,5.748834,-0.780486,-1.526573,-1.673947
29164,-3.123531,-4.617745,6.449852,0.207190,-2.164845,-1.406261
29165,-1.467689,-1.468599,7.966336,0.995468,-2.579927,-1.252325
29166,-0.293189,1.150774,9.406813,1.592583,-2.759674,-1.216148
29167,0.843519,3.501842,10.558984,2.208063,-2.773475,-1.334151
29168,2.269164,5.661355,11.200823,2.823722,-2.591397,-1.583383
29169,3.351074,9.071985,12.374848,3.068052,-2.221202,-1.921175
29170,3.931551,13.476126,13.795639,2.747422,-1.656483,-2.430956
29171,3.888268,16.969219,14.777327,1.871043,-1.044626,-3.002738
29172,4.169128,17.694980,14.576102,0.517093,-0.497248,-3.560307
29173,4.935199,14.535159,13.737349,-0.787506,0.034264,-4.053899
29174,5.602044,9.212547,12.181826,-1.719792,0.549455,-4.397436
29175,5.049897,4.550947,10.059131,-2.124251,0.967277,-4.558662
29176,3.724449,1.011729,7.251477,-2.175226,1.165199,-4.588932
29177,1.778028,-1.944416,4.595898,-1.893998,1.032321,-4.473094
29178,0.273634,-3.389651,3.939785,-1.383228,0.599648,-4.300916
29179,-0.234761,-3.780816,4.059206,-0.924390,-0.043857,-4.054156
29180,0.131686,-4.515072,5.202198,-0.384363,-0.710982,-3.691040
29181,0.917318,-4.452711,6.239968,0.311116,-1.390671,-3.343332
29182,2.113216,-3.099870,7.499139,1.020853,-1.960495,-3.031683
29183,2.836605,-0.903033,9.735040,1.670889,-2.265751,-2.808223
29184,2.791800,0.627109,11.476755,2.160896,-2.401602,-2.671851
29185,2.672631,0.920285,12.856605,2.679922,-2.373737,-2.654711
29186,2.254285,1.018322,13.061060,3.274080,-2.157047,-2.689803
29187,1.912167,0.748608,12.007092,3.789775,-1.845357,-2.724192
29188,2.002512,2.307986,11.532791,4.173004,-1.376186,-3.088639
29189,2.012691,7.043170,11.930659,4.311976,-0.793906,-3.716500
29190,2.506582,11.614645,12.979706,3.727212,-0.239858,-4.275410
29191,3.314083,13.735074,13.818790,2.424952,0.297012,-4.713390
29192,4.080292,13.249181,14.058592,0.718251,0.805699,-5.110203
29193,4.326424,10.338178,12.095225,-1.159513,1.233772,-5.302598
29194,3.362684,6.186160,8.080192,-2.938129,1.472027,-5.133971
29195,1.361885,1.841985,4.812747,-4.113814,1.495345,-4.863045
29196,-0.869092,-2.949857,3.071125,-4.368822,1.244065,-4.449941
29197,-2.630255,-6.426439,3.505073,-3.780164,0.691814,-4.002797
29198,-2.922063,-9.247239,4.157266,-2.439746,0.023579,-3.481990
29199,-2.692701,-10.234464,5.398718,-0.464932,-0.675965,-3.018225
29200,-1.796212,-7.596888,6.821910,1.556511,-1.284765,-2.726846
29201,-1.178154,-3.117946,8.307323,3.031495,-1.634972,-2.530865
29202,-1.121333,0.282601,9.455247,3.736258,-1.797073,-2.353423
29203,-1.695404,2.503513,10.127024,3.848021,-1.814308,-2.252216
29204,-2.402807,4.259676,10.504145,3.569583,-1.701733,-2.225498
29205,-2.805677,6.126459,10.721527,2.966612,-1.477433,-2.424808
29206,-2.078046,8.582543,11.463793,2.001393,-1.188645,-2.805461
29207,-0.357299,11.002388,12.330705,0.670832,-0.777833,-3.249137
29208,1.434006,11.793312,12.475812,-0.958558,-0.322729,-3.581433
29209,2.775125,9.950519,11.519551,-2.582311,0.150550,-3.780066
29210,2.931735,5.287598,8.871887,-3.874295,0.566242,-3.759947
29211,1.199630,0.191747,6.159218,-4.484733,0.777498,-3.541251
29212,-1.870459,-4.512714,3.310090,-4.437508,0.624142,-3.085909
29213,-5.549137,-7.512633,3.332293,-3.559775,0.004634,-2.559193
29214,-6.970459,-9.056141,5.574602,-1.853278,-0.920685,-2.180794
29215,-4.197282,-8.822631,8.115740,0.465416,-1.834606,-1.892150
29216,-0.388667,-6.622147,9.212434,2.731487,-2.301980,-1.624466
29217,-0.031851,-3.484419,9.441964,4.451280,-2.499073,-1.352706
29218,-0.565454,0.680547,11.172840,5.477014,-2.603437,-1.234795
29219,-0.723402,3.899856,11.871600,5.625810,-2.458584,-1.220291
29220,-1.161875,5.672814,10.874673,5.061207,-2.248909,-1.187280
29221,-1.371150,8.267389,10.155518,3.914222,-1.943291,-1.460697
29222,-1.424315,12.663553,11.196958,2.406709,-1.511321,-2.044638
29223,-0.156612,14.967685,11.970745,0.488984,-1.170426,-2.542010
29224,2.173784,12.831854,11.401788,-1.406761,-0.780671,-2.831942
29225,3.379825,6.786651,9.345619,-2.672266,-0.382658,-2.862590
29226,2.065843,-0.538989,6.079826,-2.893368,-0.131919,-2.612993
29227,-1.699684,-5.629986,4.807673,-1.899073,-0.202231,-2.269332
29228,-4.524637,-6.617171,6.798736,-0.142798,-0.773310,-1.983170
29229,-3.301647,-4.920850,9.995595,1.856220,-1.463089,-1.796040
29230,0.292407,-2.334370,11.881753,3.613721,-1.794378,-1.571496
29231,1.551821,-0.749710,11.246714,4.788379,-1.830276,-1.180559
29232,0.311431,1.498898,9.925157,5.465682,-1.964262,-0.808740
29233,-0.381022,6.078355,10.601192,5.598299,-2.066345,-0.713866
29234,-0.492085,10.857723,11.955992,4.989552,-1.894658,-0.830739
29235,-1.003716,12.029536,11.735529,3.555166,-1.637692,-0.848633
29236,-1.619515,10.861569,10.220891,1.809493,-1.467424,-1.057709
29237,-1.077037,10.610874,8.705659,0.419593,-1.275384,-1.733815
29238,0.302943,11.416231,8.127780,-0.646923,-1.032552,-2.497676
29239,1.272354,12.134398,8.442661,-1.823936,-0.702549,-2.914005
29240,1.601132,11.298303,8.818852,-3.279265,-0.461294,-2.999471
29241,2.471912,8.902715,8.731471,-4.659070,-0.281485,-3.018932
29242,3.782161,4.877483,8.161420,-5.468949,-0.039450,-3.058432
29243,3.658798,-0.315846,5.307566,-5.715599,0.204170,-2.855230
29244,0.089858,-4.662934,2.783819,-5.308513,0.225537,-2.283713
29245,-4.373193,-7.148385,4.408581,-4.004212,-0.048312,-1.872661
29246,-5.800453,-9.172227,7.366556,-1.815955,-0.601937,-1.763504
29247,-2.484771,-9.143082,9.676666,0.970796,-1.279399,-1.710453
29248,1.766269,-5.052631,11.484731,3.493701,-1.509505,-1.532829
29249,2.298030,0.776075,11.923682,4.921920,-1.392407,-1.264438
29250,0.751670,5.234655,12.701566,5.117359,-1.227735,-0.966022
29251,-1.422725,6.856393,13.519902,4.370363,-0.935810,-0.886588
29252,-3.817383,5.316152,12.198747,3.026015,-0.704457,-0.963952
29253,-3.214848,7.718659,11.672859,1.593859,-0.580983,-1.577676
29254,-1.655497,15.238029,12.353515,-0.210714,-0.277026,-2.515739
29255,-0.622405,20.769325,12.216552,-2.911130,0.126153,-3.146917
29256,0.989438,18.863680,10.526109,-6.255927,0.252369,-3.074468
29257,3.464558,11.500794,8.233336,-8.879132,0.385271,-2.820484
29258,4.705970,4.592253,5.873123,-10.279663,0.815318,-2.575624
29259,3.970477,-1.324062,3.923535,-10.578042,1.233255,-2.231768
29260,1.530199,-7.389268,1.653952,-9.859336,1.539214,-1.804369
29261,-3.327656,-13.108490,0.555697,-8.132793,1.501060,-1.334353
29262,-7.870461,-17.688695,4.402034,-5.091179,1.037954,-1.133569
29263,-6.206272,-20.203189,6.880343,-1.265727,0.030642,-1.049694
29264,-0.063361,-17.450179,7.367103,2.304646,-0.608681,-0.822101
29265,2.268238,-11.182892,7.811132,4.806739,-0.662886,-0.522500
29266,1.480217,-4.545202,9.153451,5.915255,-0.550813,-0.319607
29267,-0.353609,1.172499,10.158953,5.694887,-0.321596,-0.262913
29268,-2.991632,5.532270,10.421195,4.343857,0.050089,-0.381579
29269,-5.290068,7.903764,9.096476,2.006574,0.134198,-0.444009
29270,-4.551427,9.647948,8.876390,-0.764966,0.033981,-0.810603
29271,-1.615697,9.265018,8.807493,-3.439508,0.097615,-1.138218
29272,0.860991,5.123920,7.850924,-5.664556,0.262954,-1.007352
29273,1.784148,-0.431272,6.936561,-6.900650,0.473585,-0.687031
29274,1.236844,-5.659073,5.419589,-7.010500,0.685911,-0.430636
29275,-1.245063,-10.968391,2.962245,-6.147426,0.697985,-0.106046
29276,-5.748479,-15.967891,2.757556,-3.955084,0.590841,0.081623
29277,-9.236867,-20.770838,3.528354,-0.546241,-0.065029,0.139287
29278,-5.544825,-22.306564,5.871864,3.822688,-1.042370,0.274054
29279,0.396911,-18.618296,5.734432,7.736316,-1.455325,0.572187
29280,2.425323,-12.864380,4.778016,10.446948,-1.479907,1.050041
29281,3.346273,-7.991673,4.689675,11.891521,-1.488905,1.589258
29282,4.911899,-2.938969,5.147088,12.251759,-1.355589,2.033712
29283,5.242111,2.877092,6.756354,11.729752,-0.915727,2.304848
29284,3.132881,11.908743,11.250189,10.394083,0.006490,2.155127
29285,-1.448286,17.976798,11.134101,7.359783,1.117966,1.965462
29286,-5.189116,20.143541,10.428475,3.357682,1.278741,1.658591
29287,-3.022149,20.391639,10.654223,-0.359735,1.029848,0.892072
29288,0.519888,16.784623,10.582293,-3.488223,1.205526,0.406576
29289,1.383886,11.004494,9.814765,-5.630129,1.352198,0.530201
29290,0.055723,5.158588,8.335299,-6.707047,1.497447,0.826041
29291,-2.387221,-0.705407,6.233345,-6.594332,1.501362,1.108747
29292,-6.077836,-5.622318,4.997249,-5.437702,1.309210,1.286241
29293,-8.501406,-10.546478,5.609636,-3.186021,0.688155,1.378023
29294,-5.804352,-12.365040,9.203915,0.128804,-0.122336,1.324910
29295,0.436899,-10.070962,10.355944,3.267114,-0.534743,1.275647
29296,3.108362,-5.112964,9.133956,5.451351,-0.470302,1.449237
29297,2.857925,0.393732,8.529046,6.363212,-0.277850,1.676925
29298,2.145402,4.684338,8.294728,6.233020,-0.010157,1.831400
29299,0.650295,7.859171,8.281114,5.365167,0.366964,1.795035
29300,-1.311036,10.744972,9.074004,4.021647,0.732047,1.582952
29301,-1.889603,13.123586,10.289793,2.141745,0.903189,1.354378
29302,-0.069657,13.430864,10.825018,0.001627,1.033618,1.159967
29303,1.995115,11.635626,10.515178,-1.949910,1.296024,1.051564
29304,2.708765,8.398548,9.146807,-3.492842,1.576958,1.139063
29305,1.188247,3.561103,6.393417,-4.319385,1.823295,1.521608
29306,-2.309225,-1.225419,5.993903,-3.994591,1.869633,1.852298
29307,-3.919039,-5.867183,6.567750,-2.667280,1.464362,2.207684
29308,-2.215355,-8.761701,8.215081,-0.397143,0.906089,2.506431
29309,1.045101,-7.900998,9.205111,2.186822,0.587297,2.711950
29310,3.146445,-4.234700,8.534754,4.251034,0.477333,2.991591
29311,3.744117,0.024230,7.747532,5.464281,0.550655,3.265654
29312,3.879622,4.590777,8.298074,5.885436,0.750402,3.390432
29313,3.818516,8.998855,8.819290,5.538184,1.130718,3.332356
29314,2.988455,13.130584,10.143771,4.597809,1.694145,3.135540
29315,0.845268,17.060148,10.074159,2.839392,2.219598,2.809817
29316,-1.208239,19.711435,9.778461,0.576560,2.457997,2.379495
29317,-2.047209,19.513481,9.925557,-1.845592,2.574105,1.907710
29318,-1.456154,17.083265,9.311717,-3.811621,2.688852,1.315963
29319,-0.652569,14.263488,8.247441,-5.170808,2.860202,0.796486
29320,-0.273436,12.043229,7.467662,-6.011000,3.008490,0.413603
29321,-0.159057,10.248803,6.632080,-6.591850,3.137209,0.171798
29322,-0.152317,7.954240,5.340831,-7.082376,3.222851,0.084565
29323,-0.738524,4.357027,2.415273,-7.389652,3.259035,0.212331
29324,-3.247881,0.447175,0.432226,-7.176556,3.169197,0.491207
29325,-6.439647,-3.640808,0.162941,-6.411982,2.614530,0.902908
29326,-8.162508,-7.133614,1.661759,-4.983212,1.594968,1.407978
29327,-7.313528,-9.796942,4.590231,-2.951383,0.549731,1.871749
29328,-4.088834,-10.650531,6.379200,-0.688630,-0.340591,2.325213
29329,-0.526582,-8.883789,7.829006,1.427295,-0.845970,2.740728
29330,1.477409,-4.852766,8.321959,3.032650,-1.087647,3.071054
29331,2.321453,0.204961,9.618077,3.947707,-1.046533,3.284226
29332,2.047893,4.515893,11.334663,4.037685,-0.698057,3.354741
29333,0.247796,6.892593,11.942496,3.736074,-0.114173,3.244173
29334,-1.939387,8.017207,10.741185,3.152886,0.327094,2.915370
29335,-1.677692,10.117311,10.477877,2.292821,0.701779,2.338762
29336,0.078570,12.870667,11.545260,1.158805,1.231758,1.692116
29337,1.940811,14.181837,12.469201,-0.356916,1.871756,1.193629
29338,2.981861,13.038015,12.516023,-2.015538,2.524523,0.865464
29339,2.896862,9.928210,11.159725,-3.437452,3.091281,0.639680
29340,1.578810,5.749698,8.268810,-4.414234,3.491863,0.575722
29341,-0.966369,1.720457,5.382461,-4.784911,3.653582,0.702734
29342,-4.015817,-2.176160,3.442167,-4.743512,3.417612,1.035797
29343,-7.028044,-5.147133,3.212565,-4.352285,2.725001,1.587334
29344,-8.803674,-6.515052,4.532939,-3.707505,1.748963,2.165158
29345,-7.849507,-7.244909,6.237891,-2.647698,0.703562,2.747686
29346,-4.112453,-7.316320,7.610659,-1.161578,-0.145451,3.234796
29347,-0.233927,-6.210505,7.619375,0.539700,-0.565949,3.605268
29348,0.811383,-3.032372,8.054758,2.106210,-0.633930,3.836056
29349,0.159053,1.006990,8.596814,2.990936,-0.592611,3.943891
29350,-0.085128,3.794877,9.883558,3.093658,-0.499442,4.012588
29351,-0.180597,4.957045,10.474579,2.730486,-0.229242,3.990961
29352,-0.603588,5.756194,10.419799,2.185706,0.054187,3.811284
29353,-0.344466,7.336960,10.227551,1.588702,0.350677,3.466280
29354,0.708683,10.045547,10.419610,0.964641,0.746678,2.974017
29355,1.820361,12.128772,11.210119,0.136981,1.265398,2.557531
29356,2.364024,12.251548,12.063354,-0.821587,1.834199,2.227842
29357,2.461827,10.581508,12.234740,-1.688568,2.352501,1.871575
29358,1.945998,8.231767,11.147751,-2.305613,2.788926,1.559074
29359,0.407129,6.354119,9.025416,-2.683967,3.013143,1.422577
29360,-1.649662,4.860716,7.289737,-2.926116,2.999669,1.520414
29361,-3.809283,3.151929,5.950029,-3.101896,2.752518,1.792513
29362,-5.090204,0.638514,5.820995,-3.112162,2.274784,2.167634
29363,-5.190764,-1.420413,6.051181,-2.915763,1.689324,2.535524
29364,-4.462903,-2.566017,6.272884,-2.417155,1.107097,2.866043
29365,-3.390796,-2.876814,6.521910,-1.571628,0.582752,3.173051
29366,-2.215540,-2.095194,7.003988,-0.485383,0.184579,3.411509
29367,-1.297490,-0.000491,7.966648,0.567958,-0.047256,3.547568
29368,-0.579814,2.997000,9.364336,1.340669,-0.097813,3.540047
29369,-0.057108,6.279084,10.629464,1.630231,0.017319,3.413761
29370,-0.185966,8.369130,11.572553,1.556611,0.271625,3.318580
29371,-1.233520,8.159859,11.241568,1.382466,0.589364,3.165719
29372,-2.045461,8.087087,10.281831,1.281419,0.934485,2.721510
29373,-1.394818,10.649361,10.388305,1.337629,1.356574,1.923966
29374,0.313569,14.306575,11.466242,1.181853,1.909669,1.069726
29375,1.472546,16.475880,12.532143,0.623463,2.551889,0.334303
29376,1.456959,15.850877,12.260039,-0.158062,3.138875,-0.323222
29377,0.156175,13.071172,10.310342,-0.914296,3.568484,-0.825374
29378,-1.825101,9.920390,7.617769,-1.634535,3.763065,-1.083857
29379,-4.181752,7.052270,4.795854,-2.483247,3.676649,-0.973737
29380,-6.608221,4.638641,3.659918,-3.401990,3.310307,-0.591029
29381,-8.328858,1.552066,3.038373,-4.273754,2.717694,-0.046158
29382,-8.573698,-1.428473,3.205004,-4.713020,1.874859,0.491442
29383,-6.832189,-4.526881,4.651315,-4.149112,1.095432,1.040623
29384,-4.223560,-7.473553,5.066334,-2.675466,0.357837,1.585274
29385,-1.671661,-8.323495,5.181766,-0.708706,-0.120826,1.938274
29386,-1.039003,-5.821678,5.510641,1.050587,-0.497529,2.240944
29387,-1.151481,-1.647544,6.028355,2.124353,-0.783945,2.480823
29388,-1.287744,2.123080,6.789583,2.433441,-0.897836,2.686557
29389,-1.501885,4.367274,7.566573,2.206223,-0.877933,2.891540
29390,-2.013971,4.285322,8.402977,1.904010,-0.738835,3.023446
29391,-2.076713,3.838139,8.743078,1.830642,-0.579473,2.928394
29392,-0.969253,5.286681,9.523427,1.953767,-0.362119,2.629124
29393,0.101882,8.662847,10.531236,1.938714,0.018688,2.253152
29394,0.496042,11.982976,11.780575,1.491470,0.495318,1.891635
29395,0.177909,13.651174,12.337916,0.624447,0.963819,1.545169
29396,-0.510402,12.819235,11.967096,-0.411161,1.364779,1.239447
29397,-1.596009,10.342941,10.393943,-1.327949,1.649267,1.069234
29398,-2.932711,7.645013,8.452793,-2.037376,1.775619,1.060468
29399,-3.997387,5.210715,7.172230,-2.606609,1.726913,1.252994
29400,-4.544359,2.535717,6.233572,-3.037503,1.519795,1.558368
29401,-4.460077,-0.216871,5.350779,-3.199843,1.214458,1.943682
29402,-4.321642,-2.233389,5.351681,-3.047671,0.851328,2.321277
29403,-3.603045,-3.089106,5.879710,-2.535906,0.468018,2.676727
29404,-2.532361,-2.520865,7.024256,-1.686251,0.146636,2.981566
29405,-1.536721,-0.255811,7.912351,-0.714019,-0.071412,3.196964
29406,-0.882099,2.214665,8.527186,0.005732,-0.161005,3.364852
29407,-0.849402,4.423103,8.750334,0.381986,-0.159568,3.468094
29408,-1.094812,6.150210,9.407827,0.530495,-0.122748,3.485463
29409,-1.252601,6.522409,9.208094,0.468707,-0.087139,3.507733
29410,-0.911906,5.638346,8.321011,0.453528,-0.114096,3.472254
29411,0.025012,6.926048,7.943461,0.673455,-0.058055,3.103839
29412,0.987584,11.449718,8.654913,0.911862,0.143532,2.446517
29413,1.382038,16.198685,9.768154,0.769534,0.448108,1.822986
29414,1.419345,18.291687,10.524248,0.108614,0.758265,1.334996
29415,0.568343,17.315147,10.223560,-0.805711,1.079913,0.882496
29416,-1.008697,14.507583,8.960598,-1.641856,1.298577,0.497536
29417,-2.183665,10.966597,6.645265,-2.328390,1.328272,0.275824
29418,-2.992911,7.548284,4.704885,-2.860860,1.199108,0.222399
29419,-3.739131,3.960820,2.273823,-3.386336,0.903179,0.423465
29420,-4.866821,0.059584,0.779985,-3.719847,0.454044,0.733255
29421,-5.755803,-3.063858,0.645993,-3.787591,-0.118919,1.010130
29422,-4.849482,-4.538325,3.111775,-3.362809,-0.708149,1.176307
29423,-2.903211,-4.175263,5.948374,-2.492688,-1.178033,1.313742
29424,-0.422859,-2.190773,8.546331,-1.515479,-1.522999,1.438267
29425,1.281454,1.150128,10.311183,-0.710272,-1.533527,1.500655
29426,1.282589,3.562668,11.298665,-0.322324,-1.448082,1.575468
29427,1.135820,4.956922,11.609961,-0.144999,-1.382643,1.518140
29428,0.986953,4.979072,10.958336,0.088504,-1.311479,1.368943
29429,1.358814,3.258374,8.676531,0.462676,-1.334314,1.225222
29430,2.773825,4.375248,8.170807,1.271241,-1.088099,0.724606
29431,3.922422,9.586034,10.132750,2.092691,-0.570279,-0.060435
29432,4.520430,15.602848,12.750923,2.166823,-0.074891,-0.659184
29433,4.734810,18.776423,14.162840,1.340023,0.371457,-1.143392
29434,4.537741,17.867049,13.798661,0.018538,0.775566,-1.618604
29435,3.484653,14.241406,11.928383,-1.129828,1.082182,-2.097262
29436,2.263204,9.866386,9.562734,-1.820239,1.264324,-2.506955
29437,1.442472,6.036016,7.196108,-2.100540,1.298801,-2.774763
29438,0.566545,3.201862,5.110132,-2.212722,1.220278,-2.859400
29439,-0.670168,0.855481,3.190804,-2.248056,1.019973,-2.795247
29440,-1.920381,-0.872409,1.880875,-2.251614,0.673057,-2.645729
29441,-2.958848,-1.736746,1.349726,-2.275633,0.198287,-2.435117
29442,-3.077399,-1.799076,1.915114,-2.168026,-0.315749,-2.320520
29443,-2.259023,-0.934634,3.217075,-1.768029,-0.769589,-2.326112
29444,-0.819182,0.401911,4.687450,-1.192794,-1.090996,-2.384308
29445,0.453625,1.759960,5.979814,-0.477536,-1.246702,-2.493245
29446,0.818627,2.756853,6.615302,0.204490,-1.320484,-2.660620
29447,0.906181,2.473517,7.226350,0.835149,-1.375139,-2.873599
29448,0.579984,1.342468,7.409190,1.611004,-1.424977,-3.136177
29449,-0.129126,1.610869,6.255104,2.476206,-1.516501,-3.479301
29450,-0.348397,4.520348,6.280243,3.294908,-1.488644,-4.065732
29451,-0.871831,9.142862,7.406404,3.647314,-1.308074,-4.698199
29452,-0.731530,12.964060,9.151350,3.187324,-1.226002,-5.134807
29453,0.326846,14.386408,10.789460,1.878320,-1.135272,-5.386611
29454,1.414633,13.314089,11.250972,-0.159582,-1.019555,-5.377728
29455,1.995449,9.983885,11.199706,-2.557673,-0.846962,-5.181170
29456,1.962403,3.907537,10.029079,-4.733148,-0.734834,-4.780232
29457,1.366038,-4.255459,7.897484,-5.817831,-0.659097,-4.325000
29458,0.418028,-11.735297,6.694384,-5.462863,-0.747237,-3.831833
29459,0.031945,-16.721692,8.051103,-3.738106,-0.922482,-3.439400
29460,-0.608235,-17.890968,9.003892,-1.285924,-1.344904,-3.006366
29461,-0.120468,-13.975554,9.976071,1.094989,-1.896421,-2.550719
29462,0.508778,-7.523013,10.666598,2.646988,-2.154869,-2.116796
29463,1.056764,-2.912239,11.122211,3.229972,-2.201927,-1.710339
29464,1.093722,0.306017,11.666499,3.161240,-2.124136,-1.359502
29465,0.785978,2.938870,12.611738,2.653548,-1.999194,-1.126581
29466,0.568369,3.976660,12.265565,1.801663,-1.778292,-1.063644
29467,0.452894,4.744020,11.307879,0.874492,-1.526091,-1.289009
29468,0.642633,7.505119,11.231972,0.172471,-1.207588,-1.874189
29469,1.123379,10.836525,11.857055,-0.688950,-0.887544,-2.537507
29470,2.047784,12.355098,12.365198,-1.877946,-0.508923,-3.027217
29471,2.935428,10.935987,11.917037,-3.206324,-0.116150,-3.398617
29472,3.077318,7.327161,11.007836,-4.221871,0.324186,-3.753138
29473,2.632984,3.092309,8.932701,-4.845150,0.681617,-4.019784
29474,1.796379,-0.869722,6.160447,-5.126505,0.868027,-4.055555
29475,0.368830,-5.189395,3.311798,-5.143953,0.853391,-3.842893
29476,-1.575020,-9.039143,1.114715,-4.857606,0.441371,-3.337930
29477,-2.536355,-10.324195,3.158865,-4.122916,-0.193909,-2.904103
29478,-1.911815,-10.805471,6.280785,-3.077425,-0.886487,-2.333729
29479,0.708247,-11.007044,8.554594,-1.760067,-1.515611,-1.684518
29480,2.827265,-10.362948,9.080235,-0.211353,-1.839942,-1.203740
29481,2.740467,-8.386125,8.576398,1.242844,-2.056866,-0.866458
29482,1.630555,-5.770374,8.035819,2.245748,-2.272955,-0.605982
29483,0.853591,-3.295093,7.820291,2.650102,-2.449982,-0.470323
29484,0.810513,-1.072539,8.438320,2.562983,-2.578238,-0.447752
29485,1.003248,0.628985,8.944449,2.095725,-2.541651,-0.515110
29486,0.674322,2.185237,8.775875,1.428433,-2.367663,-0.765015
29487,0.337846,4.648771,9.150934,0.662540,-2.177678,-1.244215
29488,0.871377,6.957422,9.776042,-0.350050,-1.976622,-1.767709
29489,2.223632,7.243768,10.374642,-1.591850,-1.702339,-2.181150
29490,3.443680,5.332094,10.171439,-2.757310,-1.386943,-2.488412
29491,4.060631,1.831653,9.993250,-3.560108,-1.067938,-2.722207
29492,4.092722,-2.388384,8.760678,-3.998599,-0.876885,-2.789533
29493,3.875879,-6.462385,6.841340,-4.091463,-0.873094,-2.592801
29494,3.192903,-9.802246,5.342034,-3.789562,-1.051568,-2.198942
29495,2.701092,-11.749791,5.790340,-3.007097,-1.428491,-1.755112
29496,3.009305,-12.808019,6.856156,-1.763935,-1.871329,-1.297140
29497,4.131778,-12.761781,7.810801,-0.174457,-2.329223,-0.841297
29498,5.170862,-11.450445,7.755692,1.501472,-2.678043,-0.463579
29499,5.441677,-9.958812,7.384861,2.845717,-2.894574,-0.120617
29500,5.045680,-7.989071,7.269359,3.621667,-3.078376,0.169942
29501,5.095549,-5.300961,8.134356,3.845414,-3.231707,0.343541
29502,5.988293,-1.367317,9.703991,3.642837,-3.172011,0.229022
29503,6.558806,3.304135,11.383528,3.017021,-2.811649,-0.091118
29504,6.049508,6.580707,11.977270,1.784032,-2.339168,-0.425157
29505,5.104086,8.812811,11.982841,0.175595,-1.875150,-0.899420
29506,4.647232,9.170597,11.311349,-1.676443,-1.490040,-1.435331
29507,4.944725,7.293299,10.228776,-3.456817,-1.200001,-1.813714
29508,5.879689,4.388895,9.455602,-4.869165,-0.986984,-2.063348
29509,7.418343,0.384008,8.144338,-5.673493,-0.777332,-2.191690
29510,8.817858,-4.252466,6.554636,-5.825429,-0.602366,-2.219213
29511,8.839535,-8.991254,4.310129,-5.428933,-0.499460,-1.970054
29512,7.495155,-12.011468,3.288899,-4.622701,-0.678694,-1.529946
29513,6.184098,-12.786808,4.606170,-3.476311,-1.112688,-1.009104
29514,6.673691,-12.045988,7.815604,-1.852061,-1.555943,-0.694104
29515,8.662534,-10.821075,9.667962,0.259910,-1.896403,-0.493258
29516,10.096255,-9.134785,9.099617,2.302011,-1.957561,-0.236575
29517,8.870298,-5.554912,8.532163,3.762242,-1.877078,0.041796
29518,7.689015,-0.970356,9.450526,4.355923,-1.828831,0.173581
29519,7.483735,2.670043,10.806100,4.111544,-1.652781,0.187611
29520,7.053866,4.000165,10.217572,3.038281,-1.434681,0.267112
29521,6.880205,3.928337,8.985069,1.381828,-1.338177,0.277377
29522,7.740427,4.390124,8.061377,-0.359861,-1.084239,-0.232413
29523,8.030622,5.251417,7.550303,-1.835703,-0.679032,-0.860990
29524,7.820038,4.630883,6.809560,-3.085750,-0.382066,-1.249480
29525,7.627867,3.189332,6.415134,-4.119414,-0.206523,-1.383838
29526,7.863540,1.833812,6.299068,-5.081049,-0.094018,-1.370796
29527,8.276310,0.051174,5.814695,-5.933639,-0.012581,-1.331703
29528,8.632359,-1.423913,4.707559,-6.597828,0.085659,-1.292763
29529,8.453404,-3.382592,2.860022,-6.974124,0.117073,-1.180716
29530,8.360649,-6.624070,0.682722,-6.811855,0.026682,-1.046581
29531,7.961641,-10.663506,-0.530335,-5.805440,-0.183960,-0.950402
29532,7.715994,-14.706364,-0.090251,-3.863622,-0.474391,-0.893270
29533,7.390131,-16.979609,1.916303,-1.017311,-0.899312,-0.881350
29534,7.868188,-15.134635,3.409428,2.006204,-1.399040,-0.870578
29535,8.648426,-10.361911,3.179243,4.392205,-1.697929,-0.795292
29536,9.001825,-5.735044,2.542746,5.769643,-1.848650,-0.616003
29537,8.764785,-2.281878,2.423560,6.241889,-1.930290,-0.361735
29538,9.013989,0.827757,3.883431,6.040514,-1.916189,-0.193226
29539,9.746202,4.148553,7.042400,5.289867,-1.658119,-0.244974
29540,10.162928,6.139642,8.265315,3.909597,-1.262940,-0.360091
29541,9.256887,6.066334,6.197035,1.868025,-0.946768,-0.275011
29542,8.421918,4.980187,3.316753,-0.527041,-0.787627,-0.351247
29543,7.959463,5.161075,1.786183,-2.630514,-0.543241,-0.860905
29544,7.905295,4.566068,1.736786,-4.380454,-0.391843,-1.318203
29545,8.892050,1.986746,2.051764,-5.648454,-0.338196,-1.451224
29546,10.017188,-0.501263,2.040219,-6.465043,-0.218065,-1.363929
29547,9.919942,-3.447390,0.498684,-6.892493,-0.100851,-1.165929
29548,8.826996,-8.222933,-1.112890,-6.529599,-0.157837,-0.994167
29549,8.100241,-11.681057,0.534538,-5.180007,-0.419254,-1.004326
29550,8.261191,-13.952219,3.733901,-2.884672,-0.727195,-1.095048
29551,8.809153,-13.982645,4.911874,-0.101847,-1.144178,-1.118338
29552,9.752653,-10.078713,5.027434,2.442288,-1.418841,-1.087472
29553,9.927660,-4.905755,5.083822,4.041269,-1.450455,-1.001181
29554,9.615383,-0.754192,5.218354,4.655883,-1.460939,-0.870214
29555,9.543199,2.706539,5.774597,4.320130,-1.370006,-0.779077
29556,9.714410,4.094536,5.785119,3.259273,-1.195026,-0.659809
29557,10.246990,3.832474,5.210582,1.734999,-1.083442,-0.571501
29558,11.094327,2.804420,3.596121,0.075893,-0.873169,-0.644155
29559,11.274989,2.940176,2.610972,-1.389875,-0.572655,-0.856662
29560,10.467104,3.029033,2.670048,-2.582728,-0.310027,-1.003947
29561,10.131816,2.142386,2.986174,-3.543841,-0.233334,-0.994973
29562,10.596360,0.746625,3.132881,-4.315161,-0.140828,-0.829985
29563,10.411992,-1.285141,2.837418,-4.817365,-0.019461,-0.656830
29564,9.609845,-4.098890,2.303265,-4.815548,0.065026,-0.495228
29565,8.720694,-6.423379,2.926206,-4.097782,-0.017078,-0.452384
29566,8.812944,-7.863402,3.587046,-2.841803,-0.222555,-0.478608
29567,9.091677,-8.719107,3.735004,-1.142555,-0.362573,-0.481902
29568,9.386296,-7.805030,3.396205,0.586746,-0.491621,-0.488528
29569,9.374547,-5.385725,3.243159,1.897109,-0.554010,-0.478877
29570,9.153454,-3.178339,3.191741,2.618133,-0.586778,-0.462637
29571,9.360723,-1.377265,3.727891,2.809419,-0.606808,-0.457462
29572,9.774487,0.089342,4.340277,2.528610,-0.529499,-0.458840
29573,10.063743,1.023183,4.296774,1.935681,-0.395351,-0.438825
29574,10.027474,1.751227,3.838110,1.045188,-0.263576,-0.401448
29575,9.785577,2.087099,3.293062,0.007909,-0.179157,-0.380806
29576,9.632418,1.587706,2.754894,-0.987316,-0.104771,-0.371282
29577,9.511807,0.374710,2.364823,-1.794355,-0.072453,-0.370406
29578,9.716983,-1.060881,2.256801,-2.292517,-0.056338,-0.320752
29579,10.041221,-2.323427,2.258089,-2.472646,-0.046271,-0.259817
29580,10.187795,-3.183620,2.247938,-2.434417,0.015712,-0.168722
29581,9.901144,-3.822504,2.350163,-2.220266,0.069914,-0.098768
29582,9.789422,-3.876541,2.444708,-1.914361,0.080710,-0.029059
29583,9.971177,-3.715057,2.584654,-1.628229,0.086352,0.022783
29584,10.110858,-3.460631,2.546517,-1.387420,0.112028,0.095058
29585,10.053034,-3.166053,2.593836,-1.195566,0.152282,0.164566
29586,10.004505,-2.902456,2.581257,-1.041160,0.162001,0.226586
29587,9.842092,-2.697425,2.472536,-0.929882,0.183439,0.291878
29588,9.548096,-2.491535,2.469103,-0.853921,0.186715,0.345096
29589,9.368150,-2.220801,2.457876,-0.793832,0.189286,0.371791
29590,9.091655,-2.035604,2.441898,-0.757003,0.184936,0.377677
29591,8.891284,-1.964132,2.351601,-0.716418,0.167462,0.368891
29592,8.852510,-2.011560,2.331220,-0.667621,0.132495,0.342197
29593,8.849987,-2.153098,2.376033,-0.599169,0.115084,0.298541
29594,8.907329,-2.282011,2.425490,-0.516642,0.080678,0.244645
29595,9.076543,-2.393623,2.378451,-0.421001,0.065558,0.191474
29596,9.110908,-2.499834,2.374109,-0.311710,0.055088,0.146153
29597,9.226723,-2.486639,2.265193,-0.195176,0.042954,0.104683
29598,9.336471,-2.335115,2.265951,-0.088759,0.031894,0.076604
29599,9.437182,-2.307960,2.303962,0.003946,0.022693,0.060038
29600,9.602417,-2.303400,2.252310,0.092623,0.022002,0.052632
29601,9.756013,-2.274831,2.280182,0.170215,0.034566,0.058245
29602,9.733546,-2.105722,2.297819,0.220467,0.052906,0.077080
29603,9.673143,-1.897410,2.253254,0.232121,0.076270,0.104519
29604,9.567442,-1.771204,2.148566,0.205069,0.094260,0.140748
29605,9.610708,-1.629186,2.043941,0.150211,0.084326,0.175431
29606,9.703811,-1.504601,1.956495,0.071719,0.082825,0.199862
29607,9.809329,-1.422320,1.966471,-0.014162,0.083046,0.224782
29608,9.689527,-1.464045,2.102007,-0.101258,0.093053,0.238175
29609,9.571188,-1.557605,2.259275,-0.177307,0.087915,0.243956
29610,9.451206,-1.695387,2.295025,-0.230503,0.078054,0.232252
29611,9.401801,-1.857251,2.346634,-0.266507,0.068561,0.207910
29612,9.334583,-1.988599,2.276427,-0.276173,0.061462,0.185145
29613,9.236377,-2.123930,2.218080,-0.265243,0.063484,0.153030
29614,9.117206,-2.243624,2.160284,-0.225467,0.054994,0.127574
29615,9.074089,-2.325766,2.119506,-0.175234,0.047404,0.104499
29616,9.070732,-2.437573,2.109594,-0.114402,0.032222,0.084849
29617,9.115777,-2.510450,2.096787,-0.042243,0.016416,0.067512
29618,9.217330,-2.484843,2.135801,0.029745,0.012420,0.056533
29619,9.294436,-2.454493,2.210105,0.088772,0.005768,0.049348
29620,9.385290,-2.394471,2.240505,0.121664,0.006567,0.048176
29621,9.420546,-2.329764,2.230709,0.138075,0.007719,0.053934
29622,9.475066,-2.328087,2.188046,0.128397,0.015187,0.063276
29623,9.440684,-2.289149,2.182558,0.120613,0.012280,0.076039
29624,9.460453,-2.297829,2.097657,0.114558,0.009443,0.085740
29625,9.501781,-2.377649,2.121404,0.119837,0.000714,0.095743
29626,9.566074,-2.419791,2.175781,0.133293,-0.005888,0.107134
29627,9.521940,-2.453090,2.203297,0.147907,-0.003578,0.118314
29628,9.521108,-2.410740,2.238476,0.159515,-0.003996,0.126756
29629,9.462680,-2.414750,2.200941,0.171633,-0.011302,0.126895
29630,9.418167,-2.448715,2.228647,0.179358,-0.014843,0.138053
29631,9.428363,-2.437630,2.274245,0.200912,-0.019595,0.140411
29632,9.394610,-2.445685,2.202199,0.215559,-0.027925,0.147678
29633,9.404871,-2.434796,2.247411,0.229689,-0.029695,0.152879
29634,9.342632,-2.448166,2.242645,0.244260,-0.034895,0.157097
29635,9.307724,-2.414284,2.234880,0.261811,-0.038455,0.161522
29636,9.283741,-2.410885,2.238155,0.273774,-0.046785,0.159073
29637,9.302380,-2.480761,2.263224,0.297784,-0.057115,0.158685
29638,9.299789,-2.488421,2.265463,0.322576,-0.060472,0.157044
29639,9.317582,-2.415269,2.307182,0.340863,-0.060508,0.152822
29640,9.297537,-2.357288,2.340688,0.350961,-0.062652,0.147286
29641,9.336719,-2.251004,2.444545,0.341688,-0.059837,0.142641
29642,9.387120,-2.169975,2.471670,0.310962,-0.053435,0.133309
29643,9.427195,-2.107312,2.510872,0.264394,-0.041608,0.129103
29644,9.460363,-2.100235,2.466192,0.209753,-0.020586,0.119532
29645,9.384959,-2.087284,2.482940,0.147872,-0.006869,0.119667
29646,9.379108,-2.098793,2.431072,0.083482,0.008925,0.115141
29647,9.341357,-2.165208,2.417125,0.027694,0.013725,0.109819
29648,9.285861,-2.260863,2.394579,-0.011350,0.019333,0.106018
29649,9.278784,-2.371615,2.391673,-0.023375,0.022582,0.106386
29650,9.240025,-2.487498,2.401935,-0.014816,0.020041,0.104268
29651,9.285016,-2.560774,2.448515,0.019463,0.017098,0.110263
29652,9.264734,-2.549801,2.417928,0.059350,0.014706,0.105552
29653,9.276419,-2.487776,2.437780,0.096214,0.011932,0.103037
29654,9.292115,-2.417707,2.424138,0.119295,0.002817,0.102831
29655,9.223211,-2.437461,2.399731,0.143288,0.004820,0.100690
29656,9.161592,-2.445298,2.396303,0.167218,-0.006514,0.090246
29657,9.194282,-2.485198,2.377853,0.188120,-0.020681,0.077225
29658,9.212979,-2.548232,2.405550,0.212887,-0.029314,0.066085
29659,9.315890,-2.612575,2.406639,0.243242,-0.034958,0.048973
29660,9.329914,-2.588475,2.451248,0.272277,-0.039773,0.033345
29661,9.377410,-2.463867,2.519189,0.280773,-0.038736,0.020198
29662,9.442384,-2.355373,2.532249,0.259384,-0.027785,0.011709
29663,9.447269,-2.295619,2.476131,0.220067,-0.015652,0.005786
29664,9.416693,-2.248030,2.467141,0.161158,0.001934,0.004857
29665,9.339886,-2.229034,2.430472,0.096692,0.017760,0.012347
29666,9.306848,-2.279839,2.385324,0.039395,0.020423,0.023702
29667,9.329121,-2.336631,2.380038,-0.000384,0.022390,0.036431
29668,9.319465,-2.399593,2.388017,-0.025948,0.034373,0.042076
