// Start Time: Unknown
// Update Rate: 100.0Hz
// Filter Profile: human (46.1)
// Firmware Version: 4.3.5
PacketCounter,Acc_X,Acc_Y,Acc_Z,Gyr_X,Gyr_Y,Gyr_Z
40150,9.615894,-0.837073,2.778413,1.115352,-0.103720,0.039934
40151,9.477756,-0.554247,2.854207,0.761869,-0.040589,0.010964
40152,9.419373,-0.448226,2.892916,0.342119,0.006495,0.002054
40153,9.314292,-0.487740,2.982457,-0.078606,0.048070,-0.012887
40154,9.302257,-0.802143,3.066172,-0.453803,0.081817,-0.024577
40155,9.205799,-1.567292,2.607903,-0.713021,0.102562,-0.027951
40156,8.898645,-2.859779,1.919764,-0.803761,0.093543,0.008142
40157,8.604304,-4.111197,1.257700,-0.633478,0.027573,0.058124
40158,8.252857,-5.601343,0.469921,-0.182640,-0.155217,0.170143
40159,8.596248,-7.097320,1.005418,0.806002,-0.414590,0.222610
40160,9.655585,-8.002840,1.520258,2.063199,-0.652539,0.277212
40161,10.723721,-7.465102,2.131508,3.340362,-0.772372,0.377581
40162,11.105900,-5.364100,2.527818,4.294076,-0.770368,0.493244
40163,10.914070,-2.954246,2.570960,4.756746,-0.742403,0.600774
40164,10.895929,-0.761318,2.865204,4.774014,-0.695675,0.711612
40165,11.043887,1.674851,4.283295,4.396187,-0.524257,0.748237
40166,11.385097,3.519003,5.969664,3.574539,-0.211618,0.743183
40167,11.213210,5.326296,7.273098,2.416715,0.228184,0.598255
40168,10.885058,6.758051,8.040259,0.957637,0.682707,0.439430
40169,10.219656,7.253188,6.728189,-0.797355,1.087866,0.276699
40170,9.639980,6.657135,5.092924,-2.553503,1.380473,0.136998
40171,9.615518,4.056533,4.512203,-3.937967,1.632637,-0.010438
40172,10.287548,0.758454,4.684981,-4.784200,1.840436,-0.043583
40173,10.889821,-2.147929,5.103927,-5.109466,2.082462,0.011338
40174,10.969223,-3.943607,5.061148,-5.070584,2.281653,0.074869
40175,10.827433,-5.026955,4.735530,-4.839030,2.440715,0.154876
40176,10.566618,-6.013338,4.012146,-4.474356,2.534075,0.270231
40177,9.548648,-7.660729,1.296447,-4.139257,2.515328,0.513312
40178,7.635973,-10.166495,-0.561921,-3.486324,2.260644,0.889326
40179,6.246364,-12.304497,0.527165,-2.280373,1.757593,1.136695
40180,7.211484,-13.983615,3.434877,-0.505069,1.122455,1.279802
40181,9.579351,-13.788154,5.720952,1.620693,0.683534,1.358727
40182,11.449338,-11.832984,4.907000,3.548561,0.413960,1.510511
40183,11.340423,-8.285533,3.705840,4.896065,0.337885,1.728075
40184,9.646183,-6.020489,2.909015,5.520166,0.207828,2.005102
40185,8.511324,-4.669686,3.180337,5.722848,-0.010880,2.140543
40186,8.802748,-3.401807,4.536902,5.619757,-0.211315,2.139414
40187,10.218257,-1.934609,6.836221,5.292370,-0.157829,2.071825
40188,11.089881,-1.108987,8.688862,4.766941,0.211195,1.949607
40189,10.531988,-0.658799,8.961897,4.101985,0.724099,1.774349
40190,8.777489,-0.015247,7.822707,3.366247,1.173751,1.518312
40191,7.152507,1.043341,6.496950,2.568708,1.514439,1.133581
40192,6.222719,1.833221,6.186982,1.661353,1.750225,0.773706
40193,6.513870,1.267937,7.111764,0.724398,1.914480,0.558238
40194,7.446630,-0.310067,7.844388,-0.146220,2.081042,0.474020
40195,7.852583,-2.417358,7.326895,-0.868764,2.247667,0.490360
40196,6.981952,-4.660274,5.128946,-1.445174,2.303425,0.646305
40197,5.295224,-6.911064,3.789802,-1.574488,2.135859,0.892165
40198,4.402467,-9.329691,4.100628,-1.125287,1.713150,1.073395
40199,5.391891,-12.149383,5.434085,0.086456,1.190317,1.231714
40200,6.944500,-13.515038,5.879036,1.804797,0.703753,1.403030
40201,7.932616,-12.242734,5.492203,3.472672,0.344852,1.621165
40202,7.808235,-9.074820,4.953647,4.694439,0.104079,1.808845
40203,7.542205,-5.867575,4.918824,5.268538,-0.062915,1.933121
40204,7.793085,-2.991266,6.333538,5.383608,-0.060051,1.897532
40205,7.939564,-0.600174,8.182260,4.953191,0.121715,1.827896
40206,7.702878,0.212809,9.538775,4.195444,0.452723,1.710521
40207,7.123661,-0.014450,9.753630,3.470481,0.844342,1.469936
40208,6.602700,0.253900,9.383996,2.812696,1.257745,1.132834
40209,6.557904,1.559395,9.290457,2.116514,1.658488,0.798613
40210,7.090070,2.585687,9.728888,1.238847,2.087276,0.514455
40211,7.644770,2.390138,9.898291,0.193096,2.546824,0.324835
40212,7.302614,0.774403,8.471425,-0.882431,2.943184,0.289762
40213,5.427072,-1.462442,5.855612,-1.868791,3.108725,0.483466
40214,3.006233,-4.264448,4.407446,-2.408502,2.971366,0.817211
40215,1.628012,-7.720217,4.586826,-2.255251,2.490939,1.152131
40216,2.021861,-11.087515,6.154161,-1.244988,1.806046,1.436516
40217,3.780269,-13.034850,7.443327,0.483605,1.133597,1.680299
40218,5.596635,-12.014998,7.190874,2.372885,0.620701,1.872125
40219,5.699093,-8.341779,6.036033,3.726199,0.352665,2.063323
40220,4.659867,-4.476936,5.854757,4.342564,0.128179,2.217757
40221,4.129995,-1.417322,6.934492,4.338883,0.022538,2.236942
40222,4.162863,0.963659,8.637980,3.872836,-0.015526,2.153344
40223,4.390588,1.733578,9.909360,3.197800,0.178999,2.079776
40224,4.029237,1.584628,10.486613,2.625702,0.414823,1.886177
40225,3.887499,1.526907,10.727436,2.271049,0.706306,1.601899
40226,3.961734,2.010947,11.024307,2.037098,1.068239,1.274718
40227,4.134093,2.931939,11.396808,1.729768,1.477566,0.957393
40228,4.441291,3.711989,11.666555,1.213479,1.905790,0.656896
40229,4.381054,3.842724,11.349630,0.479623,2.341794,0.418417
40230,3.745559,2.204083,9.905718,-0.243003,2.664491,0.314062
40231,2.411168,0.026649,7.749952,-0.835984,2.785229,0.381338
40232,0.622201,-2.481645,6.187526,-1.094974,2.652889,0.607468
40233,-0.743780,-5.067184,6.304029,-0.954756,2.264234,0.864160
40234,-0.777935,-7.268343,7.103968,-0.417011,1.659101,1.119709
40235,0.306314,-8.456693,7.293336,0.477744,0.999580,1.372598
40236,1.474339,-8.579566,6.680345,1.566577,0.475356,1.637261
40237,1.647752,-7.243903,6.123381,2.531588,0.067352,1.874549
40238,1.538042,-4.963142,6.387367,3.133562,-0.278570,2.057718
40239,1.703932,-2.506956,7.362877,3.318715,-0.499173,2.159443
40240,2.172719,-0.039808,8.693132,3.243464,-0.539214,2.158401
40241,2.323022,1.452297,9.838714,2.952206,-0.437535,2.155096
40242,2.264355,1.692814,10.605814,2.665479,-0.198015,2.076335
40243,2.075990,1.543987,10.756149,2.503192,0.087257,1.895174
40244,2.312865,2.174702,10.901015,2.419165,0.400203,1.609492
40245,2.984494,3.568594,11.523293,2.278160,0.789636,1.281656
40246,3.654260,5.069341,12.187247,1.912637,1.277894,0.966635
40247,3.763357,6.001622,12.517932,1.323372,1.806002,0.664524
40248,3.478315,5.839383,11.965449,0.578771,2.304200,0.417264
40249,2.445107,4.457484,10.359006,-0.151668,2.709846,0.273299
40250,0.815887,2.238778,8.131701,-0.749596,2.939214,0.271206
40251,-0.998503,-0.626321,6.556628,-1.077035,2.909488,0.418362
40252,-1.908708,-3.664181,6.202841,-1.073344,2.624037,0.655616
40253,-2.253607,-5.862749,6.127800,-0.780263,2.188709,0.953732
40254,-2.485362,-6.808293,5.471612,-0.296296,1.632348,1.322687
40255,-2.416559,-7.232017,5.404138,0.424166,1.072581,1.706336
40256,-2.096687,-7.343832,5.374986,1.257204,0.516004,2.089548
40257,-1.300511,-6.846100,5.408891,2.011255,-0.001888,2.477065
40258,-0.704062,-5.193427,5.831334,2.545118,-0.399384,2.829288
40259,-0.144799,-2.297600,7.029585,2.840196,-0.648915,3.082435
40260,0.539544,0.820636,8.847595,2.898334,-0.703319,3.276742
40261,1.070265,3.143781,10.953484,2.797917,-0.547534,3.427771
40262,1.274304,4.280309,12.361898,2.519825,-0.287188,3.543928
40263,1.364830,4.632774,12.791499,2.134114,-0.026076,3.560892
40264,1.887373,4.788369,12.095603,1.819239,0.268386,3.368168
40265,2.774464,6.431220,10.949879,1.743771,0.674923,2.833073
40266,3.464840,9.587057,11.319561,1.764005,1.235070,2.149909
40267,3.649945,12.131774,12.598694,1.514269,1.825989,1.569707
40268,3.287103,13.001647,13.420942,0.960208,2.442735,1.043427
40269,2.112659,11.796732,12.852557,0.266914,3.021435,0.570171
40270,0.619364,9.150724,10.897654,-0.340326,3.440539,0.223849
40271,-0.563550,5.896288,8.988818,-0.785583,3.687717,0.062981
40272,-1.227651,2.461259,6.781067,-1.164126,3.680163,0.160348
40273,-1.947993,-0.800931,5.767406,-1.390156,3.542759,0.476558
40274,-2.498245,-4.212020,5.604001,-1.476994,3.256185,0.930502
40275,-2.510993,-6.436800,5.800239,-1.249583,2.812000,1.410754
40276,-2.719563,-6.552713,5.679308,-0.732742,2.303743,1.869129
40277,-2.770097,-5.132824,5.489618,-0.186658,1.752239,2.390054
40278,-2.589060,-3.212632,5.787277,0.117712,1.308308,2.943956
40279,-2.353588,-1.509413,6.259141,0.137329,0.877379,3.446863
40280,-1.586840,0.165078,7.227200,0.085270,0.540324,3.818249
40281,-0.607327,1.836549,8.705789,0.095043,0.353776,4.052299
40282,0.083261,3.504123,10.079689,0.161962,0.297511,4.157306
40283,0.711797,5.133078,11.420609,0.295306,0.336846,4.112288
40284,1.635205,5.200995,11.560917,0.393153,0.434238,3.987288
40285,2.348916,5.025308,10.322464,0.793296,0.603984,3.629496
40286,2.859694,7.029493,9.587731,1.452771,0.878951,3.039921
40287,2.949217,10.720978,10.202865,1.903995,1.295938,2.386815
40288,2.556740,13.582799,10.664459,1.755124,1.744644,1.794508
40289,1.863340,13.500147,9.937230,1.135515,2.158174,1.292681
40290,0.799094,10.916485,7.954245,0.372220,2.425414,0.937744
40291,0.079768,5.583314,6.588043,-0.226452,2.475198,0.848273
40292,-0.396317,-0.885423,5.575243,-0.397947,2.423324,1.033530
40293,-1.849220,-5.093627,3.932417,-0.219112,2.165346,1.401294
40294,-3.087218,-5.263923,3.700954,0.231201,1.614999,1.717274
40295,-3.124887,-1.895225,4.635994,0.707935,1.010644,1.993848
40296,-1.760144,2.790616,5.619607,0.902229,0.470869,2.275908
40297,0.258827,6.610566,6.299049,0.609433,0.207283,2.570014
40298,1.211010,8.844934,6.575551,0.029820,0.067888,2.816771
40299,1.235483,9.152000,7.224867,-0.553055,-0.075330,2.881669
40300,0.953887,7.702841,7.873088,-0.870745,-0.219891,2.815143
40301,0.853459,7.190917,7.927180,-0.740614,-0.376594,2.449476
40302,1.714752,8.680909,8.818715,-0.145486,-0.372635,1.772543
40303,2.845347,11.507496,10.328222,0.463542,-0.150056,1.036569
40304,2.949830,13.555389,10.329334,0.595899,0.186377,0.458032
40305,2.025906,12.549362,9.493815,0.357742,0.497856,0.022971
40306,0.682478,9.506472,7.832948,0.053013,0.677882,-0.288991
40307,-0.282278,6.967093,6.671244,-0.141826,0.664826,-0.406724
40308,-0.614299,5.049055,6.733786,-0.431260,0.531831,-0.367201
40309,-0.351685,2.722947,6.720776,-0.792398,0.374775,-0.207221
40310,-0.422733,0.198922,6.162331,-0.984087,0.251398,-0.010530
40311,-1.126957,-0.985077,5.671084,-0.834423,0.058834,0.162346
40312,-1.510426,-0.294181,5.976978,-0.481195,-0.236812,0.311490
40313,-1.105939,1.978669,6.557200,-0.154925,-0.559858,0.436245
40314,-0.032906,5.273810,7.545863,0.006491,-0.780207,0.461287
40315,0.929570,8.119396,8.548162,-0.118956,-0.883079,0.440751
40316,1.863238,8.823639,9.578348,-0.410375,-0.909679,0.358195
40317,2.514312,8.376382,10.186611,-0.484910,-0.860655,0.083277
40318,2.932152,8.511776,10.595380,-0.139054,-0.710219,-0.411941
40319,2.923660,10.099455,11.030832,0.435587,-0.492745,-1.002545
40320,2.664122,11.441085,11.920426,0.839134,-0.226296,-1.528469
40321,2.159642,11.844136,12.163074,0.911270,0.057773,-2.028603
40322,1.984488,10.432593,12.306927,0.730206,0.377266,-2.461941
40323,1.823131,7.159709,11.056670,0.354018,0.692674,-2.687585
40324,1.224107,3.373678,8.764071,-0.002743,0.933089,-2.674788
40325,-0.430553,0.291522,5.900337,-0.325491,1.023289,-2.394222
40326,-2.439398,-1.654232,3.722901,-0.598942,0.845778,-1.982074
40327,-3.949679,-1.889950,2.742344,-0.921870,0.483973,-1.573109
40328,-4.493714,-0.174200,3.709057,-1.312057,-0.004537,-1.235820
40329,-3.815271,2.421030,5.110501,-1.669151,-0.450527,-1.017098
40330,-2.719981,3.788714,5.667173,-1.993286,-0.955233,-0.744698
40331,-1.242913,4.131765,5.682844,-2.196338,-1.413008,-0.538872
40332,-0.431190,4.393808,5.820050,-2.188148,-1.721092,-0.500269
40333,-0.325038,4.810183,7.057941,-1.988089,-1.989440,-0.591413
40334,0.138257,4.282174,8.924493,-1.618198,-2.221975,-0.789547
40335,0.761986,3.510170,10.169744,-1.045698,-2.353543,-1.112581
40336,1.286947,4.562822,10.740161,-0.275223,-2.379810,-1.590481
40337,2.151761,7.041691,11.307875,0.635055,-2.236303,-2.272869
40338,2.905599,9.771377,11.527958,1.341576,-1.926808,-2.931009
40339,3.693263,11.363000,12.428928,1.665102,-1.541350,-3.437341
40340,4.277677,11.081576,13.832542,1.569281,-1.014721,-3.832403
40341,3.993589,10.744339,15.387042,1.238938,-0.488761,-4.218468
40342,3.220021,9.418976,14.967981,0.489677,0.002896,-4.463300
40343,2.113883,7.325877,11.920128,-0.323203,0.329426,-4.572597
40344,0.830024,5.247561,7.881123,-1.129642,0.525922,-4.545663
40345,-0.881897,2.098682,3.102964,-1.899479,0.488508,-4.313697
40346,-3.112659,-1.222423,-1.228999,-2.163564,0.215260,-4.124254
40347,-6.454790,-3.314137,-3.101380,-1.993820,-0.438627,-4.018267
40348,-9.141686,-3.220840,-0.697792,-1.208581,-1.505372,-3.902871
40349,-8.482237,-3.195853,3.409177,0.021907,-2.796057,-3.588986
40350,-3.432556,-4.343784,6.040130,1.180924,-3.843946,-3.223114
40351,1.250871,-5.597701,7.969468,2.164030,-4.270583,-2.824497
40352,2.223944,-4.092046,9.991436,2.919622,-4.516795,-2.407686
40353,1.267481,0.542794,12.060737,3.136118,-4.722716,-2.027949
40354,0.600631,5.261136,13.982841,2.731565,-4.765523,-1.762076
40355,-0.073161,9.232918,12.962377,2.113025,-4.631616,-1.654354
40356,-0.722379,9.743529,8.225357,1.453970,-4.572756,-1.605504
40357,1.309929,7.490606,5.842312,0.916450,-4.471491,-1.762406
40358,6.060097,7.621578,9.661230,0.915500,-3.867703,-2.367852
40359,9.762029,11.251547,15.538104,0.974041,-2.801572,-2.957601
40360,10.352042,14.463461,19.470846,0.284388,-1.648756,-3.292914
40361,8.963627,13.755518,18.970984,-0.954346,-0.607684,-3.620923
40362,6.999346,9.733449,16.001087,-1.929608,0.329125,-4.070825
40363,5.763518,4.643639,12.940797,-2.331494,1.046214,-4.417685
40364,4.690678,1.150428,9.211856,-2.373962,1.437859,-4.532926
40365,3.014593,-0.611209,5.790879,-2.410421,1.546820,-4.420657
40366,0.826197,-1.578567,4.992267,-2.522730,1.281302,-4.150535
40367,-0.531886,-1.592953,6.173148,-2.645121,0.755676,-3.873658
40368,-0.454421,-1.771219,6.805625,-2.639130,0.108340,-3.503482
40369,0.712209,-3.669648,7.149286,-2.288128,-0.499454,-3.053788
40370,1.460484,-5.260021,7.322469,-1.492853,-1.044328,-2.672501
40371,1.439023,-4.743626,7.890944,-0.504162,-1.529687,-2.393871
40372,1.160387,-2.499763,8.741959,0.289566,-1.928014,-2.217234
40373,1.079555,0.298485,9.557621,0.813158,-2.224147,-2.119689
40374,1.196985,2.564455,10.431864,1.109472,-2.331533,-2.104891
40375,1.719740,2.959151,11.307760,1.279800,-2.259109,-2.144527
40376,2.759496,2.128468,11.493478,1.438691,-2.069664,-2.232117
40377,4.016872,2.148128,11.706175,1.692493,-1.719508,-2.486376
40378,4.825119,4.523867,12.577214,1.858829,-1.161934,-2.865787
40379,4.599975,8.087785,13.552486,1.545636,-0.526885,-3.185869
40380,3.935114,10.586163,13.191183,0.545306,-0.016258,-3.419791
40381,3.479502,10.229916,11.693545,-0.889915,0.394808,-3.596991
40382,2.952500,7.001969,10.204683,-2.155378,0.690238,-3.740141
40383,2.578413,2.219772,8.660750,-2.825458,0.774237,-3.763138
40384,1.810347,-1.945245,6.686659,-2.753034,0.701738,-3.689695
40385,-0.078864,-4.282236,5.474006,-2.023336,0.394212,-3.538060
40386,-1.659613,-4.700111,6.656296,-0.919005,-0.159726,-3.388419
40387,-1.723392,-3.971550,7.943745,0.314365,-0.819035,-3.225478
40388,-0.511652,-2.816614,8.617700,1.432956,-1.350814,-3.070049
40389,0.402023,-1.118552,9.270247,2.301126,-1.743404,-2.932533
40390,0.806121,0.944319,9.955658,2.769113,-2.010182,-2.800474
40391,0.794013,3.016991,10.324789,2.831951,-2.147187,-2.692704
40392,0.689881,4.326667,10.475321,2.589474,-2.186184,-2.597967
40393,1.045484,5.011546,10.579701,2.123137,-2.080747,-2.613509
40394,2.427913,5.032137,11.089681,1.550666,-1.813135,-2.772410
40395,4.042759,5.038658,11.577036,1.046608,-1.341594,-3.036509
40396,4.815880,5.662659,12.116208,0.538946,-0.750396,-3.298484
40397,5.019501,6.397466,12.330098,-0.142001,-0.185190,-3.501949
40398,5.102994,6.485665,11.887093,-1.027035,0.326836,-3.666824
40399,5.008939,5.469167,10.975994,-1.910731,0.783283,-3.798645
40400,4.833268,3.881217,9.854716,-2.591142,1.163904,-3.903308
40401,4.348283,1.916538,8.340474,-2.985811,1.457769,-3.929652
40402,3.246264,0.112983,6.469465,-3.157058,1.613263,-3.862657
40403,0.891031,-1.524215,3.282420,-3.281737,1.552337,-3.619011
40404,-2.572347,-3.092846,1.984187,-3.162683,1.223177,-3.276781
40405,-5.565516,-4.815955,4.303891,-2.512117,0.551437,-2.981872
40406,-5.998739,-6.870308,6.778206,-1.222768,-0.284793,-2.756787
40407,-3.645253,-7.951310,7.461532,0.571044,-1.065054,-2.588590
40408,-1.405882,-6.056241,7.733684,2.371508,-1.550154,-2.427505
40409,-1.361119,-2.289516,9.140103,3.486704,-1.859692,-2.232389
40410,-2.155808,1.598108,10.738387,3.757133,-2.073496,-2.064712
40411,-2.425031,4.553657,11.973818,3.364501,-2.148411,-1.956648
40412,-2.187734,5.162456,11.999137,2.526425,-2.060820,-1.848468
40413,-1.616941,4.626665,11.071611,1.669015,-1.938081,-1.909341
40414,0.270318,4.389632,9.451163,0.905873,-1.702235,-2.224948
40415,2.343234,4.853263,9.111195,0.309675,-1.184007,-2.611480
40416,3.328192,6.165612,10.042711,-0.387045,-0.601370,-2.908754
40417,3.844693,7.687025,11.480362,-1.474394,-0.085370,-3.071160
40418,4.080955,7.583172,11.531138,-2.921515,0.414357,-3.143540
40419,4.024152,5.184802,10.399997,-4.251166,0.842969,-3.195948
40420,3.225142,0.915569,7.525198,-5.132059,1.149723,-3.094455
40421,0.327052,-4.365068,3.235854,-5.465072,1.278343,-2.720288
40422,-4.631147,-8.914823,3.163983,-4.830868,1.032486,-2.309572
40423,-8.839027,-11.936264,7.992652,-3.058813,0.231285,-2.039829
40424,-7.046234,-14.524249,10.964201,-0.349613,-0.945536,-1.873019
40425,-0.645991,-13.838396,9.614608,2.543085,-1.681955,-1.668107
40426,1.168670,-8.448335,9.138736,4.667067,-1.899550,-1.333425
40427,0.343478,-1.987735,9.807866,5.371086,-2.125161,-0.969368
40428,-0.055875,2.653761,10.897790,5.095352,-2.115944,-0.736228
40429,-1.052235,4.846474,11.044729,4.123956,-1.855338,-0.609087
40430,-1.595064,4.642197,10.152593,2.725609,-1.619177,-0.671020
40431,0.350971,4.516792,9.759009,1.460698,-1.397938,-1.037912
40432,2.665999,5.291605,9.589051,0.297892,-0.906250,-1.404977
40433,3.431120,5.822207,10.150031,-0.909866,-0.367554,-1.516435
40434,2.947347,4.694551,10.542691,-2.167502,0.037558,-1.377149
40435,1.812001,2.219000,10.624734,-3.170954,0.270694,-1.172848
40436,1.230970,-0.823933,10.126130,-3.665941,0.322404,-0.962927
40437,0.764645,-4.733256,9.165050,-3.399228,0.309473,-0.684209
40438,-0.830912,-7.658627,9.604145,-2.327294,0.189349,-0.381356
40439,-2.477044,-9.252801,9.832629,-0.678953,-0.221747,-0.052236
40440,-1.982642,-8.922734,10.654128,1.197029,-0.717299,0.204467
40441,-0.299807,-6.616592,10.320088,2.643737,-0.989736,0.422751
40442,0.403476,-3.581793,8.702358,3.388583,-1.089578,0.623459
40443,0.720999,0.456540,9.344415,3.518798,-1.084566,0.691263
40444,1.264908,5.207180,11.838586,2.899423,-0.786017,0.595596
40445,0.932051,7.892954,12.311230,1.400160,-0.306770,0.525272
40446,0.089918,7.803576,11.866786,-0.410819,0.093484,0.411645
40447,-0.362746,5.345197,11.369470,-1.976757,0.355961,0.274451
40448,-0.296070,1.829434,10.713376,-2.992499,0.492859,0.274005
40449,-0.187701,-1.914500,10.103215,-3.320225,0.571245,0.361744
40450,-0.455452,-5.619213,8.744618,-3.027135,0.534907,0.549191
40451,-1.345694,-8.897332,8.060700,-2.148515,0.376153,0.845493
40452,-2.995796,-11.881428,7.588017,-0.716957,0.008295,1.265710
40453,-3.493235,-12.183956,10.942125,1.277437,-0.554245,1.613268
40454,-2.045981,-11.604534,11.068209,3.247976,-1.078524,1.998329
40455,0.086871,-10.808371,10.132396,5.014288,-1.532551,2.538042
40456,3.373899,-8.719982,10.367746,6.509494,-1.887074,3.002735
40457,6.830577,-5.220039,9.755524,7.447369,-2.010873,3.385181
40458,8.890816,-0.602271,9.305043,7.672614,-1.807576,3.718718
40459,9.455611,3.407806,9.966172,7.214940,-1.313850,4.008799
40460,8.626363,7.308569,12.464765,6.375827,-0.590576,4.024056
40461,6.895127,11.657564,14.976417,5.191439,0.398252,3.726745
40462,4.133140,13.770953,13.241022,3.421467,1.287587,3.455041
40463,3.029591,14.387063,10.786581,1.482973,1.759448,2.932992
40464,4.040132,14.314092,10.652037,-0.236002,2.255122,2.223593
40465,5.121123,12.543947,11.403818,-1.602871,2.758339,1.822028
40466,5.425944,9.334697,11.307247,-2.626571,3.129320,1.747742
40467,4.965980,5.915548,9.283700,-3.336466,3.373245,1.794903
40468,3.045414,3.045058,6.199166,-3.727462,3.444594,2.004926
40469,0.249841,0.119334,5.050361,-3.681267,3.262177,2.362259
40470,-1.656757,-2.749575,5.973114,-3.074697,2.695620,2.756360
40471,-1.179387,-4.538028,8.078106,-1.990075,1.937746,3.064678
40472,1.797917,-5.633506,8.855683,-0.590271,1.270107,3.310207
40473,4.690986,-5.079242,8.407224,0.868765,0.931226,3.540889
40474,5.720801,-3.073863,7.827103,2.011489,0.728571,3.742496
40475,5.994695,-0.057533,8.129587,2.621032,0.653131,3.871458
40476,5.676255,3.435668,9.182011,2.661994,0.732729,3.900292
40477,4.943562,5.661555,9.860366,2.259830,0.939291,3.935903
40478,3.887408,5.943636,9.843844,1.665717,1.148503,3.961882
40479,3.492595,5.527001,9.316081,1.211656,1.342048,3.849490
40480,4.239756,5.880061,9.402953,0.988708,1.601537,3.581074
40481,5.291232,7.215076,10.542413,0.878672,2.011577,3.266595
40482,5.686605,8.795267,11.813891,0.615776,2.528185,2.984342
40483,5.351443,9.137474,12.117307,0.113064,3.034619,2.725909
40484,4.899047,8.492047,11.494855,-0.449968,3.464441,2.415375
40485,4.655135,7.565906,10.709951,-0.953063,3.827655,2.086266
40486,4.524822,6.530213,9.635810,-1.396139,4.062093,1.883176
40487,3.733629,5.449782,7.601288,-1.859363,4.183630,1.906259
40488,1.692838,4.199299,5.776077,-2.301943,4.100079,2.107755
40489,-0.080313,2.639483,5.680116,-2.636576,3.756762,2.395103
40490,-0.877936,0.946910,6.713353,-2.737642,3.272218,2.689522
40491,-0.666610,-0.323896,7.508242,-2.604082,2.741195,2.973957
40492,-0.082189,-1.268374,7.059472,-2.145292,2.205211,3.192924
40493,0.211322,-1.812625,5.692994,-1.393058,1.677206,3.347887
40494,0.250537,-1.400359,5.306992,-0.578951,1.201759,3.405436
40495,0.200964,0.274283,5.390765,0.025707,0.756411,3.394682
40496,0.387327,2.166682,6.426351,0.430525,0.455028,3.357136
40497,0.812143,3.008799,8.149586,0.606871,0.306649,3.369915
40498,1.227896,2.631563,9.100017,0.634862,0.286535,3.446115
40499,1.511985,1.866776,9.241428,0.737570,0.367386,3.459251
40500,1.772335,1.536704,9.083941,0.944361,0.570801,3.351606
40501,1.760363,2.430797,9.406549,1.164088,0.914961,3.109127
40502,1.414496,4.359505,10.067145,1.206371,1.293285,2.819143
40503,1.130819,6.060586,10.947108,0.926838,1.705961,2.558786
40504,0.845211,6.721933,11.457166,0.389278,2.149790,2.306427
40505,0.138462,5.939155,11.046252,-0.240382,2.530179,2.124853
40506,-1.061617,4.496205,9.981698,-0.801047,2.748415,2.084429
40507,-2.553311,3.233151,8.757487,-1.300306,2.801499,2.179113
40508,-4.020950,1.694529,7.781009,-1.779525,2.685677,2.392593
40509,-4.618510,-0.457482,7.531142,-2.121512,2.354238,2.643967
40510,-4.048565,-3.101230,7.942903,-2.200144,1.971508,2.891686
40511,-2.867661,-4.684528,8.401836,-1.934417,1.493794,3.188209
40512,-0.946990,-4.408212,9.324688,-1.462217,1.069995,3.464265
40513,0.331483,-3.149082,9.354414,-0.982469,0.820420,3.770433
40514,0.734609,-1.732573,9.410540,-0.664270,0.671458,4.064096
40515,0.593705,-1.101807,10.272734,-0.438244,0.635828,4.331214
40516,0.373363,-0.245998,11.152273,-0.184813,0.574178,4.498785
40517,0.952645,1.407726,12.488999,0.148509,0.602174,4.545684
40518,1.560650,3.835220,13.742213,0.380720,0.721347,4.550009
40519,1.731139,5.958480,13.501035,0.231255,0.907113,4.571345
40520,1.466369,6.192302,12.628235,-0.149842,1.076166,4.598391
40521,1.307047,6.150528,10.982638,-0.519003,1.214102,4.357822
40522,2.200350,6.530391,10.686326,-0.633615,1.387080,3.901326
40523,3.184682,7.953431,11.458029,-0.491679,1.685125,3.325575
40524,3.363386,9.129891,12.542833,-0.315723,2.076370,2.870083
40525,2.660130,9.503939,13.240260,-0.177173,2.427437,2.453196
40526,1.802177,9.564338,13.584788,-0.166104,2.774316,2.027171
40527,0.626270,9.379346,12.749370,-0.313393,3.039603,1.617103
40528,0.010224,8.920702,11.120972,-0.630434,3.210521,1.282131
40529,-0.706536,7.824689,8.871601,-1.153500,3.315577,1.111612
40530,-1.397097,6.070188,6.323216,-1.807751,3.222050,1.137642
40531,-2.003492,3.686314,4.143700,-2.388031,2.976652,1.300785
40532,-2.807342,1.067097,2.845162,-2.778799,2.584327,1.527807
40533,-3.262306,-1.368217,3.429200,-2.951594,2.057425,1.734192
40534,-2.945948,-2.821730,5.026873,-2.782921,1.603076,1.819154
40535,-2.649612,-4.099052,5.470094,-2.202622,1.129200,1.934966
40536,-1.791443,-4.589590,6.482947,-1.259294,0.714502,1.993907
40537,-1.220979,-3.324233,7.468814,-0.230016,0.476735,1.992908
40538,-1.275548,-0.833930,8.049436,0.488031,0.249130,1.954298
40539,-1.026529,1.831980,8.740051,0.774397,0.043717,1.891923
40540,-0.760165,4.352304,9.905688,0.790950,-0.059674,1.761635
40541,-0.242005,4.881557,10.822471,0.674134,-0.164736,1.626260
40542,0.644306,2.205762,10.666901,0.698793,-0.200467,1.508311
40543,1.692309,0.256536,9.814939,1.165742,-0.112379,1.219048
40544,2.935312,2.664655,10.885172,2.146989,0.283193,0.553279
40545,3.084661,8.177524,12.336386,2.761848,0.805820,-0.068106
40546,2.546313,11.732976,13.470386,2.508392,1.222554,-0.449865
40547,1.761317,11.924018,12.984365,1.501870,1.584707,-0.728725
40548,0.718822,8.815051,11.134567,0.157989,1.729359,-0.835615
40549,0.691044,4.287970,8.905589,-1.000700,1.680121,-0.845358
40550,0.416142,-0.423628,5.238018,-1.806056,1.516540,-0.685682
40551,-0.185441,-3.926324,1.980678,-2.166408,1.142764,-0.424574
40552,-1.062657,-5.124911,1.581884,-1.888810,0.769431,-0.280944
40553,-1.926556,-4.579795,2.474781,-1.255453,0.334774,-0.168386
40554,-2.404666,-2.266122,3.974110,-0.507279,-0.151696,-0.051669
40555,-1.887066,1.136224,5.142902,-0.019168,-0.587919,-0.044083
40556,-1.307983,4.071276,6.273816,0.025885,-0.897297,-0.079509
40557,-1.126344,6.145370,7.117241,-0.266393,-1.084896,-0.219393
40558,-1.435236,7.922507,7.352242,-0.520698,-1.187400,-0.555689
40559,-1.767342,9.244076,7.849691,-0.723797,-1.223217,-1.016086
40560,-1.629659,9.750531,8.420618,-0.898037,-1.244047,-1.546896
40561,-1.260076,10.064255,8.987280,-0.990626,-1.118493,-2.160259
40562,-1.289034,10.422466,9.547010,-1.062276,-0.923347,-2.799279
40563,-1.485056,10.231681,10.072512,-1.206788,-0.714863,-3.395899
40564,-1.602356,9.096895,10.238024,-1.445717,-0.521510,-3.934492
40565,-1.455905,7.367627,9.991330,-1.625720,-0.318181,-4.433884
40566,-1.101745,4.907867,8.939424,-1.824105,-0.052913,-4.848912
40567,-1.575545,2.607991,7.103579,-2.009463,0.133859,-5.085573
40568,-2.033208,0.935084,5.796252,-2.191818,0.229844,-5.232402
40569,-2.535758,-0.295834,4.641172,-2.455038,0.217583,-5.280984
40570,-2.328513,-1.795219,4.007008,-2.835674,0.086246,-5.206740
40571,-2.026179,-3.930839,3.566020,-3.427923,-0.050214,-4.937153
40572,-2.530395,-6.621065,2.240675,-3.925248,-0.212182,-4.602197
40573,-4.042109,-8.699992,1.277831,-4.084154,-0.463423,-4.343590
40574,-5.293053,-9.414568,2.046805,-3.786078,-0.809197,-4.181057
40575,-4.879832,-9.148711,4.434163,-3.049953,-1.253159,-4.061800
40576,-2.360184,-8.481671,8.032606,-2.040330,-1.583200,-3.905972
40577,-0.236132,-7.432384,10.963494,-1.109701,-1.682801,-3.682916
40578,-0.120814,-5.836108,12.285290,-0.551943,-1.555312,-3.498932
40579,-1.682684,-4.312088,12.205285,-0.426247,-1.471459,-3.403023
40580,-2.721146,-2.908387,11.003091,-0.494389,-1.483918,-3.391356
40581,-2.690135,-2.456726,9.154284,-0.669323,-1.432721,-3.442726
40582,-1.921649,-2.802965,7.723875,-0.789950,-1.175208,-3.608573
40583,-0.652639,-1.724287,8.236686,-0.730884,-0.740420,-3.997811
40584,1.070763,0.257803,10.422495,-0.888208,-0.167075,-4.436669
40585,2.964243,0.641131,11.905231,-1.382935,0.533203,-4.778721
40586,3.961856,-1.483705,12.343576,-1.988190,1.345429,-5.098216
40587,3.215649,-5.103620,10.870984,-2.434400,2.014910,-5.354031
40588,1.580398,-9.468324,7.676705,-2.431211,2.268858,-5.430346
40589,0.108682,-13.199596,4.520368,-1.965191,2.043090,-5.276826
40590,-0.531255,-14.613204,2.633588,-1.161119,1.433008,-4.933676
40591,-0.604719,-14.060662,2.727195,-0.332705,0.628110,-4.395169
40592,-0.400307,-12.404470,3.808495,0.191357,-0.236962,-3.723666
40593,0.112232,-10.364806,4.848218,0.391951,-1.057630,-3.096668
40594,0.758474,-8.267458,6.146720,0.407679,-1.700653,-2.629296
40595,1.336689,-6.816381,7.506273,0.294652,-2.126443,-2.312651
40596,2.035022,-6.148456,8.747938,0.165501,-2.368453,-2.145636
40597,2.040379,-5.237636,9.078205,0.084730,-2.353410,-2.182064
40598,2.789794,-4.338109,8.700317,-0.041146,-2.174265,-2.362801
40599,2.837334,-2.435560,9.397323,-0.320355,-1.690650,-2.625919
40600,3.008331,0.127192,10.104396,-0.875488,-1.177410,-2.998880
40601,3.959066,2.488712,10.907645,-1.968515,-0.742173,-3.289204
40602,5.316451,2.098574,10.209599,-3.421979,-0.188776,-3.461468
40603,6.168797,-1.880453,7.815833,-4.486438,0.327032,-3.622344
40604,6.066462,-7.906786,5.198688,-4.550955,0.682980,-3.750095
40605,5.144907,-12.204813,3.332186,-3.862094,0.683335,-3.714456
40606,4.148518,-13.140366,2.680904,-2.869272,0.303076,-3.571207
40607,3.819389,-12.837651,2.806427,-1.961726,-0.383935,-3.256729
40608,4.611672,-11.890875,4.127528,-1.131028,-1.116903,-2.908541
40609,5.849876,-10.846635,5.122647,-0.389322,-1.765368,-2.572337
40610,7.034501,-9.800304,6.224311,0.297680,-2.254220,-2.292495
40611,7.536641,-8.556555,7.212102,0.796706,-2.543504,-2.069553
40612,7.998167,-6.125505,7.153273,0.968320,-2.678369,-1.953338
40613,7.637986,-3.261133,7.066776,0.845470,-2.553593,-1.919328
40614,8.127625,-2.088044,6.458347,0.351236,-2.298000,-1.995113
40615,8.456270,-3.142768,5.918072,-0.208842,-1.847092,-2.132353
40616,9.230267,-3.377625,5.404452,-0.809779,-1.370941,-2.442914
40617,9.029025,-1.933301,5.295392,-1.540788,-0.836930,-2.674015
40618,8.847677,0.244831,5.265739,-2.687063,-0.492510,-2.794480
40619,8.546618,-0.410342,5.269550,-3.953090,-0.217830,-2.787203
40620,8.978528,-4.564906,4.201907,-4.681441,-0.092053,-2.773800
40621,9.557442,-9.208460,3.167638,-4.513091,0.022727,-2.741161
40622,9.489229,-11.525106,2.779520,-3.678009,0.048410,-2.703609
40623,9.122214,-11.756195,1.807519,-2.724428,-0.126652,-2.581797
40624,8.427063,-11.379745,1.574095,-1.749776,-0.486920,-2.348091
40625,8.427829,-10.523819,2.494304,-0.700323,-0.950834,-2.142480
40626,9.256233,-9.923784,3.929395,0.372488,-1.333240,-1.909827
40627,10.199062,-9.289663,4.973528,1.345988,-1.543129,-1.697242
40628,10.038026,-8.182849,4.676132,2.023772,-1.615363,-1.467195
40629,9.985300,-6.756417,5.013199,2.262008,-1.632215,-1.230385
40630,10.597545,-4.942867,6.703595,1.991777,-1.463691,-1.079524
40631,10.254530,-3.186973,5.075857,1.278515,-1.184907,-1.014741
40632,9.595542,-2.115784,3.080767,0.429557,-0.946032,-1.051692
40633,9.277994,-1.041122,2.367792,-0.508596,-0.595710,-1.137646
40634,9.028391,-0.138484,2.856377,-1.547153,-0.280553,-1.212784
40635,9.843457,0.055707,4.543590,-2.665705,0.050838,-1.194040
40636,10.107527,-0.927114,4.566149,-3.794735,0.409345,-1.056519
40637,10.383863,-2.174571,4.127283,-4.646521,0.663940,-0.967576
40638,10.158971,-4.375848,2.401121,-5.098070,0.919556,-0.860264
40639,9.837612,-6.913398,0.622008,-5.085563,0.996575,-0.735488
40640,8.910214,-9.006145,-0.689539,-4.639222,0.909163,-0.574669
40641,8.476210,-10.094938,0.282537,-3.756501,0.583033,-0.468312
40642,8.845319,-10.129367,1.735613,-2.618914,0.271332,-0.397041
40643,9.154703,-9.098408,3.161633,-1.410346,0.027390,-0.363039
40644,8.875782,-7.297393,3.774114,-0.312925,-0.170293,-0.339867
40645,8.056477,-6.017828,3.512781,0.543793,-0.375545,-0.341766
40646,7.134677,-5.173155,3.302074,1.152831,-0.580116,-0.378636
40647,7.164135,-4.498060,4.334808,1.443364,-0.701507,-0.464640
40648,7.777624,-3.369210,5.836294,1.380691,-0.623962,-0.585104
40649,7.812302,-1.525123,5.141504,0.954685,-0.429347,-0.764448
40650,7.424012,0.468752,3.508507,0.304425,-0.189835,-0.975955
40651,7.151925,1.596915,1.888088,-0.663735,0.057586,-1.176262
40652,7.905780,1.076109,1.798109,-1.837346,0.324148,-1.348854
40653,8.201555,-2.035714,0.181581,-2.779857,0.583114,-1.402513
40654,7.399804,-6.786982,-0.244317,-2.761376,0.424770,-1.405292
40655,7.273002,-10.988524,1.751631,-1.630308,-0.029861,-1.329169
40656,8.333503,-13.189910,4.039420,0.463049,-0.453428,-1.252473
40657,9.939487,-11.933925,5.420301,3.035281,-0.800300,-1.208609
40658,10.822014,-8.012815,4.758893,5.092166,-0.921387,-1.096276
40659,9.317603,-3.902618,3.575839,5.959845,-0.915512,-0.872614
40660,8.528837,-1.183853,3.264314,5.870259,-1.032295,-0.672682
40661,9.567861,0.385802,4.727372,4.975700,-1.001310,-0.563555
40662,11.021693,0.283458,5.177910,3.619227,-0.771257,-0.481843
40663,11.637187,1.173614,5.008328,2.059026,-0.482422,-0.517317
40664,11.129915,3.381527,3.581077,0.457810,-0.143931,-0.682530
40665,9.759026,4.897736,1.628752,-1.076179,0.056268,-0.896576
40666,9.500382,4.278681,0.846067,-2.423821,0.071137,-1.005902
40667,9.493907,-0.031898,0.885481,-3.139695,0.108795,-0.823728
40668,9.734058,-5.264109,0.972896,-2.965377,0.079950,-0.628871
40669,9.966729,-8.221143,1.030853,-2.008374,0.052163,-0.515451
40670,9.724352,-7.874945,1.353362,-0.804933,0.037140,-0.461994
40671,9.349179,-5.709316,1.961952,0.201490,-0.028893,-0.412350
40672,9.378234,-3.294382,2.322861,0.723945,-0.083841,-0.362090
40673,9.472710,-1.986086,2.317382,0.835377,-0.094791,-0.312567
40674,9.475683,-1.584098,2.206876,0.726056,-0.090434,-0.269451
40675,9.467128,-1.543927,2.176774,0.523677,-0.092152,-0.230136
40676,9.647008,-1.356802,2.125116,0.280052,-0.089077,-0.203826
40677,9.522215,-1.414083,2.116555,0.015526,-0.058237,-0.156499
40678,9.497067,-1.806692,1.976156,-0.156677,-0.070209,-0.144740
40679,9.567322,-2.496039,1.859401,-0.217180,-0.080494,-0.135794
40680,9.513103,-2.950719,1.798410,-0.145692,-0.088954,-0.129416
40681,9.507938,-3.147570,1.889058,0.002724,-0.123635,-0.115878
40682,9.756228,-3.088755,1.997134,0.164007,-0.163075,-0.095773
40683,9.895419,-2.869753,2.190181,0.302228,-0.162334,-0.058170
40684,9.951088,-2.476842,2.322246,0.373130,-0.156375,-0.016744
40685,9.953536,-2.138299,2.455432,0.354779,-0.136973,0.032444
40686,9.901094,-1.777023,2.519415,0.258822,-0.106913,0.085176
40687,9.809933,-1.556952,2.400151,0.099035,-0.070565,0.142253
40688,9.564168,-1.376644,2.276115,-0.098590,-0.038509,0.199581
40689,9.454045,-1.359530,2.574745,-0.292703,-0.024692,0.248644
40690,9.570097,-1.254821,2.963213,-0.464820,0.002133,0.281251
40691,9.763178,-1.041455,3.134982,-0.668349,0.059514,0.317328
40692,9.803181,-0.817551,2.793059,-0.936578,0.116460,0.375345
40693,9.615273,-0.726703,2.439271,-1.232802,0.158911,0.425919
40694,9.473894,-0.910410,2.303083,-1.528073,0.173136,0.464771
40695,9.370712,-1.379594,2.237013,-1.747539,0.176698,0.487474
40696,9.378853,-1.928915,2.182515,-1.865039,0.165314,0.503159
40697,9.427305,-2.361918,2.145922,-1.868002,0.153262,0.518860
40698,9.434495,-2.714410,2.071062,-1.772933,0.148550,0.518261
40699,9.439321,-2.990204,2.004151,-1.601665,0.137564,0.510424
40700,9.434257,-3.263743,1.956913,-1.368651,0.121123,0.477926
40701,9.461570,-3.384146,1.931630,-1.116471,0.111744,0.458561
40702,9.398346,-3.463293,1.885419,-0.855799,0.103604,0.424697
40703,9.328384,-3.492396,1.880716,-0.603491,0.086366,0.399766
40704,9.284181,-3.446409,1.910522,-0.365318,0.070438,0.375813
40705,9.233365,-3.376631,1.975463,-0.147141,0.049329,0.362462
40706,9.294057,-3.255438,2.047748,0.032982,0.030855,0.355984
40707,9.354401,-3.022816,2.097109,0.162379,0.015513,0.362455
40708,9.325564,-2.776385,2.114708,0.229762,0.014809,0.370139
40709,9.354730,-2.615454,2.159846,0.264329,0.003196,0.380266
40710,9.359736,-2.573368,2.082892,0.260100,-0.001959,0.390257
40711,9.285323,-2.523507,2.082906,0.262445,-0.008954,0.388861
40712,9.226479,-2.617952,2.052909,0.267488,-0.021457,0.390081
40713,9.187239,-2.710520,2.111832,0.296229,-0.033598,0.380388
40714,9.199047,-2.765241,2.119303,0.341500,-0.042970,0.366374
40715,9.182829,-2.687113,2.118290,0.387081,-0.055422,0.345104
40716,9.195266,-2.623084,2.178347,0.416214,-0.049783,0.319302
40717,9.180499,-2.478353,2.135652,0.422355,-0.060810,0.291012
40718,9.187449,-2.442871,2.129752,0.415802,-0.058113,0.264199
40719,9.159050,-2.393017,2.084289,0.399081,-0.058955,0.231998
40720,9.113696,-2.349545,2.082612,0.383211,-0.056634,0.197045
40721,9.090131,-2.330352,2.082952,0.365613,-0.064066,0.156646
40722,9.198555,-2.287070,2.165103,0.347670,-0.073700,0.113564
40723,9.287791,-2.244167,2.156762,0.313828,-0.074215,0.077408
40724,9.357770,-2.230984,2.187478,0.276042,-0.058126,0.044931
40725,9.362481,-2.212412,2.112414,0.230821,-0.054313,0.014576
40726,9.277786,-2.236928,2.046298,0.178647,-0.047190,-0.011861
40727,9.237386,-2.350959,2.034647,0.149608,-0.045899,-0.028621
40728,9.211184,-2.471675,2.053496,0.134723,-0.049820,-0.042625
40729,9.275160,-2.579406,1.976716,0.143609,-0.058100,-0.048518
40730,9.281294,-2.698255,1.981488,0.174601,-0.062161,-0.051946
40731,9.289056,-2.700645,2.033670,0.210407,-0.071248,-0.056718
40732,9.326651,-2.725335,2.067256,0.243151,-0.075240,-0.061364
40733,9.372203,-2.686735,2.034922,0.263149,-0.081871,-0.058880
40734,9.350735,-2.696094,2.021670,0.278367,-0.079172,-0.058514
40735,9.273257,-2.725603,2.009911,0.291456,-0.089086,-0.063530
