// Start Time: Unknown
// Update Rate: 100.0Hz
// Filter Profile: human (46.1)
// Firmware Version: 4.3.5
PacketCounter,SampleTimeFine,Acc_X,Acc_Y,Acc_Z,Gyr_X,Gyr_Y,Gyr_Z,Roll,Pitch,Yaw
09090,,9.331469,-2.383251,2.313794,0.010656,-0.005169,-0.012298,-45.491215,-70.577177,-32.782067
09091,,9.364323,-2.377367,2.302496,0.012345,-0.004664,-0.015853,-45.470027,-70.589559,-32.788788
09092,,9.323470,-2.392298,2.282395,0.012221,-0.007311,-0.016154,-45.453073,-70.599094,-32.799339
09093,,9.344657,-2.382235,2.292041,0.014962,-0.005399,-0.013695,-45.435064,-70.608681,-32.805478
09094,,9.359651,-2.390877,2.330117,0.010537,-0.007818,-0.012593,-45.423706,-70.616964,-32.811119
09095,,9.301467,-2.379621,2.323420,0.006841,-0.006540,-0.012274,-45.415019,-70.623362,-32.818230
09096,,9.360579,-2.388074,2.329263,0.004833,-0.004757,-0.015513,-45.400024,-70.631605,-32.831190
09097,,9.372239,-2.431699,2.343648,0.004105,-0.008455,-0.014728,-45.390915,-70.643718,-32.831633
09098,,9.349843,-2.381185,2.349284,0.006364,-0.004944,-0.010885,-45.380539,-70.650147,-32.838765
09099,,9.399990,-2.402021,2.324196,-0.000996,-0.004345,-0.018733,-45.368152,-70.655249,-32.858717
09100,,9.341260,-2.431743,2.353579,0.002205,-0.003049,-0.013422,-45.355036,-70.661949,-32.871279
09101,,9.377422,-2.391094,2.365737,0.000659,-0.001885,-0.013805,-45.344084,-70.666804,-32.881509
09102,,9.351492,-2.375677,2.348294,0.000179,-0.000289,-0.012419,-45.330059,-70.671981,-32.896263
09103,,9.357359,-2.397265,2.355641,0.000037,-0.001957,-0.008479,-45.325086,-70.674911,-32.898448
09104,,9.354319,-2.431203,2.331929,-0.002557,-0.002206,-0.014871,-45.312026,-70.681858,-32.913841
09105,,9.375303,-2.421698,2.341750,0.002312,0.000576,-0.008878,-45.304706,-70.680121,-32.922947
09106,,9.358192,-2.394092,2.355559,0.003521,0.002677,-0.011047,-45.286878,-70.683540,-32.939702
09107,,9.343838,-2.383025,2.317302,0.003257,-0.001638,-0.007409,-45.284516,-70.680401,-32.944552
09108,,9.359087,-2.351289,2.319819,-0.002933,0.003015,-0.008945,-45.272408,-70.682827,-32.959164
09109,,9.364832,-2.373071,2.327502,-0.009245,0.005021,-0.010781,-45.263530,-70.682528,-32.968776
09110,,9.318010,-2.366641,2.300421,-0.011999,0.004082,-0.008995,-45.255312,-70.684542,-32.984767
09111,,9.361798,-2.406687,2.304176,-0.012582,0.002052,-0.012148,-45.255932,-70.685782,-32.987100
09112,,9.370983,-2.393536,2.334913,-0.009025,-0.000892,-0.008526,-45.252331,-70.689612,-32.996394
09113,,9.418740,-2.357025,2.326154,-0.007048,0.002950,-0.019952,-45.234587,-70.688538,-33.022884
09114,,9.413058,-2.373857,2.354669,-0.003951,0.000624,-0.019183,-45.214032,-70.696086,-33.047068
09115,,9.378294,-2.370288,2.306384,-0.010721,0.003243,-0.023867,-45.197570,-70.698594,-33.070625
09116,,9.393405,-2.378359,2.344676,-0.007140,-0.000678,-0.024483,-45.174195,-70.708816,-33.099727
09117,,9.364346,-2.397224,2.303686,-0.006557,0.001350,-0.021327,-45.158321,-70.712325,-33.115584
09118,,9.324054,-2.360746,2.359228,-0.004524,-0.001408,-0.022327,-45.136757,-70.721964,-33.141170
09119,,9.327428,-2.375013,2.307119,-0.005925,0.001420,-0.026640,-45.118984,-70.726277,-33.161129
09120,,9.313384,-2.352759,2.380078,-0.005632,0.000113,-0.015619,-45.104065,-70.732577,-33.180349
09121,,9.308145,-2.328558,2.372649,-0.012255,0.004395,-0.024232,-45.092640,-70.733325,-33.199624
09122,,9.305376,-2.361545,2.349159,-0.024989,0.005741,-0.028190,-45.067743,-70.742445,-33.241169
09123,,9.328944,-2.408795,2.342808,-0.018820,0.002074,-0.022423,-45.056964,-70.740913,-33.266524
09124,,9.329526,-2.406704,2.342639,-0.018040,0.003814,-0.031665,-45.026270,-70.752205,-33.310007
09125,,9.362254,-2.440540,2.367380,-0.005731,0.002110,-0.034781,-45.000101,-70.757081,-33.337961
09126,,9.354153,-2.449781,2.336532,-0.005122,0.003159,-0.035857,-44.957832,-70.770325,-33.385852
09127,,9.340396,-2.436356,2.298278,0.000130,0.000730,-0.035789,-44.930116,-70.774411,-33.412215
09128,,9.361511,-2.465714,2.344247,0.006560,0.001384,-0.033654,-44.885720,-70.787469,-33.455262
09129,,9.383315,-2.412570,2.318585,0.005048,0.001562,-0.038258,-44.846199,-70.789308,-33.494695
09130,,9.351757,-2.413789,2.329878,0.001662,0.000542,-0.031161,-44.808392,-70.801673,-33.533744
09131,,9.293741,-2.401585,2.323659,-0.006942,0.000966,-0.028357,-44.804776,-70.800371,-33.542438
09132,,9.340752,-2.497350,2.311206,-0.006972,0.001944,-0.024125,-44.778545,-70.809319,-33.574482
09133,,9.303198,-2.477308,2.314933,-0.002210,0.001116,-0.022677,-44.769599,-70.802648,-33.590390
09134,,9.338957,-2.476839,2.363285,-0.002208,0.001115,-0.022675,-44.743257,-70.811319,-33.619700
09135,,9.304189,-2.473400,2.315132,0.000970,0.002426,-0.017382,-44.744891,-70.801767,-33.619571
09136,,9.289762,-2.502625,2.312822,0.001007,0.001446,-0.021607,-44.717562,-70.809858,-33.647994
09137,,9.263697,-2.527568,2.331537,0.009015,-0.000028,-0.023322,-44.720262,-70.802583,-33.642649
09138,,9.305505,-2.508143,2.351601,0.015326,-0.002010,-0.021494,-44.688911,-70.812022,-33.666673
09139,,9.347469,-2.447825,2.335744,0.020998,-0.004063,-0.014360,-44.699036,-70.800602,-33.647603
09140,,9.350608,-2.503337,2.319920,0.018051,-0.000085,-0.019042,-44.666787,-70.808250,-33.670959
09141,,9.365915,-2.470290,2.322628,0.015639,-0.004294,-0.014720,-44.699432,-70.796458,-33.631162
09142,,9.360374,-2.487104,2.351225,0.017906,-0.001752,-0.015114,-44.674078,-70.803217,-33.647336
09143,,9.340141,-2.494023,2.341567,0.020971,-0.003082,-0.010125,-44.702609,-70.788081,-33.612133
09144,,9.358155,-2.478171,2.292192,0.018670,-0.004643,-0.005502,-44.691625,-70.792136,-33.612687
09145,,9.346557,-2.473388,2.313503,0.021502,-0.000065,-0.002755,-44.719625,-70.775465,-33.566311
09146,,9.367245,-2.464181,2.323754,0.023398,-0.004481,0.000172,-44.712353,-70.777180,-33.560034
09147,,9.308629,-2.454304,2.317603,0.015424,-0.003995,-0.002339,-44.758464,-70.761597,-33.499002
09148,,9.323590,-2.422768,2.319963,0.018982,-0.006920,0.001272,-44.757940,-70.763881,-33.488238
09149,,9.297148,-2.449582,2.338372,0.018984,-0.006921,0.001274,-44.806806,-70.746386,-33.432486
09150,,9.329660,-2.444581,2.327009,0.024243,-0.009340,0.001346,-44.806329,-70.749608,-33.418538
09151,,9.309301,-2.452522,2.316792,0.024283,-0.010329,-0.002873,-44.850580,-70.735748,-33.362429
09152,,9.312588,-2.457492,2.375775,0.025876,-0.012474,-0.006707,-44.843538,-70.743488,-33.354476
09153,,9.257287,-2.463158,2.316981,0.034884,-0.017146,-0.011163,-44.885654,-70.738252,-33.277551
09154,,9.296256,-2.479055,2.312114,0.045084,-0.029934,-0.011896,-44.881900,-70.755227,-33.254376
09155,,9.297318,-2.517375,2.346231,0.041391,-0.034296,-0.024527,-44.927557,-70.759696,-33.189094
09156,,9.325478,-2.527726,2.360486,0.042237,-0.054994,-0.030402,-44.933290,-70.794315,-33.157654
09157,,9.277892,-2.624821,2.487956,0.025211,-0.080531,-0.038336,-45.016074,-70.824722,-33.045486
09158,,9.145432,-3.047946,2.655099,0.018108,-0.110978,-0.040779,-45.089317,-70.886219,-32.957178
09159,,8.742061,-3.516984,3.132184,0.086010,-0.131304,-0.036095,-45.210349,-70.928253,-32.788126
09160,,8.538962,-4.164465,3.784220,0.229391,-0.180152,-0.040195,-45.246216,-71.017313,-32.611470
09161,,8.809900,-4.578610,4.348214,0.417038,-0.197596,-0.040554,-45.253042,-71.068586,-32.343397
09162,,9.309890,-4.311177,4.998606,0.517482,-0.153291,-0.014506,-45.123391,-71.136412,-32.167341
09163,,9.557979,-4.638841,5.187016,0.539959,-0.079706,0.018104,-44.972203,-71.084748,-31.991055
09164,,9.661860,-5.164278,5.240948,0.518589,0.045295,0.073726,-44.711105,-71.036571,-31.953313
09165,,9.474662,-5.392075,4.948693,0.510888,0.141992,0.122832,-44.421067,-70.823130,-31.919481
09166,,9.229580,-5.058775,4.938132,0.505222,0.225881,0.161837,-44.065156,-70.665733,-31.990168
09167,,9.126196,-4.702646,4.831927,0.430765,0.286853,0.227125,-43.755667,-70.326289,-32.001453
09168,,9.110465,-4.673528,4.820033,0.331341,0.343253,0.299987,-43.535423,-70.065331,-32.033962
09169,,9.153309,-4.972971,4.777372,0.254514,0.387233,0.362774,-43.366552,-69.612932,-31.986194
09170,,9.359705,-5.441477,4.703038,0.263309,0.427229,0.453154,-43.271739,-69.256662,-31.926360
09171,,9.454350,-5.633841,4.537881,0.330452,0.472342,0.539351,-43.133927,-68.682825,-31.773934
09172,,9.420335,-5.540626,4.381576,0.407401,0.521732,0.630709,-43.050473,-68.217493,-31.612581
09173,,9.335498,-5.334817,4.288912,0.457560,0.571917,0.713542,-42.949825,-67.531933,-31.290366
09174,,9.263296,-5.202026,4.226663,0.459581,0.621286,0.784366,-42.890446,-66.965020,-31.068704
09175,,9.150691,-5.272849,4.230218,0.452042,0.667117,0.858067,-42.857148,-66.168955,-30.679809
09176,,9.132172,-5.344358,4.265613,0.458926,0.688697,0.915383,-42.849219,-65.522713,-30.399526
09177,,9.238072,-5.276034,4.338134,0.462765,0.720117,0.962413,-42.909988,-64.648665,-29.971658
09178,,9.286223,-5.083478,4.367128,0.444133,0.757418,1.016149,-42.923519,-63.934122,-29.673373
09179,,9.215566,-4.965600,4.284509,0.398974,0.793312,1.050379,-43.022156,-62.992783,-29.245747
09180,,9.162320,-4.940487,4.120209,0.356268,0.815696,1.087269,-43.077282,-62.225701,-28.952907
09181,,9.145108,-4.920472,3.946559,0.340168,0.827732,1.109100,-43.205328,-61.250928,-28.510527
09182,,9.142621,-4.808965,3.744560,0.321976,0.846037,1.119719,-43.260241,-60.457996,-28.235565
09183,,9.118294,-4.686189,3.641107,0.302266,0.856792,1.119478,-43.376270,-59.471982,-27.869057
09184,,9.108092,-4.632263,3.508648,0.277588,0.890426,1.122626,-43.409098,-58.659029,-27.644485
09185,,9.020141,-4.532794,3.551737,0.253043,0.914643,1.117941,-43.497940,-57.661280,-27.342857
09186,,9.022898,-4.429941,3.591135,0.208716,0.949315,1.100505,-43.504276,-56.832337,-27.192237
09187,,8.912331,-4.409991,3.521392,0.161318,0.956955,1.088789,-43.588490,-55.842215,-26.959937
09188,,8.846188,-4.332840,3.452089,0.137359,0.958428,1.070280,-43.601910,-55.021276,-26.847158
09189,,8.800544,-4.210689,3.532235,0.127182,0.951272,1.058077,-43.681184,-54.060722,-26.647070
09190,,8.824990,-4.160871,3.630167,0.109197,0.955002,1.049952,-43.693452,-53.249125,-26.553240
09191,,8.653030,-4.120077,3.814562,0.082171,0.958738,1.041248,-43.775581,-52.308056,-26.383838
09192,,8.582762,-4.125811,3.899211,0.061007,0.949969,1.023124,-43.797432,-51.509062,-26.310720
09193,,8.577287,-4.109408,3.919580,0.033958,0.939907,1.010869,-43.890340,-50.602724,-26.163912
09194,,8.521096,-3.959521,3.927087,-0.007497,0.939760,0.980197,-43.929599,-49.824888,-26.117456
09195,,8.456121,-4.029479,3.804735,-0.041742,0.929372,0.944678,-44.028725,-48.964420,-26.020410
09196,,8.369666,-4.307711,3.743112,-0.009756,0.914711,0.906323,-44.042176,-48.226243,-26.008953
09197,,8.339975,-4.438408,3.820454,0.103187,0.906506,0.847126,-44.019628,-47.429200,-25.966957
09198,,8.533090,-4.560584,3.845392,0.273088,0.919438,0.788276,-43.817783,-46.735990,-26.027918
09199,,8.367095,-4.578558,3.810125,0.467255,0.957589,0.726838,-43.518423,-45.979613,-26.085254
09200,,8.088867,-4.329357,3.704034,0.636546,0.926340,0.667166,-43.063831,-45.330681,-26.209907
09201,,7.939809,-3.882801,3.507290,0.770193,0.886778,0.605981,-42.582085,-44.664068,-26.287275
09202,,7.974949,-3.417588,3.442317,0.835188,0.842111,0.550336,-42.011934,-44.094456,-26.417236
09203,,7.933447,-2.940139,3.685582,0.799843,0.806166,0.521279,-41.520612,-43.508818,-26.490229
09204,,7.835764,-2.556136,3.815894,0.664745,0.760466,0.499556,-41.069504,-42.992007,-26.591680
09205,,7.838648,-2.408819,4.112050,0.492776,0.724710,0.495274,-40.775247,-42.466524,-26.635343
09206,,7.825834,-2.471182,4.271808,0.326459,0.703928,0.491577,-40.541652,-41.976472,-26.703540
09207,,7.795547,-2.513576,4.202041,0.185779,0.678517,0.487157,-40.431270,-41.488556,-26.733468
09208,,7.563209,-2.442249,3.997544,0.053688,0.668909,0.475293,-40.362635,-41.019603,-26.789819
09209,,7.261436,-2.532451,3.718738,-0.076644,0.637396,0.469672,-40.403505,-40.569763,-26.816861
09210,,6.965738,-2.690522,3.677708,-0.164424,0.594821,0.446986,-40.473621,-40.143671,-26.852965
09211,,6.790165,-2.944266,3.660495,-0.216344,0.511154,0.434894,-40.616460,-39.773509,-26.845901
09212,,6.925538,-3.099597,3.705311,-0.235722,0.444716,0.421575,-40.763754,-39.422250,-26.825588
09213,,6.984123,-3.418458,3.719271,-0.204593,0.390588,0.416897,-40.926625,-39.120479,-26.776919
09214,,7.065911,-3.638485,3.874988,-0.096152,0.335098,0.394773,-41.016211,-38.826644,-26.720945
09215,,7.081024,-3.587900,3.795299,0.048266,0.273101,0.369489,-41.051515,-38.601642,-26.646143
09216,,6.975789,-3.337358,3.637128,0.188844,0.216397,0.335795,-40.992228,-38.381267,-26.566415
09217,,6.780402,-3.098381,3.553123,0.242238,0.135169,0.303423,-40.934134,-38.248908,-26.464406
09218,,6.624109,-3.126458,3.398497,0.245513,0.054843,0.270877,-40.867762,-38.122993,-26.343080
09219,,6.691248,-3.438852,3.413039,0.247256,-0.023711,0.225866,-40.826339,-38.096208,-26.210395
09220,,6.811111,-3.547914,3.669572,0.281111,-0.068997,0.171775,-40.742113,-38.061317,-26.084657
09221,,6.734709,-3.544179,3.798216,0.316404,-0.098635,0.112324,-40.645278,-38.116028,-25.980026
09222,,6.554895,-3.219996,3.916286,0.339064,-0.144094,0.044169,-40.506489,-38.161751,-25.889045
09223,,6.553470,-2.655332,4.083945,0.282588,-0.182379,-0.023962,-40.406447,-38.308865,-25.821877
09224,,6.575648,-2.393282,4.278745,0.137536,-0.214850,-0.073502,-40.363610,-38.429406,-25.762799
09225,,6.649986,-2.730052,4.297705,-0.010596,-0.237692,-0.121242,-40.409711,-38.641628,-25.727667
09226,,6.903064,-3.213356,4.246590,-0.093225,-0.259752,-0.162679,-40.481869,-38.814864,-25.696579
09227,,6.928555,-3.426654,4.297054,-0.124281,-0.277570,-0.198102,-40.575642,-39.076921,-25.687587
09228,,6.970900,-3.265882,4.406203,-0.166598,-0.296742,-0.222240,-40.680745,-39.288406,-25.671198
09229,,6.966812,-3.084281,4.527851,-0.237031,-0.301424,-0.256746,-40.824469,-39.585797,-25.684439
09230,,7.077911,-3.272022,4.661412,-0.326614,-0.303579,-0.275066,-41.005465,-39.820022,-25.692947
09231,,7.228198,-3.790777,4.619923,-0.352681,-0.313210,-0.290273,-41.204937,-40.137667,-25.720154
09232,,7.275155,-3.841111,4.647961,-0.319707,-0.330736,-0.312089,-41.378366,-40.397643,-25.734148
09233,,7.348069,-3.394363,4.659315,-0.347654,-0.357213,-0.320149,-41.578320,-40.747153,-25.755380
09234,,7.420880,-3.350005,4.554833,-0.457981,-0.364045,-0.316961,-41.841605,-41.023330,-25.752956
09235,,7.527740,-3.723384,4.370727,-0.552242,-0.364348,-0.308999,-42.164841,-41.373726,-25.763167
09236,,7.674258,-4.239994,4.358237,-0.570798,-0.356948,-0.311303,-42.495142,-41.644705,-25.757188
09237,,7.972745,-4.552050,4.704339,-0.534791,-0.332895,-0.304423,-42.802054,-41.981579,-25.777380
09238,,8.343191,-4.491596,4.883734,-0.535098,-0.289192,-0.281543,-43.102015,-42.212490,-25.786213
09239,,8.494093,-3.801401,5.130162,-0.656697,-0.212993,-0.222725,-43.469619,-42.468210,-25.820307
09240,,8.579365,-2.928220,5.376992,-0.982703,-0.148551,-0.149594,-44.027875,-42.588731,-25.826350
09241,,8.940012,-2.897394,6.457751,-1.452734,-0.040573,-0.022599,-44.861311,-42.696225,-25.842460
09242,,8.491639,-5.020906,4.106808,-1.618174,-0.053697,0.096389,-45.842442,-42.678396,-25.761790
09243,,8.140705,-6.348105,3.511682,-1.309275,-0.030774,0.133001,-46.644146,-42.719000,-25.701115
09244,,7.772892,-5.230213,4.044877,-0.981505,-0.084052,0.176280,-47.300576,-42.677939,-25.561352
09245,,8.363517,-5.007967,4.265060,-0.821490,-0.077319,0.251710,-47.888079,-42.684024,-25.408802
09246,,8.757556,-5.227124,4.240680,-0.648187,-0.048622,0.325676,-48.391149,-42.563616,-25.213290
09247,,8.864317,-5.351054,3.899927,-0.441831,-0.025566,0.404753,-48.793892,-42.482931,-25.013438
09248,,8.677472,-5.110449,3.781819,-0.253903,-0.010069,0.502066,-49.113688,-42.269802,-24.753746
09249,,8.565317,-4.602805,3.788290,-0.164217,-0.026717,0.601441,-49.424030,-42.103862,-24.456149
09250,,8.543622,-4.204807,3.931134,-0.160419,-0.035468,0.699335,-49.761402,-41.812011,-24.087953
09251,,8.487388,-4.057973,3.979094,-0.202103,-0.033726,0.781929,-50.150015,-41.569009,-23.703621
09252,,8.541154,-4.262405,3.904428,-0.229087,-0.035387,0.845366,-50.565418,-41.209109,-23.272784
09253,,8.546053,-4.582074,3.651216,-0.212536,-0.045462,0.888168,-50.988216,-40.921424,-22.841220
09254,,8.547923,-4.926462,3.551879,-0.159870,-0.061733,0.927086,-51.388251,-40.529895,-22.367387
09255,,8.593024,-5.184023,3.506036,-0.098428,-0.113696,0.954685,-51.782543,-40.234071,-21.875273
09256,,8.685860,-5.157716,3.391819,-0.047222,-0.175913,0.973836,-52.163335,-39.856906,-21.324373
09257,,8.799468,-5.090792,3.329925,-0.028383,-0.239096,0.988111,-52.565888,-39.586568,-20.753298
09258,,8.791627,-4.983461,3.344974,-0.045820,-0.303274,0.997363,-52.988063,-39.236976,-20.128572
09259,,8.729613,-5.011913,3.665583,-0.094878,-0.367793,1.003497,-53.471877,-38.999572,-19.485474
09260,,8.805014,-5.156542,4.081261,-0.141813,-0.412122,0.994723,-53.976108,-38.680220,-18.809894
09261,,9.047952,-5.115627,4.488871,-0.216296,-0.408105,0.976850,-54.526244,-38.461628,-18.166461
09262,,9.058153,-5.013072,4.644644,-0.337546,-0.365146,0.950652,-55.100775,-38.137508,-17.550363
09263,,8.680872,-4.886602,4.507018,-0.509201,-0.325329,0.918084,-55.759480,-37.911215,-16.994986
09264,,8.203267,-4.908635,4.159281,-0.699772,-0.304649,0.876062,-56.487540,-37.592343,-16.459526
09265,,7.676800,-4.956714,3.661499,-0.893241,-0.325958,0.814462,-57.327509,-37.405869,-15.960342
09266,,7.284805,-5.121472,3.160591,-1.044227,-0.366153,0.736806,-58.230591,-37.161246,-15.456021
09267,,6.866921,-5.386613,2.832738,-1.160349,-0.444358,0.645656,-59.219147,-37.080057,-14.960844
09268,,6.560012,-5.719992,2.451299,-1.178767,-0.531029,0.537801,-60.208212,-36.968187,-14.438719
09269,,6.282192,-6.233226,2.321957,-1.071486,-0.613416,0.423506,-61.159391,-37.030377,-13.922662
09270,,5.997335,-6.793427,2.408141,-0.874612,-0.680935,0.304733,-61.980581,-37.063446,-13.390197
09271,,5.876801,-7.278301,2.463277,-0.603443,-0.740310,0.186306,-62.669881,-37.264442,-12.869623
09272,,5.910657,-7.661348,2.472713,-0.303681,-0.803715,0.066499,-63.168418,-37.441114,-12.333523
09273,,6.028438,-7.948569,2.589678,0.007615,-0.839655,-0.034812,-63.514159,-37.768506,-11.811109
09274,,6.092430,-8.016010,2.610337,0.286753,-0.868049,-0.127325,-63.669888,-38.056078,-11.289101
09275,,6.081288,-7.853981,2.794475,0.521414,-0.884599,-0.205545,-63.718517,-38.474769,-10.781814
09276,,6.085804,-7.794351,2.905576,0.717722,-0.913134,-0.272020,-63.625495,-38.847581,-10.271296
09277,,6.200473,-7.758778,3.039891,0.866565,-0.927994,-0.323411,-63.482081,-39.333642,-9.765634
09278,,6.273171,-7.780405,3.101995,0.975301,-0.933602,-0.362503,-63.239511,-39.760265,-9.267824
09279,,6.472738,-7.850877,3.143555,1.064355,-0.915501,-0.385271,-62.974526,-40.272736,-8.785524
09280,,6.569700,-8.149397,3.275786,1.165021,-0.879034,-0.404119,-62.597339,-40.710147,-8.337305
09281,,6.514577,-8.458297,3.450667,1.304931,-0.874902,-0.405955,-62.180046,-41.221942,-7.886808
09282,,6.419394,-8.501680,3.625571,1.468198,-0.892831,-0.405234,-61.639071,-41.668852,-7.432116
09283,,6.423002,-8.379474,3.924150,1.624485,-0.873071,-0.407058,-61.042729,-42.180875,-6.984087
09284,,6.188945,-8.090271,4.389991,1.706481,-0.897770,-0.367677,-60.378756,-42.617483,-6.517691
09285,,6.227128,-7.692901,4.824282,1.669313,-0.911457,-0.316876,-59.799990,-43.096431,-6.012631
09286,,6.284204,-7.286669,5.149943,1.506324,-0.898617,-0.249834,-59.284853,-43.482063,-5.504178
09287,,6.232855,-7.159223,5.367034,1.272695,-0.873084,-0.163154,-58.960063,-43.874115,-4.964774
09288,,6.300118,-7.222950,5.526605,1.020240,-0.847156,-0.073363,-58.754112,-44.162404,-4.418915
09289,,6.314206,-7.382647,5.710882,0.829616,-0.788367,0.013658,-58.697150,-44.439336,-3.861572
09290,,6.404717,-7.819454,5.929663,0.715628,-0.724556,0.091584,-58.660943,-44.611633,-3.327482
09291,,6.608306,-8.203946,6.067816,0.671779,-0.622278,0.168700,-58.661652,-44.757267,-2.816409
09292,,6.494200,-8.193851,6.137552,0.671043,-0.495293,0.235826,-58.585528,-44.791015,-2.377609
09293,,6.228879,-7.953308,6.237395,0.651272,-0.379216,0.301174,-58.517408,-44.793305,-1.977865
09294,,6.006996,-7.789117,6.157248,0.579265,-0.288410,0.374961,-58.434653,-44.697955,-1.622969
09295,,5.869027,-7.893988,6.089826,0.487209,-0.193647,0.444843,-58.408369,-44.568636,-1.291927
09296,,5.861139,-8.009696,6.181918,0.396136,-0.104015,0.520637,-58.382814,-44.347214,-1.003367
09297,,5.715896,-7.980032,6.263669,0.326632,-0.003399,0.596490,-58.395702,-44.080610,-0.741483
09298,,5.493765,-7.833775,6.682505,0.289403,0.106172,0.668723,-58.371583,-43.723867,-0.536154
09299,,5.317717,-7.943286,7.071107,0.276647,0.230928,0.730156,-58.338488,-43.317755,-0.228080
09300,,5.227964,-8.052072,7.474376,0.273734,0.346690,0.799961,-58.247150,-42.824874,-0.131112
09301,,5.136670,-7.962349,7.689529,0.216668,0.481868,0.881580,-58.170082,-42.262775,0.071434
09302,,4.960850,-7.929040,7.572022,-0.031949,0.601458,0.987997,-58.191773,-41.601546,0.077630
09303,,4.836262,-8.506155,7.662945,-0.233791,0.738802,1.115268,-58.317117,-40.841871,0.198768
09304,,4.852162,-8.780283,7.444301,-0.358711,0.849541,1.192302,-58.472849,-40.006458,0.123192
09305,,4.976280,-9.008276,7.533780,-0.346610,1.018137,1.288556,-58.586432,-39.072347,0.127898
09306,,5.077989,-9.351300,7.764138,-0.281491,1.177942,1.396854,-58.619304,-38.039090,-0.076801
09307,,5.060524,-9.521953,7.793080,-0.185023,1.322312,1.523905,-58.578304,-36.891428,-0.316753
09308,,4.881325,-9.542234,7.922089,-0.116243,1.467337,1.665524,-58.482798,-35.640105,-0.589397
09309,,4.691145,-9.637988,7.860493,-0.081982,1.584957,1.805183,-58.364292,-34.270680,-0.871379
09310,,4.528921,-10.000269,7.588387,0.022427,1.695224,1.935609,-58.188855,-32.818097,-1.164099
09311,,4.381009,-9.652253,7.805228,0.076324,1.777113,2.062122,-57.989633,-31.259630,-1.445669
09312,,4.340795,-9.603372,7.688600,0.064456,1.868845,2.190964,-57.810259,-29.628654,-1.725138
09313,,4.172028,-9.688397,7.574268,0.073321,1.945196,2.320743,-57.633451,-27.888468,-1.988470
09314,,4.403121,-10.479408,7.497992,0.095478,2.021296,2.453125,-57.463826,-26.082401,-2.239885
09315,,4.531215,-11.155968,7.159095,0.271687,2.090691,2.587844,-57.202329,-24.164388,-2.467594
09316,,4.390292,-11.150850,6.903230,0.540906,2.160713,2.722969,-56.810331,-22.183086,-2.673991
09317,,4.105871,-10.841474,6.714070,0.791677,2.213557,2.848436,-56.288074,-20.097840,-2.840935
09318,,3.886986,-10.697153,6.825533,0.961516,2.256590,2.987127,-55.696433,-17.957281,-2.963152
09319,,3.890361,-10.247507,6.706664,1.063460,2.280392,3.106218,-55.061458,-15.725867,-3.026364
09320,,3.596033,-9.886329,6.664183,1.122739,2.346045,3.207876,-54.407554,-13.450404,-3.064960
09321,,3.120369,-10.001606,6.560738,1.150132,2.384701,3.297679,-53.743572,-11.095529,-3.058913
09322,,2.813376,-10.053137,6.297772,1.264884,2.405344,3.364599,-53.025367,-8.727456,-3.015716
09323,,2.475020,-9.619749,6.223507,1.431156,2.434260,3.398254,-52.210958,-6.312070,-2.937363
09324,,2.169219,-9.576746,6.240764,1.596505,2.459797,3.440565,-51.305299,-3.892646,-2.824739
09325,,2.066847,-9.097723,6.156623,1.761954,2.473443,3.464102,-50.300314,-1.439621,-2.664959
09326,,1.750186,-8.528512,6.433813,1.838626,2.515259,3.488648,-49.246589,1.016037,-2.475530
09327,,1.444316,-8.191013,6.367814,1.803199,2.543603,3.520619,-48.202496,3.509726,-2.237128
09328,,1.022435,-7.895737,6.307928,1.758471,2.580447,3.541079,-47.171417,6.004240,-1.964881
09329,,0.480120,-7.566362,6.130034,1.716565,2.589611,3.534162,-46.147542,8.508488,-1.649734
09330,,-0.143501,-7.166717,5.939499,1.686290,2.577223,3.526253,-45.119266,10.984334,-1.288619
09331,,-0.679624,-7.063216,5.923705,1.640199,2.544888,3.498875,-44.092377,13.440860,-0.874872
09332,,-0.771309,-7.382603,5.868192,1.599174,2.498359,3.478752,-43.055965,15.850843,-0.403491
09333,,-0.814544,-7.265993,5.726479,1.599038,2.469903,3.433798,-41.990108,18.231968,0.112620
09334,,-1.190636,-6.804878,5.519648,1.603740,2.452564,3.381655,-40.886718,20.566804,0.665216
09335,,-1.690487,-6.407207,5.455831,1.587696,2.413376,3.333837,-39.756984,22.862831,1.267938
09336,,-1.947521,-6.244808,5.399285,1.560208,2.367650,3.279566,-38.595903,25.100623,1.922837
09337,,-2.200686,-6.171052,5.226886,1.574725,2.319606,3.229992,-37.384145,27.290870,2.633068
09338,,-2.585767,-5.691524,5.179098,1.635601,2.274914,3.152909,-36.086230,29.415163,3.390725
09339,,-3.060756,-5.322277,5.205418,1.677991,2.222293,3.089995,-34.718069,31.480550,4.203306
09340,,-3.223895,-5.233679,5.167283,1.707240,2.161548,3.025104,-33.265798,33.475709,5.084390
09341,,-3.330697,-5.141338,5.006754,1.722101,2.099455,2.966607,-31.749679,35.404248,6.030636
09342,,-3.564332,-4.844538,4.901224,1.766300,2.063708,2.884326,-30.142454,37.267541,7.033542
09343,,-3.933116,-4.400423,5.114945,1.809966,2.021448,2.802861,-28.463387,39.063021,8.082970
09344,,-4.089919,-3.900747,5.111579,1.812677,1.958581,2.729820,-26.699776,40.781313,9.211239
09345,,-4.138547,-3.301844,5.025101,1.782052,1.917097,2.650975,-24.904506,42.430081,10.387286
09346,,-4.447775,-2.887699,5.095637,1.698778,1.906207,2.580303,-23.079401,44.028580,11.629524
09347,,-4.747659,-2.544401,5.031221,1.586305,1.851794,2.511798,-21.262239,45.552541,12.927832
09348,,-4.827519,-2.331027,5.047711,1.490958,1.823905,2.443124,-19.415720,47.018592,14.299374
09349,,-5.084363,-2.177196,4.961781,1.406670,1.783773,2.379765,-17.562914,48.418480,15.722405
09350,,-5.371804,-1.868765,4.951436,1.356179,1.735612,2.315492,-15.647723,49.750320,17.227357
09351,,-5.593389,-1.438521,4.903319,1.297834,1.681423,2.247910,-13.714479,51.006983,18.779040
09352,,-5.711061,-0.935903,4.847374,1.210865,1.618864,2.175537,-11.745745,52.186240,20.404856
09353,,-5.810365,-0.495961,4.803383,1.103874,1.576492,2.097474,-9.804336,53.296949,22.055693
09354,,-5.961949,-0.013624,4.783050,0.975980,1.532285,2.022735,-7.864895,54.342394,23.764636
09355,,-6.002001,0.134957,5.010693,0.838442,1.506125,1.955291,-5.974034,55.333171,25.495011
09356,,-6.110245,0.256048,5.060676,0.707290,1.473927,1.899682,-4.083616,56.269851,27.289657
09357,,-6.254031,0.208056,5.045486,0.582009,1.454919,1.855350,-2.223126,57.159839,29.120294
09358,,-6.519312,0.276873,4.825123,0.459191,1.439619,1.802286,-0.365204,58.007907,31.008541
09359,,-6.775076,0.462531,4.545484,0.330741,1.400595,1.755487,1.452141,58.799963,32.922836
09360,,-6.893371,0.529902,4.372424,0.219867,1.351398,1.702456,3.262497,59.533678,34.883547
09361,,-6.801179,0.420211,4.058565,0.134261,1.300659,1.648594,5.036288,60.208148,36.848049
09362,,-6.895056,0.222911,3.965613,0.125343,1.275438,1.601624,6.854966,60.840209,38.853746
09363,,-7.039400,0.050292,3.744081,0.145983,1.213497,1.564571,8.699920,61.407911,40.867426
09364,,-7.179349,0.343077,3.654589,0.213445,1.148929,1.512013,10.608374,61.911944,42.895951
09365,,-7.210925,0.755146,3.549110,0.247877,1.088760,1.453294,12.508898,62.357222,44.887299
09366,,-7.198370,1.083930,3.578035,0.248708,1.049611,1.404793,14.426241,62.755041,46.886366
09367,,-7.233213,1.271371,3.457867,0.224690,1.011239,1.364505,16.310035,63.108217,48.859249
09368,,-7.331155,1.158559,3.392754,0.235886,0.981063,1.319934,18.207854,63.421143,50.832090
09369,,-7.421069,1.175957,3.263208,0.262487,0.930091,1.285296,20.088411,63.685344,52.766150
09370,,-7.442488,1.436443,3.195101,0.272898,0.877698,1.241053,21.957545,63.900244,54.674364
09371,,-7.526427,1.707158,3.032593,0.252779,0.835581,1.193267,23.755536,64.078872,56.515312
09372,,-7.623713,2.003383,2.940279,0.207964,0.778516,1.142630,25.484114,64.212296,58.302964
09373,,-7.677790,2.285486,2.788012,0.144484,0.721344,1.085927,27.086562,64.310974,59.991197
09374,,-7.728254,2.449365,2.600252,0.085581,0.669126,1.024872,28.587140,64.376510,61.600738
09375,,-7.844942,2.652229,2.568620,0.023758,0.602732,0.955154,29.935123,64.414453,63.081239
09376,,-7.832279,2.882442,2.524992,-0.046186,0.540850,0.889128,31.151943,64.423223,64.458888
09377,,-7.896413,3.035697,2.396457,-0.125792,0.476113,0.805765,32.189363,64.417491,65.689355
09378,,-7.916162,3.214034,2.265269,-0.202064,0.418800,0.709207,33.056154,64.401346,66.778048
09379,,-7.928736,3.348446,2.239293,-0.274980,0.344869,0.607532,33.725427,64.379434,67.694894
09380,,-7.833276,3.507355,2.136372,-0.334210,0.270852,0.494103,34.201780,64.350834,68.434916
09381,,-7.791212,3.603621,2.136101,-0.377841,0.206257,0.369819,34.486447,64.333555,68.990325
09382,,-7.728098,3.692716,2.070444,-0.418348,0.123619,0.233599,34.557526,64.316917,69.334417
09383,,-7.610283,3.786493,2.016348,-0.436769,0.040859,0.091945,34.427998,64.310915,69.467279
09384,,-7.573207,3.857613,2.098681,-0.444990,-0.038439,-0.067268,34.078915,64.315253,69.362112
09385,,-7.499620,3.880115,2.190383,-0.441907,-0.122184,-0.219724,33.534912,64.331420,69.037794
09386,,-7.447163,3.838425,2.286179,-0.425407,-0.184619,-0.387826,32.781185,64.365223,68.471331
09387,,-7.588126,3.806785,2.498008,-0.414884,-0.245953,-0.547176,31.845966,64.417681,67.695686
09388,,-7.670552,3.824730,2.569457,-0.411109,-0.308555,-0.715038,30.683783,64.479968,66.667894
09389,,-7.728491,3.830036,2.664027,-0.422159,-0.367484,-0.886561,29.314741,64.555320,65.416655
09390,,-7.699844,3.773763,2.682736,-0.450883,-0.435362,-1.057703,27.682396,64.625969,63.894805
09391,,-7.635999,3.717329,2.672437,-0.494914,-0.511319,-1.229144,25.813787,64.685019,62.137914
09392,,-7.461818,3.494816,2.667734,-0.544108,-0.586008,-1.393819,23.667944,64.714929,60.108568
09393,,-7.319568,3.079007,2.721269,-0.575850,-0.639344,-1.550860,21.328386,64.720586,57.882613
09394,,-7.560713,2.879898,2.785353,-0.586895,-0.677405,-1.703130,18.768191,64.691004,55.422223
09395,,-7.748770,2.751300,2.849922,-0.619013,-0.742544,-1.841264,16.048449,64.605609,52.801372
09396,,-7.665045,2.506809,2.741778,-0.667089,-0.807530,-1.977214,13.117900,64.443403,49.977983
09397,,-7.408791,2.110356,2.732295,-0.690732,-0.876014,-2.117107,10.071027,64.201873,47.032404
09398,,-7.154045,1.695926,2.712886,-0.684309,-0.953338,-2.251935,6.891164,63.852029,43.930882
09399,,-6.875148,1.282713,2.859689,-0.653724,-1.029097,-2.378006,3.701181,63.398791,40.784248
09400,,-6.590415,0.854141,2.994192,-0.636085,-1.088971,-2.487106,0.480573,62.827139,37.581423
09401,,-6.710664,0.563385,3.273010,-0.610857,-1.112122,-2.577717,-2.654279,62.171798,34.437699
09402,,-7.076566,0.367722,3.464199,-0.592628,-1.156652,-2.668149,-5.747512,61.398557,31.312238
09403,,-7.112988,0.120356,3.595084,-0.601733,-1.219662,-2.747958,-8.721180,60.518246,28.301175
09404,,-6.888705,-0.173237,3.648059,-0.619275,-1.277277,-2.836613,-11.626560,59.510359,25.356013
09405,,-6.576575,-0.580034,3.794873,-0.633809,-1.322720,-2.919809,-14.392247,58.407909,22.547854
09406,,-6.116962,-0.894028,3.942112,-0.640077,-1.376212,-3.000433,-17.048996,57.182497,19.841013
09407,,-5.759305,-1.106380,4.044689,-0.661922,-1.411849,-3.064301,-19.546596,55.876599,17.297491
09408,,-5.666873,-1.427613,4.333100,-0.701188,-1.423699,-3.112546,-21.932387,54.481552,14.880235
09409,,-5.643448,-2.231783,4.443684,-0.727746,-1.438363,-3.148159,-24.157782,53.030671,12.633770
09410,,-5.502883,-2.899456,4.361867,-0.705401,-1.465128,-3.169172,-26.224661,51.497485,10.530784
09411,,-5.469476,-3.293572,4.471693,-0.653525,-1.487618,-3.185232,-28.095923,49.919246,8.592784
09412,,-5.431997,-3.705736,4.651379,-0.592879,-1.527717,-3.192976,-29.795322,48.267167,6.793104
09413,,-5.045678,-4.215507,4.760596,-0.516346,-1.581373,-3.203912,-31.301533,46.566297,5.145763
09414,,-4.586620,-4.329477,4.969086,-0.421531,-1.619537,-3.223588,-32.645145,44.800423,3.604747
09415,,-4.348383,-4.289650,5.365943,-0.383424,-1.647801,-3.225726,-33.848472,43.008620,2.183426
09416,,-4.279153,-4.247488,5.755331,-0.415679,-1.660471,-3.223423,-34.977843,41.179274,0.853186
09417,,-4.355164,-4.484680,6.070651,-0.475966,-1.655082,-3.224220,-36.053168,39.343588,-0.391530
09418,,-4.257109,-5.028387,6.295245,-0.517318,-1.665027,-3.221826,-37.074877,37.476971,-1.559825
09419,,-3.925053,-5.761172,6.349348,-0.472996,-1.664105,-3.226663,-37.998386,35.602173,-2.658784
09420,,-3.626838,-6.355458,6.504762,-0.348712,-1.653708,-3.222412,-38.791898,33.712160,-3.703842
09421,,-3.385148,-6.638919,6.544353,-0.175058,-1.646298,-3.222732,-39.429318,31.820870,-4.698858
09422,,-3.290234,-6.425037,6.512480,0.000099,-1.656838,-3.214748,-39.914457,29.913615,-5.645761
09423,,-3.329191,-5.935780,6.426991,0.121720,-1.677490,-3.208353,-40.279292,27.997627,-6.545278
09424,,-3.360914,-5.386762,6.475590,0.162748,-1.722480,-3.209080,-40.573445,26.053327,-7.399265
09425,,-3.180843,-5.205584,6.607883,0.139493,-1.771690,-3.216977,-40.836730,24.083796,-8.211323
09426,,-2.612799,-5.689925,7.058690,0.129119,-1.797037,-3.220760,-41.069011,22.095949,-8.993906
09427,,-2.205716,-6.406074,7.389900,0.161223,-1.797969,-3.204754,-41.247525,20.113000,-9.749494
09428,,-2.118767,-6.679746,7.719448,0.219503,-1.815944,-3.173830,-41.356993,18.130419,-10.469636
09429,,-2.038443,-6.800997,8.132340,0.253452,-1.835858,-3.127555,-41.410945,16.156229,-11.149741
09430,,-1.949779,-6.807520,8.119728,0.243472,-1.855770,-3.079012,-41.438999,14.191036,-11.792478
09431,,-2.045528,-6.449568,7.891228,0.206187,-1.882583,-3.026458,-41.457061,12.233380,-12.395196
09432,,-2.301199,-6.112731,7.858599,0.102338,-1.912269,-2.980311,-41.508121,10.280776,-12.960624
09433,,-2.373009,-5.886117,7.780477,-0.071263,-1.957240,-2.926360,-41.630775,8.327989,-13.478771
09434,,-2.166820,-5.941897,7.937318,-0.257145,-1.983856,-2.872827,-41.838458,6.383357,-13.955393
09435,,-1.776068,-6.844138,8.339903,-0.392434,-1.966089,-2.804829,-42.102774,4.470759,-14.399741
09436,,-1.481493,-7.756624,8.533084,-0.434649,-1.940768,-2.712810,-42.376123,2.601952,-14.804785
09437,,-1.485977,-7.642688,8.777978,-0.436671,-1.904164,-2.629368,-42.634641,0.780196,-15.179261
09438,,-1.537823,-7.274475,8.837179,-0.511815,-1.876714,-2.539054,-42.926571,-0.997788,-15.517728
09439,,-1.431436,-7.168263,8.537107,-0.647364,-1.857507,-2.439213,-43.284844,-2.728000,-15.811678
09440,,-1.402046,-7.161342,8.179326,-0.787120,-1.819235,-2.344681,-43.719070,-4.409545,-16.070130
09441,,-1.331983,-7.371411,7.933595,-0.884053,-1.791010,-2.285020,-44.200994,-6.053238,-16.301682
09442,,-0.894066,-8.313958,8.157337,-0.940311,-1.740774,-2.197563,-44.714907,-7.647717,-16.504311
09443,,-0.193240,-9.776636,8.357490,-0.870449,-1.677990,-2.108485,-45.184093,-9.175611,-16.682190
09444,,0.347139,-10.843952,8.510818,-0.648509,-1.599915,-2.016879,-45.526866,-10.642669,-16.845483
09445,,0.541025,-11.007424,8.458451,-0.337832,-1.530777,-1.939289,-45.687658,-12.042319,-16.998805
09446,,0.822934,-10.464511,8.490812,-0.076137,-1.485953,-1.838245,-45.701812,-13.391439,-17.129416
09447,,1.207408,-9.650562,8.139472,0.054953,-1.440262,-1.733176,-45.643004,-14.668565,-17.235283
09448,,1.273135,-8.881198,7.515098,0.115231,-1.388850,-1.654733,-45.550047,-15.903400,-17.334697
09449,,1.222950,-8.649307,7.274468,0.185826,-1.349113,-1.588221,-45.417108,-17.082689,-17.423851
09450,,1.550331,-9.070026,7.249422,0.325164,-1.328632,-1.525791,-45.206318,-18.240224,-17.502146
09451,,2.416233,-9.760720,7.585538,0.521662,-1.295411,-1.456994,-44.885508,-19.342078,-17.568332
09452,,3.402827,-10.271664,7.838264,0.766979,-1.227553,-1.382849,-44.419896,-20.399893,-17.643137
09453,,3.883192,-10.183035,7.836808,1.020209,-1.149035,-1.313250,-43.805457,-21.381880,-17.728116
09454,,3.915675,-9.241945,7.662047,1.184600,-1.083219,-1.235706,-43.090607,-22.319938,-17.823179
09455,,3.689113,-8.017631,7.435146,1.173928,-1.045971,-1.148653,-42.388591,-23.191742,-17.902822
09456,,3.440767,-6.825354,7.360185,0.977677,-1.031177,-1.053529,-41.804576,-24.035334,-17.960520
09457,,3.352451,-5.881036,7.464877,0.666913,-1.031409,-0.971772,-41.414737,-24.831347,-17.982944
09458,,3.529557,-5.602501,7.357538,0.326891,-1.040369,-0.906817,-41.227817,-25.622574,-17.980359
09459,,3.768097,-5.673648,7.120369,0.036079,-1.039484,-0.854347,-41.221556,-26.376994,-17.949580
09460,,4.055478,-6.079114,7.111493,-0.201390,-1.031174,-0.801683,-41.358248,-27.124487,-17.900646
09461,,4.166118,-6.639240,7.192795,-0.331866,-0.993947,-0.780057,-41.572559,-27.830740,-17.849414
09462,,4.340866,-6.877365,7.315347,-0.353700,-0.964160,-0.767501,-41.794819,-28.536186,-17.806380
09463,,4.640067,-7.082218,7.555284,-0.375778,-0.900060,-0.784250,-42.018007,-29.203102,-17.791022
09464,,4.669364,-6.950206,7.336589,-0.381276,-0.832784,-0.796207,-42.224773,-29.863407,-17.813272
09465,,4.816590,-6.494406,7.339223,-0.443706,-0.783569,-0.797915,-42.460863,-30.485565,-17.850194
09466,,5.127818,-6.102647,7.260142,-0.618994,-0.731797,-0.786467,-42.785811,-31.099628,-17.906820
09467,,5.556679,-5.803051,7.212810,-0.854802,-0.657594,-0.765698,-43.238933,-31.656504,-17.977400
09468,,5.787264,-5.965012,6.928991,-1.114758,-0.572797,-0.742996,-43.824852,-32.188026,-18.075875
09469,,5.867824,-6.246730,6.789186,-1.326811,-0.504849,-0.717586,-44.527567,-32.664420,-18.182569
09470,,6.024083,-6.774047,6.619849,-1.456777,-0.436507,-0.699434,-45.291518,-33.124841,-18.311460
09471,,5.988778,-7.234357,6.323898,-1.414637,-0.370338,-0.721453,-46.013563,-33.551479,-18.471876
09472,,6.188955,-7.273191,6.432371,-1.290228,-0.311352,-0.747532,-46.639957,-33.984820,-18.673608
09473,,6.200435,-7.122372,6.102768,-1.138017,-0.273757,-0.758098,-47.170490,-34.391970,-18.889790
09474,,6.342771,-6.858086,5.931104,-1.036463,-0.248724,-0.762986,-47.631191,-34.810578,-19.122987
09475,,6.469918,-6.604690,5.782207,-0.973960,-0.218133,-0.769099,-48.049671,-35.204235,-19.366662
09476,,6.680186,-6.355214,5.762655,-0.969575,-0.205347,-0.756827,-48.460977,-35.606449,-19.614341
09477,,6.841687,-6.163844,5.646232,-1.009369,-0.186548,-0.741959,-48.897667,-35.980087,-19.857109
09478,,7.044753,-6.129472,5.547347,-1.080428,-0.153916,-0.715105,-49.368090,-36.347956,-20.107729
09479,,6.939972,-6.245890,5.348295,-1.132125,-0.128461,-0.695310,-49.869998,-36.683920,-20.354979
09480,,6.954484,-6.524412,5.076912,-1.088955,-0.120047,-0.686707,-50.342888,-37.030217,-20.605569
09481,,7.201829,-6.728267,4.837873,-0.959230,-0.120255,-0.682589,-50.747304,-37.361701,-20.846657
09482,,7.399586,-6.575797,4.714921,-0.801764,-0.100196,-0.674758,-51.052169,-37.698229,-21.099104
09483,,7.400051,-6.305818,4.839252,-0.669506,-0.051968,-0.661990,-51.272596,-37.999159,-21.366664
09484,,7.149540,-5.864879,4.551826,-0.583992,-0.047340,-0.637697,-51.443166,-38.301756,-21.631030
09485,,7.063557,-5.667764,4.365414,-0.548850,-0.036889,-0.613668,-51.600973,-38.578190,-21.884982
09486,,7.052772,-5.615045,4.235710,-0.540895,-0.046377,-0.576816,-51.761870,-38.854224,-22.122068
09487,,7.236990,-5.699541,4.285272,-0.519253,-0.065057,-0.527011,-51.936190,-39.104006,-22.320172
09488,,7.472063,-5.795102,4.349881,-0.448844,-0.067208,-0.504309,-52.071434,-39.355665,-22.511816
09489,,7.527201,-5.507538,4.489024,-0.378452,-0.059442,-0.460404,-52.181246,-39.575420,-22.682756
09490,,7.450530,-5.303071,4.442310,-0.307093,-0.035029,-0.435387,-52.242064,-39.785093,-22.861948
09491,,7.262697,-5.140028,4.339771,-0.238203,-0.014957,-0.426217,-52.263264,-39.975463,-23.044285
09492,,6.996382,-5.136837,4.101820,-0.180032,-0.008830,-0.412170,-52.246688,-40.165517,-23.229161
09493,,6.950438,-5.009605,3.870492,-0.118465,-0.026031,-0.418710,-52.203864,-40.357578,-23.402979
09494,,7.014656,-4.853556,3.889897,-0.098281,-0.037140,-0.420108,-52.147127,-40.560961,-23.576092
09495,,7.249052,-4.791803,3.932119,-0.099990,-0.054395,-0.421170,-52.101991,-40.765178,-23.735922
09496,,7.427695,-4.917132,4.001816,-0.098295,-0.060841,-0.404447,-52.057381,-40.969596,-23.889089
09497,,7.486116,-5.076857,4.026027,-0.076204,-0.060952,-0.391292,-52.008382,-41.163900,-24.032818
09498,,7.447697,-5.035361,4.168776,-0.031120,-0.048641,-0.389178,-51.923434,-41.356882,-24.187595
09499,,7.392587,-4.901214,4.179304,0.000369,-0.046889,-0.387912,-51.824066,-41.545702,-24.340102
09500,,7.354132,-4.988866,4.020625,0.041380,-0.042332,-0.388317,-51.693337,-41.735631,-24.500110
09501,,7.447186,-5.006063,3.934149,0.080430,-0.050813,-0.389794,-51.546732,-41.927396,-24.653537
09502,,7.581418,-4.995158,3.799230,0.123467,-0.060734,-0.397738,-51.371028,-42.127485,-24.809276
09503,,7.902662,-4.255345,4.143415,0.127501,-0.068027,-0.386238,-51.203153,-42.324446,-24.953267
09504,,8.225660,-3.150545,4.801818,-0.189010,-0.031108,-0.296156,-51.225562,-42.468035,-25.079619
09505,,8.334473,-4.518045,4.797217,-0.529889,0.054681,-0.263075,-51.422369,-42.568018,-25.239857
09506,,8.244348,-6.782013,3.712989,-0.392721,0.097194,-0.201054,-51.539838,-42.623629,-25.397737
09507,,8.071349,-6.922710,3.360293,0.004613,0.132289,-0.202336,-51.418186,-42.670206,-25.575906
09508,,7.577180,-6.791226,3.107151,0.426797,0.086848,-0.176869,-51.077802,-42.718251,-25.716250
09509,,7.709883,-6.781174,2.857941,0.912944,0.030617,-0.197467,-50.479716,-42.798520,-25.830669
09510,,8.077316,-6.520295,2.878052,1.394698,-0.004413,-0.185363,-49.617647,-42.881708,-25.922278
09511,,8.436458,-5.550743,3.213231,1.737459,-0.011209,-0.143636,-48.582113,-42.952705,-25.986673
09512,,8.840290,-3.682752,4.109114,1.786485,0.009945,-0.093197,-47.519814,-42.988732,-26.042501
09513,,9.159802,-2.129742,4.611341,1.462634,0.052908,-0.007913,-46.663928,-42.977989,-26.074769
09514,,9.113642,-1.543637,4.664016,0.937970,0.108857,0.095519,-46.118105,-42.895448,-26.086149
09515,,8.862783,-1.676626,4.384662,0.423769,0.146647,0.186921,-45.891807,-42.769764,-26.066767
09516,,8.599295,-2.075478,3.990726,0.011339,0.166332,0.270117,-45.920011,-42.592410,-26.014633
09517,,8.408750,-2.610508,3.552158,-0.246606,0.155538,0.339982,-46.128396,-42.403089,-25.919387
09518,,8.324002,-3.087801,3.195852,-0.338084,0.128583,0.384025,-46.410587,-42.193307,-25.786969
09519,,8.425247,-3.341660,2.963770,-0.320278,0.095629,0.405972,-46.704196,-42.002159,-25.626955
09520,,8.485276,-3.419655,2.797531,-0.226071,0.070306,0.426261,-46.955838,-41.796650,-25.443172
09521,,8.308753,-3.392144,2.790812,-0.097494,0.035947,0.427513,-47.148856,-41.621433,-25.242010
09522,,8.173170,-3.289387,2.845903,0.026646,-0.020789,0.411277,-47.281712,-41.456793,-25.017721
09523,,8.248248,-3.385849,2.745616,0.132040,-0.097211,0.401059,-47.381703,-41.346277,-24.757902
09524,,8.231337,-3.420965,2.521968,0.262296,-0.168073,0.368011,-47.417681,-41.256501,-24.474792
09525,,8.139449,-3.359932,2.457940,0.384437,-0.260038,0.341014,-47.412377,-41.236763,-24.155514
09526,,8.141397,-3.256036,2.661571,0.463970,-0.352733,0.296409,-47.376367,-41.248865,-23.806015
09527,,8.180942,-3.149348,2.743465,0.496378,-0.436535,0.233211,-47.336639,-41.345870,-23.443088
09528,,8.089149,-3.248223,2.811537,0.504665,-0.531325,0.168930,-47.301379,-41.481425,-23.058416
09529,,7.901420,-3.368549,2.808001,0.525536,-0.631463,0.092687,-47.272409,-41.716121,-22.657193
09530,,7.555715,-3.387267,2.960215,0.566868,-0.733469,0.001087,-47.223095,-42.001322,-22.243547
09531,,7.175533,-3.404302,3.007877,0.602103,-0.859869,-0.098631,-47.176015,-42.407769,-21.809607
09532,,6.931551,-3.536061,3.103893,0.653447,-0.989290,-0.214691,-47.105850,-42.883922,-21.359751
09533,,6.976307,-3.731308,3.370550,0.739872,-1.127560,-0.351351,-47.002849,-43.502933,-20.901029
09534,,7.252906,-3.801926,3.404755,0.808455,-1.237348,-0.485548,-46.853185,-44.190793,-20.447669
09535,,7.490923,-4.081211,3.408798,0.856887,-1.331977,-0.625337,-46.675015,-45.006952,-20.012753
09536,,7.662425,-4.355417,3.352759,0.888466,-1.416753,-0.773773,-46.453617,-45.887519,-19.608394
09537,,7.768736,-4.598258,3.188134,0.958596,-1.481297,-0.949978,-46.161648,-46.900449,-19.264144
09538,,7.837236,-3.989718,3.125570,1.013575,-1.541417,-1.136200,-45.778161,-47.982909,-18.995705
09539,,7.681769,-2.839275,3.346442,0.936082,-1.598326,-1.292110,-45.405274,-49.186358,-18.789156
09540,,7.506996,-2.062394,3.532382,0.688328,-1.650255,-1.451667,-45.111252,-50.443328,-18.657184
09541,,7.452154,-2.194445,3.465413,0.393348,-1.700297,-1.617386,-44.937204,-51.822176,-18.601936
09542,,7.519497,-2.747932,3.521797,0.194915,-1.737678,-1.792686,-44.790298,-53.253100,-18.645764
09543,,7.497993,-3.418248,3.539556,0.115818,-1.769491,-1.946835,-44.622834,-54.793644,-18.780439
09544,,7.540412,-3.766231,3.840540,0.128743,-1.820894,-2.082895,-44.372031,-56.374981,-18.994516
09545,,7.789010,-3.880869,4.181521,0.171372,-1.847727,-2.187968,-44.033035,-58.042811,-19.289893
09546,,8.192813,-4.082094,4.434535,0.224545,-1.867346,-2.276459,-43.569631,-59.718600,-19.680401
09547,,8.607648,-4.299869,4.564203,0.339937,-1.862288,-2.353795,-42.937403,-61.453601,-20.190476
09548,,9.002702,-4.362020,4.622425,0.485364,-1.838750,-2.411049,-42.072720,-63.164495,-20.852417
09549,,9.387278,-4.166812,4.726983,0.616339,-1.812788,-2.450990,-40.981621,-64.905277,-21.680040
09550,,9.810872,-3.800655,4.864680,0.683116,-1.775127,-2.467843,-39.654953,-66.596537,-22.705276
09551,,10.238301,-3.572669,4.926981,0.671022,-1.719729,-2.462978,-38.119956,-68.279900,-23.956814
09552,,10.618286,-3.320121,5.011854,0.604902,-1.658144,-2.431024,-36.373625,-69.880165,-25.454796
09553,,11.061957,-2.949553,5.227915,0.465707,-1.587044,-2.377502,-34.441949,-71.441777,-27.163975
09554,,11.499045,-2.635464,5.526838,0.240256,-1.475671,-2.296429,-32.332524,-72.872835,-29.234829
09555,,11.754854,-2.270814,5.723920,-0.069389,-1.342346,-2.196705,-30.065371,-74.211136,-31.600507
09556,,11.813853,-2.028797,5.655483,-0.442795,-1.176623,-2.061067,-27.708380,-75.372973,-34.305440
09557,,11.714147,-1.940603,5.419977,-0.841614,-1.022747,-1.911059,-25.308854,-76.410784,-37.256843
09558,,11.490239,-2.006095,5.003739,-1.219983,-0.881455,-1.751634,-22.966128,-77.283096,-40.380073
09559,,11.315359,-2.149632,4.586317,-1.526952,-0.761143,-1.589805,-20.677229,-78.047636,-43.605259
09560,,11.168272,-2.279212,4.264159,-1.769124,-0.652321,-1.417030,-18.580694,-78.673285,-46.780340
09561,,11.097863,-2.437753,4.076924,-1.942235,-0.554338,-1.243367,-16.662465,-79.209218,-49.859654
09562,,11.066441,-2.748086,3.838288,-2.025285,-0.458106,-1.063558,-15.060844,-79.628957,-52.669108
09563,,11.003036,-3.000383,3.533127,-2.035001,-0.357774,-0.891291,-13.709084,-79.968165,-55.230190
09564,,10.876573,-3.220197,3.132881,-1.982098,-0.263965,-0.714726,-12.752655,-80.209699,-57.353653
09565,,10.680885,-3.424072,2.783666,-1.880308,-0.184086,-0.542035,-12.141390,-80.390543,-59.074989
09566,,10.411555,-3.554276,2.556671,-1.743258,-0.112434,-0.383034,-11.935809,-80.499853,-60.296022
09567,,10.267500,-3.578659,2.439006,-1.599602,-0.057668,-0.244083,-12.037001,-80.569966,-61.136355
09568,,10.189610,-3.683034,2.351102,-1.470614,-0.016525,-0.116855,-12.488010,-80.593981,-61.533000
09569,,10.263196,-3.675646,2.220338,-1.336698,0.025062,-0.008798,-13.181398,-80.588496,-61.616457
09570,,10.319968,-3.705984,2.181305,-1.202115,0.083692,0.103278,-14.138605,-80.528512,-61.344038
09571,,10.202234,-3.611227,2.270986,-1.077665,0.144429,0.195377,-15.269275,-80.425763,-60.839830
09572,,9.988826,-3.373773,2.281580,-0.990752,0.205722,0.265502,-16.498673,-80.271401,-60.168315
09573,,9.719611,-3.091773,2.354437,-0.938463,0.255541,0.321537,-17.808773,-80.081580,-59.398504
09574,,9.551718,-2.858217,2.410951,-0.936204,0.291731,0.363229,-19.153141,-79.857784,-58.577738
09575,,9.418993,-2.742899,2.420452,-0.949428,0.317255,0.395048,-20.543673,-79.613488,-57.722682
09576,,9.323012,-2.698859,2.513493,-0.987108,0.337278,0.420268,-21.933075,-79.346909,-56.884514
09577,,9.285150,-2.603658,2.606853,-1.026024,0.351043,0.439856,-23.351871,-79.066638,-56.039628
09578,,9.302065,-2.539943,2.623082,-1.088510,0.369100,0.445155,-24.717888,-78.770449,-55.282933
09579,,9.209533,-2.501236,2.639868,-1.158764,0.377522,0.454453,-26.110119,-78.464292,-54.540934
09580,,9.097530,-2.584803,2.652148,-1.234436,0.381860,0.453431,-27.455128,-78.152804,-53.889456
09581,,9.040720,-2.694200,2.580945,-1.284264,0.379480,0.445916,-28.792630,-77.840195,-53.275171
09582,,8.938700,-2.886472,2.567303,-1.293623,0.366265,0.432076,-30.043523,-77.536754,-52.753239
09583,,8.857222,-3.098173,2.532002,-1.260627,0.348392,0.412618,-31.246705,-77.242706,-52.261234
09584,,8.858629,-3.219321,2.480518,-1.183223,0.322050,0.384234,-32.312086,-76.970899,-51.863541
09585,,8.969669,-3.283774,2.460058,-1.072270,0.296683,0.370146,-33.324125,-76.709836,-51.455879
09586,,8.996844,-3.394287,2.365890,-0.932955,0.274530,0.342785,-34.171923,-76.470959,-51.133622
09587,,9.052856,-3.387380,2.234684,-0.761416,0.254272,0.310748,-34.904387,-76.245338,-50.829543
09588,,9.100598,-3.404394,2.101769,-0.556271,0.223384,0.286816,-35.463783,-76.047075,-50.581438
09589,,9.245364,-3.419367,2.027239,-0.338127,0.191881,0.259719,-35.919306,-75.865082,-50.312350
09590,,9.373399,-3.351338,1.977420,-0.112599,0.163743,0.235830,-36.192438,-75.710739,-50.096933
09591,,9.532243,-3.240972,2.063324,0.103727,0.143736,0.220281,-36.377770,-75.562741,-49.845128
09592,,9.650841,-2.927508,2.162353,0.263070,0.136700,0.205988,-36.410134,-75.430684,-49.655802
09593,,9.699538,-2.571733,2.194573,0.364829,0.130029,0.206551,-36.435850,-75.292702,-49.414105
09594,,9.727510,-2.279069,2.212982,0.414611,0.135444,0.218714,-36.401550,-75.156851,-49.203698
09595,,9.678786,-2.025399,2.184830,0.429396,0.132936,0.232383,-36.427547,-75.008245,-48.923154
09596,,9.716511,-1.875970,2.147197,0.413101,0.125499,0.246253,-36.449668,-74.867564,-48.654940
09597,,9.777375,-1.732278,2.177285,0.374342,0.128033,0.265100,-36.562197,-74.709740,-48.317059
09598,,9.799531,-1.677406,2.240721,0.318850,0.131744,0.279421,-36.679060,-74.554606,-48.006210
09599,,9.817222,-1.647245,2.329665,0.263487,0.140196,0.297096,-36.882391,-74.379776,-47.639513
09600,,9.848571,-1.684834,2.343515,0.216065,0.155018,0.309868,-37.068964,-74.202963,-47.316917
09601,,9.780896,-1.739553,2.329403,0.185750,0.175061,0.320155,-37.297684,-74.003553,-46.969485
09602,,9.692798,-1.673356,2.301387,0.167541,0.191785,0.326512,-37.481711,-73.803563,-46.677860
09603,,9.570049,-1.571884,2.251566,0.136949,0.199325,0.325054,-37.702588,-73.590795,-46.367043
09604,,9.510836,-1.388193,2.235599,0.092763,0.206161,0.326252,-37.899758,-73.383789,-46.105781
09605,,9.496426,-1.328956,2.192737,0.034908,0.209561,0.322831,-38.149393,-73.166761,-45.825333
09606,,9.416426,-1.385635,2.199295,-0.017329,0.206699,0.310388,-38.373535,-72.964529,-45.601243
09607,,9.357042,-1.497751,2.162263,-0.039958,0.199614,0.300330,-38.630972,-72.759689,-45.356936
09608,,9.323555,-1.556740,2.194575,-0.054290,0.189997,0.279984,-38.841364,-72.575266,-45.168959
09609,,9.328482,-1.616307,2.163211,-0.057900,0.179824,0.251733,-39.051863,-72.396519,-44.984194
09610,,9.333540,-1.640574,2.157971,-0.047659,0.172299,0.223856,-39.192617,-72.239861,-44.864964
09611,,9.241146,-1.674355,2.120973,-0.042916,0.162505,0.199321,-39.334671,-72.087819,-44.742801
09612,,9.195622,-1.709726,2.111861,-0.030727,0.157578,0.164150,-39.396687,-71.959205,-44.695960
09613,,9.051637,-1.708621,2.038806,-0.010621,0.140544,0.127795,-39.444226,-71.843122,-44.653646
09614,,8.989385,-1.756647,2.074166,0.018377,0.119548,0.086526,-39.414718,-71.759550,-44.673477
09615,,9.018479,-1.753879,2.075214,0.042342,0.092040,0.039826,-39.366720,-71.697235,-44.699842
09616,,9.102311,-1.806867,2.082068,0.064888,0.070846,-0.006215,-39.240462,-71.668882,-44.793536
09617,,9.219731,-1.847716,2.078792,0.086065,0.053455,-0.045161,-39.096099,-71.654706,-44.895100
09618,,9.253451,-1.876054,2.107962,0.104382,0.045924,-0.090034,-38.862308,-71.667478,-45.078258
09619,,9.256776,-1.973331,2.091999,0.132728,0.032416,-0.124655,-38.606656,-71.691225,-45.268946
09620,,9.319112,-2.007325,2.137558,0.168131,0.017586,-0.155908,-38.276540,-71.739621,-45.515034
09621,,9.353342,-1.935840,2.101221,0.196157,0.003156,-0.175592,-37.944484,-71.794096,-45.747877
09622,,9.343993,-1.891546,2.210930,0.201914,-0.006284,-0.198377,-37.558583,-71.867252,-46.032148
09623,,9.317816,-1.931281,2.313652,0.200827,-0.014189,-0.210675,-37.189332,-71.941073,-46.301179
09624,,9.352090,-2.007861,2.397698,0.201280,-0.023195,-0.222659,-36.782115,-72.029130,-46.608003
09625,,9.366079,-2.048303,2.437820,0.202815,-0.021310,-0.231065,-36.384377,-72.112065,-46.905533
09626,,9.387527,-2.088281,2.569673,0.205648,-0.014422,-0.234139,-35.942107,-72.198558,-47.246264
09627,,9.465422,-2.077806,2.619571,0.191490,-0.002767,-0.237528,-35.515365,-72.273557,-47.580777
09628,,9.528287,-2.045182,2.573241,0.166969,0.010881,-0.227528,-35.071633,-72.344417,-47.946018
09629,,9.500036,-2.028598,2.587243,0.132338,0.028084,-0.214681,-34.674610,-72.395767,-48.284643
09630,,9.458562,-2.035903,2.537389,0.098782,0.037231,-0.198868,-34.280245,-72.443281,-48.638864
09631,,9.525252,-2.130413,2.531779,0.074242,0.040229,-0.174635,-33.960418,-72.474537,-48.931273
09632,,9.563373,-2.181532,2.535231,0.064295,0.052262,-0.149897,-33.641423,-72.498002,-49.227056
09633,,9.540416,-2.197619,2.557071,0.069202,0.056968,-0.124573,-33.382129,-72.504344,-49.458984
09634,,9.529826,-2.217601,2.558565,0.069756,0.056610,-0.092006,-33.142681,-72.506679,-49.668058
09635,,9.551480,-2.242392,2.610142,0.071800,0.060463,-0.058310,-32.979690,-72.489898,-49.797485
09636,,9.541728,-2.311585,2.645383,0.079365,0.066375,-0.034730,-32.812701,-72.469293,-49.924838
09637,,9.511956,-2.261512,2.662106,0.085071,0.071619,-0.007783,-32.709330,-72.431019,-49.983825
09638,,9.477034,-2.257881,2.621275,0.087770,0.078737,0.011809,-32.597108,-72.389885,-50.048726
09639,,9.453653,-2.233785,2.645515,0.088379,0.088187,0.025755,-32.527944,-72.332957,-50.069891
09640,,9.417144,-2.223464,2.546914,0.084645,0.089949,0.046534,-32.460082,-72.275644,-50.090155
09641,,9.386448,-2.203342,2.480739,0.078018,0.098303,0.047266,-32.420656,-72.206989,-50.086385
09642,,9.304668,-2.212512,2.471057,0.066371,0.100763,0.063004,-32.378200,-72.139360,-50.090981
09643,,9.230361,-2.244562,2.467560,0.061300,0.102555,0.056375,-32.358786,-72.065715,-50.076318
09644,,9.213215,-2.236992,2.439437,0.055215,0.093666,0.053054,-32.314875,-72.004551,-50.089173
09645,,9.268868,-2.244207,2.458189,0.060474,0.086054,0.045387,-32.295907,-71.942118,-50.074605
09646,,9.345569,-2.274461,2.462462,0.066023,0.080432,0.040841,-32.240429,-71.891078,-50.093129
09647,,9.346280,-2.352985,2.479118,0.085660,0.077464,0.037128,-32.203667,-71.835212,-50.082174
09648,,9.377513,-2.379397,2.454004,0.105255,0.074755,0.040228,-32.130498,-71.787084,-50.095679
09649,,9.234346,-2.305293,2.425410,0.130335,0.069317,0.046000,-32.089798,-71.732319,-50.062007
09650,,9.142611,-2.213460,2.399282,0.137623,0.065153,0.058535,-32.034194,-71.683259,-50.037494
09651,,9.080923,-2.211529,2.398336,0.126891,0.057114,0.060645,-32.028797,-71.629872,-49.968781
09652,,9.186838,-2.157996,2.384670,0.116903,0.047506,0.077607,-32.029040,-71.583574,-49.897918
09653,,9.221978,-2.143556,2.414837,0.102144,0.049582,0.092234,-32.090751,-71.524157,-49.773452
09654,,9.270288,-2.123076,2.365308,0.087080,0.049674,0.103726,-32.143379,-71.468797,-49.665330
09655,,9.357998,-2.128041,2.372277,0.066981,0.046321,0.123868,-32.273046,-71.401194,-49.490430
09656,,9.489550,-2.094936,2.375134,0.045813,0.048079,0.133655,-32.392418,-71.337287,-49.336753
09657,,9.565264,-2.126717,2.317265,0.031634,0.046052,0.146443,-32.571931,-71.263843,-49.114009
09658,,9.541660,-2.150914,2.310826,0.032801,0.049359,0.171859,-32.749585,-71.187212,-48.906520
09659,,9.470852,-2.139607,2.299322,0.029373,0.039269,0.173303,-32.972788,-71.107207,-48.655387
09660,,9.444256,-2.097730,2.342305,0.037862,0.029386,0.182736,-33.177687,-71.036264,-48.415850
09661,,9.445542,-2.102785,2.377613,0.042131,0.021792,0.187107,-33.424464,-70.960866,-48.116957
09662,,9.335213,-2.086354,2.424756,0.050386,0.012216,0.187035,-33.640423,-70.896131,-47.857923
09663,,9.283950,-2.074303,2.481064,0.062996,0.005263,0.186095,-33.885542,-70.828160,-47.549775
09664,,9.226475,-2.030107,2.470983,0.064571,-0.001398,0.178872,-34.091558,-70.771821,-47.292466
09665,,9.150888,-2.037595,2.482344,0.074316,-0.012076,0.179138,-34.333170,-70.714032,-46.974839
09666,,9.158835,-1.985842,2.512916,0.076341,-0.011802,0.169069,-34.526154,-70.665122,-46.724024
09667,,9.161714,-1.987695,2.545338,0.081362,-0.013395,0.166499,-34.745186,-70.611252,-46.428340
09668,,9.217139,-1.963420,2.521447,0.073807,-0.013565,0.157274,-34.923259,-70.566434,-46.194722
09669,,9.232813,-1.932338,2.558524,0.064781,-0.010021,0.148122,-35.121527,-70.516744,-45.927069
09670,,9.281803,-1.884940,2.527797,0.050201,-0.005987,0.142651,-35.284822,-70.472697,-45.723344
09671,,9.291835,-1.864990,2.532848,0.032446,-0.005001,0.135637,-35.478232,-70.424281,-45.482543
09672,,9.334951,-1.880387,2.562661,0.009285,-0.009665,0.127306,-35.646652,-70.386624,-45.298153
09673,,9.385046,-1.917985,2.598583,-0.010447,-0.012169,0.116331,-35.844134,-70.347581,-45.080630
09674,,9.487887,-1.973165,2.611791,-0.014781,-0.014782,0.117274,-36.016799,-70.315261,-44.906293
09675,,9.479522,-2.046810,2.671418,-0.013478,-0.013234,0.101572,-36.196227,-70.281459,-44.709467
09676,,9.445786,-2.054635,2.619521,-0.002394,-0.014241,0.094180,-36.330502,-70.256363,-44.568310
09677,,9.457618,-2.065363,2.597766,0.011700,-0.017433,0.087444,-36.480164,-70.228950,-44.389778
09678,,9.404376,-2.046065,2.559623,0.033542,-0.018528,0.076752,-36.574975,-70.211539,-44.268640
09679,,9.402916,-2.017838,2.583674,0.045174,-0.021087,0.067921,-36.683075,-70.192615,-44.111111
09680,,9.421130,-1.978889,2.619635,0.049953,-0.014778,0.049951,-36.730444,-70.182521,-44.030382
09681,,9.381397,-1.966334,2.620944,0.046757,-0.018125,0.041544,-36.800657,-70.171268,-43.912621
09682,,9.413820,-2.003839,2.645480,0.043001,-0.017894,0.021164,-36.818290,-70.172425,-43.867732
09683,,9.335413,-2.014998,2.682854,0.036646,-0.011157,-0.003207,-36.830346,-70.173426,-43.818300
09684,,9.277719,-2.083003,2.681755,0.034871,-0.016189,-0.025104,-36.792196,-70.189673,-43.837664
09685,,9.337519,-2.127641,2.724754,0.038439,-0.018200,-0.046126,-36.755060,-70.208428,-43.843171
09686,,9.313034,-2.150737,2.739956,0.037083,-0.010154,-0.065882,-36.657728,-70.235845,-43.924078
09687,,9.249966,-2.148471,2.698364,0.040520,-0.008338,-0.075394,-36.572075,-70.260187,-43.978466
09688,,9.284615,-2.175605,2.723726,0.037983,-0.010632,-0.084768,-36.449982,-70.294157,-44.085106
09689,,9.352062,-2.152375,2.706141,0.033229,-0.004434,-0.094956,-36.339066,-70.322958,-44.174575
09690,,9.465881,-2.200940,2.669204,0.027961,0.003920,-0.089941,-36.201538,-70.351796,-44.303668
