// Start Time: Unknown
// Update Rate: 100.0Hz
// Filter Profile: human (46.1)
// Firmware Version: 4.3.5
PacketCounter,SampleTimeFine,Acc_X,Acc_Y,Acc_Z,Gyr_X,Gyr_Y,Gyr_Z,Roll,Pitch,Yaw
47667,,9.912853,-0.546606,1.384730,-0.196681,-0.068274,-0.028745,-17.576476,-81.623551,-20.339663
47668,,9.936087,-0.582282,1.376039,-0.190623,-0.060293,-0.031332,-17.640355,-81.661909,-20.385490
47669,,9.914856,-0.545811,1.370635,-0.181670,-0.053650,-0.030164,-17.698127,-81.696381,-20.432352
47670,,9.908482,-0.565632,1.353573,-0.175876,-0.052822,-0.035760,-17.728107,-81.731444,-20.503888
47671,,9.865049,-0.525787,1.359250,-0.164326,-0.046502,-0.038634,-17.739156,-81.763409,-20.587992
47672,,9.887968,-0.526516,1.343853,-0.160072,-0.043936,-0.041502,-17.727173,-81.794629,-20.692766
47673,,9.881412,-0.545259,1.328408,-0.145326,-0.031814,-0.037518,-17.717271,-81.818267,-20.787109
47674,,9.874778,-0.563577,1.313698,-0.136523,-0.029275,-0.046253,-17.655119,-81.842298,-20.928921
47675,,9.860372,-0.504044,1.323105,-0.129795,-0.021871,-0.050957,-17.579706,-81.862765,-21.080594
47676,,9.905263,-0.538720,1.308769,-0.120793,-0.014727,-0.055611,-17.453954,-81.880402,-21.277534
47677,,9.890649,-0.478248,1.319771,-0.114768,-0.009279,-0.057055,-17.337132,-81.894976,-21.462462
47678,,9.861839,-0.522741,1.266310,-0.114222,-0.002172,-0.058136,-17.181651,-81.906047,-21.685612
47679,,9.861969,-0.487922,1.317233,-0.109534,0.002411,-0.060031,-17.042674,-81.914886,-21.890020
47680,,9.877097,-0.506219,1.295901,-0.105867,0.005575,-0.060537,-16.863115,-81.921944,-22.132646
47681,,9.862328,-0.475306,1.257626,-0.096007,0.009060,-0.064616,-16.698023,-81.927837,-22.355749
47682,,9.862471,-0.470101,1.258464,-0.094124,0.017040,-0.065199,-16.479842,-81.929146,-22.630581
47683,,9.840464,-0.462612,1.269824,-0.089600,0.016525,-0.065168,-16.308179,-81.931672,-22.856774
47684,,9.825852,-0.464926,1.240983,-0.090700,0.022787,-0.062554,-16.091701,-81.929134,-23.127904
47685,,9.855862,-0.508269,1.260114,-0.082811,0.026529,-0.070784,-15.891316,-81.927676,-23.379322
47686,,9.782382,-0.512811,1.221981,-0.068688,0.029541,-0.070606,-15.623854,-81.922372,-23.689213
47687,,9.761146,-0.571680,1.250478,-0.055439,0.026004,-0.071277,-15.422590,-81.921957,-23.926072
47688,,9.745713,-0.505441,1.206514,-0.038408,0.028196,-0.073309,-15.129224,-81.917441,-24.244607
47689,,9.781988,-0.459781,1.221367,-0.027028,0.026922,-0.073104,-14.925485,-81.917526,-24.467959
47690,,9.738220,-0.478624,1.192651,-0.021314,0.032955,-0.076308,-14.606265,-81.910412,-24.802721
47691,,9.767868,-0.486612,1.204785,-0.009612,0.031132,-0.074240,-14.395817,-81.909522,-25.022986
47692,,9.789980,-0.481679,1.197709,0.000531,0.031007,-0.069452,-14.093581,-81.902093,-25.327959
47693,,9.789387,-0.441329,1.192712,0.004062,0.029075,-0.067999,-13.913857,-81.902733,-25.509843
47694,,9.774184,-0.412192,1.216640,0.003906,0.023965,-0.066122,-13.630096,-81.898410,-25.794215
47695,,9.781737,-0.418855,1.237985,0.005089,0.019729,-0.063764,-13.493650,-81.905750,-25.932224
47696,,9.774829,-0.433226,1.228583,0.008948,0.017243,-0.060444,-13.235652,-81.904145,-26.187657
47697,,9.745151,-0.412343,1.221175,0.023655,0.016636,-0.055535,-13.147119,-81.914714,-26.267332
47698,,9.736877,-0.363439,1.255137,0.032929,0.010520,-0.057596,-12.892529,-81.916296,-26.505437
47699,,9.721689,-0.335272,1.277457,0.034210,0.008298,-0.050175,-12.817567,-81.931160,-26.564951
47700,,9.772992,-0.313118,1.269299,0.024925,0.004720,-0.054492,-12.584383,-81.935406,-26.786062
47701,,9.708148,-0.365424,1.256279,0.022961,0.004412,-0.052696,-12.495052,-81.952259,-26.865414
47702,,9.745040,-0.351074,1.217292,0.023536,0.000748,-0.048032,-12.290819,-81.957747,-27.058077
47703,,9.746702,-0.413168,1.233350,0.032260,-0.002233,-0.048755,-12.235140,-81.977154,-27.096931
47704,,9.760624,-0.366886,1.255603,0.041694,-0.003765,-0.046712,-12.028924,-81.984923,-27.281047
47705,,9.760876,-0.361760,1.255134,0.050351,-0.009297,-0.046486,-11.961093,-82.008506,-27.322855
47706,,9.804582,-0.330265,1.286071,0.056619,-0.006902,-0.045027,-11.754704,-82.017716,-27.498494
47707,,9.812540,-0.334881,1.245082,0.052701,-0.007520,-0.041416,-11.684163,-82.036479,-27.540059
47708,,9.827238,-0.322108,1.274833,0.056830,-0.009471,-0.048267,-11.465790,-82.047388,-27.727654
47709,,9.819871,-0.303926,1.254790,0.052913,-0.010089,-0.044654,-11.399630,-82.070687,-27.764700
47710,,9.812403,-0.289391,1.294406,0.046395,-0.009914,-0.042946,-11.207831,-82.081124,-27.931466
47711,,9.820391,-0.294184,1.253040,0.041444,-0.011434,-0.043958,-11.113000,-82.099528,-28.000766
47712,,9.813898,-0.310051,1.240802,0.041377,-0.013987,-0.043012,-10.925836,-82.112138,-28.165707
47713,,9.769841,-0.301897,1.259851,0.035961,-0.010358,-0.037622,-10.869914,-82.135123,-28.203545
47714,,9.734363,-0.336978,1.247089,0.031805,-0.004795,-0.043806,-10.676600,-82.142509,-28.380230
47715,,9.728747,-0.386826,1.243706,0.042221,-0.007945,-0.036180,-10.671157,-82.167889,-28.363001
47716,,9.734795,-0.328486,1.245985,0.041886,-0.007396,-0.038059,-10.496890,-82.176106,-28.514589
47717,,9.751367,-0.380453,1.232613,0.043922,-0.005054,-0.034831,-10.485531,-82.197733,-28.499750
47718,,9.729396,-0.374577,1.242371,0.045863,-0.004743,-0.036669,-10.311810,-82.204246,-28.648430
47719,,9.715105,-0.381569,1.271615,0.049229,-0.001516,-0.032970,-10.259483,-82.218798,-28.676512
47720,,9.737412,-0.379840,1.261550,0.053815,-0.002507,-0.026869,-10.119611,-82.222999,-28.786445
47721,,9.767439,-0.391092,1.270688,0.061583,-0.004335,-0.027192,-10.129691,-82.240238,-28.736237
47722,,9.758858,-0.344514,1.302563,0.070389,-0.005246,-0.022884,-9.997996,-82.245514,-28.828255
47723,,9.736837,-0.336531,1.252736,0.074981,-0.003164,-0.023796,-9.995267,-82.262418,-28.795428
47724,,9.736934,-0.333443,1.252812,0.072458,-0.000343,-0.020663,-9.867871,-82.264674,-28.881965
47725,,9.787022,-0.282839,1.295071,0.074668,-0.003127,-0.019678,-9.874239,-82.278592,-28.838245
47726,,9.772646,-0.288137,1.264960,0.075801,0.002898,-0.017010,-9.757658,-82.278624,-28.911973
47727,,9.742783,-0.270809,1.255975,0.074694,-0.000574,-0.020697,-9.767209,-82.292294,-28.866806
47728,,9.809330,-0.276160,1.285794,0.072789,0.001670,-0.019862,-9.641520,-82.293303,-28.951514
47729,,9.772759,-0.282350,1.325661,0.066286,0.001832,-0.018123,-9.661566,-82.305502,-28.901564
47730,,9.819262,-0.350375,1.322789,0.058079,-0.000903,-0.017738,-9.555114,-82.307755,-28.975422
47731,,9.858060,-0.405780,1.300491,0.050921,0.000336,-0.019728,-9.598957,-82.319583,-28.901633
47732,,9.897913,-0.497192,1.346780,0.056222,0.003891,-0.017885,-9.489748,-82.319203,-28.979307
47733,,9.927816,-0.509394,1.357089,0.068433,0.008803,-0.010881,-9.542194,-82.323721,-28.893774
47734,,9.944241,-0.565880,1.406371,0.079746,0.020428,-0.011459,-9.434925,-82.313367,-28.955928
47735,,9.980415,-0.559943,1.489723,0.094506,0.037365,-0.003309,-9.461060,-82.293715,-28.881751
47736,,10.092698,-0.637212,1.521877,0.112233,0.055551,0.007603,-9.390846,-82.261695,-28.887793
47737,,10.079248,-0.711359,1.517453,0.147925,0.095394,0.012164,-9.469081,-82.209683,-28.737921
47738,,9.951040,-0.675219,1.541138,0.212078,0.133830,0.011393,-9.305207,-82.133153,-28.780873
47739,,9.854063,-0.458847,1.425829,0.316095,0.183838,-0.017770,-9.129669,-82.030645,-28.786852
47740,,9.591339,0.032303,1.608435,0.388129,0.191566,-0.048422,-8.595076,-81.926722,-29.102417
47741,,9.684285,0.387731,1.954819,0.335636,0.173611,-0.078389,-8.149680,-81.830532,-29.362020
47742,,9.970298,0.232773,2.240538,0.224357,0.212123,-0.071109,-7.629126,-81.716031,-29.758397
47743,,10.012791,-0.336329,2.372402,0.140870,0.285089,-0.027095,-7.407216,-81.548567,-29.906510
47744,,9.959703,-1.071789,2.268565,0.142140,0.339947,0.028502,-7.270094,-81.353534,-29.963104
47745,,9.878065,-1.678591,2.203269,0.177823,0.375930,0.078019,-7.441345,-81.122624,-29.706843
47746,,9.779720,-2.299201,2.172042,0.240633,0.384067,0.123709,-7.568725,-80.895524,-29.438684
47747,,9.565255,-2.643896,1.937365,0.380312,0.383489,0.178525,-8.022589,-80.641477,-28.772208
47748,,9.426853,-2.738811,1.831873,0.552269,0.377266,0.246975,-8.363814,-80.407726,-28.105897
47749,,9.389063,-2.718860,1.883003,0.665588,0.368098,0.322234,-9.120917,-80.133450,-26.956252
47750,,9.532135,-2.614575,2.102614,0.715934,0.389794,0.398754,-9.783967,-79.875871,-25.866948
47751,,9.665285,-2.503015,2.305630,0.743525,0.434840,0.463497,-10.870974,-79.537292,-24.346512
47752,,9.677623,-2.493815,2.380162,0.768796,0.489347,0.536780,-11.746390,-79.202089,-23.008235
47753,,9.734506,-2.596261,2.415431,0.810336,0.528777,0.604193,-13.065821,-78.780623,-21.222707
47754,,9.757769,-2.781642,2.339325,0.892260,0.564665,0.681551,-14.059457,-78.374390,-19.688156
47755,,9.810705,-2.899825,2.330493,0.985050,0.586702,0.748945,-15.340712,-77.872947,-17.788353
47756,,9.875261,-2.949658,2.335354,1.082425,0.595613,0.830572,-16.384033,-77.414068,-16.086110
47757,,9.938869,-2.873623,2.356642,1.169892,0.611922,0.898286,-17.670849,-76.850553,-14.054071
47758,,10.040042,-2.771295,2.471343,1.239235,0.635275,0.963484,-18.682427,-76.331555,-12.284979
47759,,10.020219,-2.742191,2.584700,1.277535,0.665207,1.021318,-19.820157,-75.691619,-10.272114
47760,,9.963341,-2.722857,2.677845,1.299692,0.698046,1.075663,-20.757217,-75.101273,-8.534986
47761,,9.905546,-2.774138,2.659849,1.324902,0.719134,1.125397,-21.812223,-74.389903,-6.559990
47762,,9.936516,-2.812751,2.580379,1.353527,0.735383,1.174726,-22.653945,-73.743247,-4.878926
47763,,9.926645,-2.816836,2.502338,1.388318,0.732848,1.218226,-23.694889,-72.990299,-2.915022
47764,,9.954925,-2.790245,2.513621,1.432731,0.727813,1.254995,-24.424383,-72.314204,-1.291610
47765,,9.927050,-2.693716,2.615981,1.461215,0.729326,1.282141,-25.378146,-71.536139,0.573725
47766,,9.845562,-2.563586,2.762586,1.449253,0.742022,1.310998,-25.986564,-70.825321,2.092878
47767,,9.748264,-2.476424,2.890323,1.404228,0.751140,1.338789,-26.846904,-70.009812,3.822815
47768,,9.716834,-2.573054,2.889598,1.356900,0.758835,1.368010,-27.408403,-69.263384,5.250112
47769,,9.673838,-2.521458,2.941908,1.312976,0.752291,1.416911,-28.229051,-68.415429,6.898322
47770,,9.564081,-2.440857,2.980701,1.252770,0.742417,1.440065,-28.799259,-67.645750,8.286242
47771,,9.422168,-2.315283,3.003640,1.170777,0.722483,1.453218,-29.584785,-66.792973,9.827084
47772,,9.302249,-2.082311,2.996968,1.051560,0.701769,1.463023,-30.182397,-66.024737,11.135697
47773,,9.192221,-2.222116,2.999496,0.902496,0.689903,1.464266,-30.989700,-65.176911,12.552075
47774,,9.036734,-2.239195,3.034895,0.764293,0.670668,1.469486,-31.650432,-64.409081,13.765376
47775,,8.928918,-2.297581,3.125958,0.618405,0.639389,1.469483,-32.509637,-63.576492,15.078690
47776,,8.747566,-2.168020,3.186084,0.472977,0.604017,1.456984,-33.250045,-62.830837,16.210781
47777,,8.549824,-2.379918,3.171793,0.331364,0.574880,1.422938,-34.137185,-62.035281,17.390211
47778,,8.367210,-2.864522,2.952820,0.256275,0.534284,1.387377,-34.879751,-61.330939,18.399499
47779,,8.329542,-3.172444,2.724842,0.265858,0.492285,1.376227,-35.705942,-60.581312,19.483777
47780,,8.257017,-3.172089,2.624209,0.306242,0.458705,1.383010,-36.376503,-59.900897,20.457298
47781,,8.221616,-2.911205,2.687299,0.314877,0.420959,1.392342,-37.144397,-59.172187,21.521101
47782,,8.281689,-2.660762,3.020800,0.255962,0.370482,1.386303,-37.822735,-58.518782,22.484084
47783,,8.449541,-2.695227,3.256807,0.168605,0.329644,1.363683,-38.624003,-57.835667,23.504740
47784,,8.639113,-2.845345,3.286920,0.105824,0.300484,1.329105,-39.319825,-57.221331,24.400310
47785,,8.652623,-3.008149,3.128809,0.104127,0.274431,1.295261,-40.067549,-56.581870,25.329546
47786,,8.466896,-3.104587,2.923899,0.124558,0.253953,1.252284,-40.670809,-56.004812,26.139422
47787,,8.363427,-3.156205,2.930330,0.164129,0.196989,1.204341,-41.310563,-55.429992,26.993433
47788,,8.426822,-3.006720,3.139650,0.198501,0.145223,1.162275,-41.830273,-54.924464,27.763957
47789,,8.464584,-2.733550,3.345566,0.208388,0.099532,1.107188,-42.393027,-54.427003,28.566678
47790,,8.487246,-2.640134,3.478293,0.204784,0.071812,1.044682,-42.844679,-53.990081,29.267019
47791,,8.490629,-2.607577,3.567386,0.207750,0.062893,0.997038,-43.323529,-53.551469,29.977706
47792,,8.321994,-2.707146,3.612282,0.183777,0.065475,0.960348,-43.716571,-53.144065,30.597737
47793,,8.167985,-2.803772,3.506386,0.169470,0.049680,0.933311,-44.155220,-52.737696,31.241992
47794,,8.052776,-2.882805,3.354279,0.185026,0.014345,0.902347,-44.521470,-52.369227,31.835700
47795,,8.090902,-2.890383,3.202083,0.223923,-0.017151,0.853785,-44.894935,-52.023697,32.446208
47796,,8.135654,-2.906409,3.196559,0.253909,-0.038432,0.793817,-45.175786,-51.716232,32.987040
47797,,8.221405,-3.006093,3.375932,0.250269,-0.032020,0.741981,-45.465126,-51.425379,33.516812
47798,,8.227739,-2.976198,3.600148,0.216889,-0.018444,0.705213,-45.700141,-51.142986,33.976119
47799,,8.153309,-2.843244,3.737077,0.183866,-0.013198,0.669683,-45.965649,-50.877743,34.433016
47800,,8.164964,-2.804797,3.584780,0.160976,-0.033034,0.626516,-46.192067,-50.631154,34.843306
47801,,8.147458,-2.871274,3.430746,0.157504,-0.062735,0.582801,-46.440629,-50.425125,35.265170
47802,,8.238927,-3.106888,3.275401,0.149276,-0.086557,0.544348,-46.654335,-50.231695,35.652754
47803,,8.259896,-3.289696,3.298042,0.145879,-0.083446,0.508558,-46.874774,-50.068884,36.033707
47804,,8.229946,-3.396766,3.480538,0.123180,-0.075949,0.481594,-47.063574,-49.895779,36.371208
47805,,8.296718,-3.408814,3.738716,0.085834,-0.081537,0.457505,-47.286688,-49.757109,36.713743
47806,,8.314981,-3.344861,3.780934,0.078259,-0.080274,0.421564,-47.471739,-49.609451,37.014062
47807,,8.347214,-3.322952,3.690629,0.091755,-0.087833,0.376852,-47.650511,-49.510110,37.306261
47808,,8.278176,-3.296883,3.590691,0.089667,-0.093431,0.329434,-47.791176,-49.405433,37.557784
47809,,8.206900,-3.276453,3.536885,0.071002,-0.121883,0.295660,-47.956764,-49.357087,37.819671
47810,,8.163348,-3.252847,3.383554,0.060774,-0.138396,0.260214,-48.103868,-49.298254,38.058352
47811,,8.227045,-3.309747,3.397522,0.068928,-0.147363,0.225215,-48.248282,-49.293095,38.292627
47812,,8.272630,-3.384868,3.430639,0.069110,-0.144474,0.187176,-48.360654,-49.267095,38.491957
47813,,8.254787,-3.378975,3.422691,0.079007,-0.149240,0.149393,-48.464354,-49.298514,38.681423
47814,,8.275645,-3.229532,3.417851,0.089952,-0.162766,0.101139,-48.535962,-49.315949,38.842662
47815,,8.327885,-3.021664,3.497992,0.080228,-0.186213,0.050577,-48.611962,-49.407238,38.997648
47816,,8.489417,-2.893783,3.743488,0.044900,-0.192133,0.002671,-48.681216,-49.477886,39.121491
47817,,8.524365,-2.841182,3.838652,-0.018593,-0.181066,-0.049381,-48.763743,-49.613995,39.212614
47818,,8.525570,-2.854854,3.918174,-0.086625,-0.166665,-0.081608,-48.858941,-49.711157,39.271230
47819,,8.584375,-2.941360,3.912751,-0.162985,-0.163572,-0.118576,-48.980112,-49.873925,39.307326
47820,,8.605005,-3.039147,3.974487,-0.216653,-0.165075,-0.169158,-49.110793,-50.008237,39.314731
47821,,8.674116,-3.104242,3.868669,-0.251233,-0.174196,-0.212380,-49.242001,-50.218440,39.300578
47822,,8.817756,-3.015468,3.993989,-0.245432,-0.170811,-0.266689,-49.349031,-50.397254,39.255786
47823,,8.866794,-2.728309,4.026115,-0.268532,-0.151802,-0.331872,-49.420153,-50.653741,39.153502
47824,,8.540407,-2.526145,3.693660,-0.294268,-0.167108,-0.395207,-49.494597,-50.887235,39.030823
47825,,8.522479,-2.465553,3.401020,-0.286740,-0.204116,-0.449892,-49.543480,-51.217691,38.890222
47826,,8.631587,-2.508575,3.316724,-0.288292,-0.208338,-0.522613,-49.576196,-51.522227,38.719551
47827,,8.610257,-2.353199,3.412604,-0.277108,-0.211834,-0.616294,-49.538772,-51.931291,38.479377
47828,,8.558830,-2.028577,3.415655,-0.242628,-0.227774,-0.754927,-49.440771,-52.344154,38.178076
47829,,8.675991,-1.683817,3.153697,-0.210586,-0.269212,-0.895173,-49.248184,-52.898203,37.795969
47830,,8.794458,-1.546931,2.941794,-0.200711,-0.316616,-1.016685,-49.034045,-53.456692,37.383742
47831,,8.890146,-1.450789,2.888403,-0.219641,-0.354543,-1.121713,-48.755618,-54.142751,36.897121
47832,,8.990778,-1.461385,2.881751,-0.265175,-0.365075,-1.214873,-48.479258,-54.802544,36.369827
47833,,9.097333,-1.551778,2.952824,-0.312720,-0.381110,-1.296041,-48.138850,-55.574121,35.753233
47834,,9.220514,-1.779177,3.039348,-0.321885,-0.368720,-1.367547,-47.775355,-56.296736,35.090820
47835,,9.472788,-2.041474,3.292128,-0.330103,-0.330468,-1.436851,-47.278676,-57.105933,34.288042
47836,,9.442564,-2.443993,3.434717,-0.328715,-0.262013,-1.489137,-46.722669,-57.831551,33.404209
47837,,9.203233,-2.685129,3.391927,-0.261804,-0.232370,-1.532242,-45.988764,-58.632886,32.383444
47838,,9.169245,-2.701600,3.353588,-0.152167,-0.250683,-1.579135,-45.188194,-59.378902,31.346896
47839,,9.425365,-2.543303,3.403362,-0.047986,-0.262597,-1.609097,-44.202587,-60.206351,30.193868
47840,,9.617890,-2.416644,3.443952,0.011371,-0.266730,-1.644621,-43.169774,-60.966845,29.014811
47841,,9.837075,-2.234577,3.468348,0.045605,-0.289321,-1.675715,-41.974278,-61.808144,27.702363
47842,,10.066917,-2.181879,3.407200,0.061313,-0.289539,-1.712555,-40.745230,-62.580080,26.351731
47843,,10.120217,-2.186954,3.236360,0.093419,-0.285775,-1.736518,-39.313178,-63.412548,24.824411
47844,,10.070967,-2.196739,3.144773,0.129161,-0.285988,-1.752577,-37.846532,-64.165777,23.271331
47845,,10.087330,-2.173381,3.133568,0.165085,-0.299508,-1.758434,-36.175750,-64.973422,21.545737
47846,,9.973608,-2.058294,3.050337,0.176295,-0.312796,-1.765565,-34.497087,-65.703514,19.808941
47847,,9.945274,-1.932952,2.938288,0.188502,-0.339516,-1.774773,-32.606622,-66.487933,17.878495
47848,,9.861483,-1.696753,2.676587,0.191030,-0.382308,-1.788639,-30.719606,-67.210986,15.944487
47849,,9.885490,-1.365898,2.471999,0.176391,-0.440444,-1.809172,-28.610193,-67.999549,13.790932
47850,,9.910093,-1.060520,2.228425,0.134386,-0.506379,-1.835674,-26.513426,-68.741919,11.617437
47851,,9.946152,-0.907895,1.866745,0.067330,-0.578239,-1.875188,-24.156575,-69.553764,9.154669
47852,,9.906744,-0.804778,1.518693,0.026275,-0.659067,-1.920247,-21.763123,-70.329004,6.621990
47853,,9.973683,-0.635922,1.313925,-0.005507,-0.731667,-1.959820,-19.011391,-71.162484,3.721059
47854,,10.045334,-0.464716,1.276656,-0.050690,-0.770829,-2.003344,-16.153575,-71.928442,0.677044
47855,,10.019112,-0.250092,1.584604,-0.086006,-0.787040,-2.046466,-12.812959,-72.703710,-2.864544
47856,,9.992679,0.089535,1.943291,-0.157287,-0.777191,-2.084564,-9.332823,-73.368121,-6.597819
47857,,10.056740,0.275754,2.233668,-0.249761,-0.741552,-2.086477,-5.402214,-73.981374,-10.826523
47858,,10.101366,0.493668,2.512716,-0.382604,-0.706925,-2.070355,-1.510286,-74.454894,-15.099300
47859,,10.196984,0.534467,2.446977,-0.550912,-0.682908,-2.031517,2.670923,-74.863016,-19.746168
47860,,10.361056,0.433172,2.161445,-0.704375,-0.677815,-1.995616,6.648284,-75.154545,-24.282057
47861,,10.556869,0.199208,1.888023,-0.795899,-0.683558,-1.964839,10.908881,-75.387639,-29.142987
47862,,10.830080,-0.084992,1.707227,-0.848149,-0.675075,-1.932145,14.919817,-75.514218,-33.789453
47863,,10.823047,-0.234119,1.590564,-0.840330,-0.655346,-1.902302,19.163215,-75.562008,-38.653618
47864,,10.730794,-0.266892,1.625078,-0.810792,-0.633166,-1.883920,23.113062,-75.507796,-43.213133
47865,,10.613832,-0.120023,1.918338,-0.771196,-0.603654,-1.867647,27.208208,-75.366018,-47.886208
47866,,10.297647,0.136720,2.273930,-0.737350,-0.583034,-1.831791,30.890997,-75.144882,-52.131869
47867,,10.315553,0.122448,2.380176,-0.719041,-0.550154,-1.764249,34.506929,-74.856915,-56.288070
47868,,10.355099,0.031492,2.310495,-0.682773,-0.519208,-1.664298,37.573619,-74.532816,-59.873751
47869,,10.359632,-0.019370,2.029376,-0.630631,-0.481925,-1.564860,40.506300,-74.170383,-63.281682
47870,,10.366602,-0.051894,1.992073,-0.588471,-0.446900,-1.467133,42.947904,-73.798406,-66.173336
47871,,10.255929,0.045297,2.054784,-0.583673,-0.435288,-1.373678,45.282730,-73.415487,-68.943791
47872,,10.405332,0.109976,1.897017,-0.549314,-0.415723,-1.277365,47.217168,-73.047982,-71.293538
47873,,10.419316,0.212277,2.036097,-0.541562,-0.359595,-1.187199,49.009863,-72.664845,-73.483391
47874,,10.315395,0.310246,2.064121,-0.542845,-0.315393,-1.078138,50.399450,-72.307070,-75.267380
47875,,10.343958,0.417546,2.189889,-0.547242,-0.261276,-0.968836,51.642549,-71.956389,-76.892973
47876,,10.398887,0.388834,2.307957,-0.604598,-0.198528,-0.859865,52.487423,-71.634297,-78.147746
47877,,10.214078,0.398731,2.345590,-0.643540,-0.132203,-0.745790,53.164225,-71.327968,-79.241448
47878,,9.890094,0.335360,2.425733,-0.686397,-0.075719,-0.635301,53.508785,-71.058457,-80.021624
47879,,9.639124,0.175978,2.328509,-0.703477,-0.020617,-0.522188,53.725514,-70.815208,-80.669581
47880,,9.460023,0.061310,2.303740,-0.708123,0.032543,-0.419827,53.681196,-70.606874,-81.053212
47881,,9.358247,-0.040697,2.286177,-0.677826,0.072029,-0.302143,53.553984,-70.436454,-81.323613
47882,,9.333162,-0.081502,2.289729,-0.636227,0.125896,-0.199889,53.216258,-70.298072,-81.352805
47883,,9.378756,-0.097482,2.443962,-0.605669,0.205443,-0.086806,52.743210,-70.184110,-81.213530
47884,,9.274181,-0.041223,2.575622,-0.584253,0.245999,0.032357,52.065689,-70.109367,-80.849836
47885,,9.522578,0.032935,2.698554,-0.570202,0.293576,0.175335,51.242683,-70.083478,-80.317975
47886,,9.605637,0.097019,2.728509,-0.597328,0.366266,0.309796,50.140086,-70.084421,-79.509992
47887,,9.639669,-0.066017,2.554173,-0.613297,0.450925,0.422464,48.840799,-70.103059,-78.499198
47888,,9.494948,-0.333887,2.525119,-0.579000,0.510792,0.536023,47.338153,-70.132660,-77.254823
47889,,9.409580,-0.457294,2.578951,-0.515926,0.529407,0.652494,45.736779,-70.200727,-75.865408
47890,,9.607273,-0.460775,2.852387,-0.479606,0.574769,0.774245,43.939178,-70.276538,-74.248064
47891,,9.838944,-0.583754,2.976895,-0.445973,0.625710,0.918255,41.928427,-70.380350,-72.384225
47892,,9.913450,-0.625962,3.138950,-0.398275,0.699291,1.029917,39.708136,-70.459417,-70.270637
47893,,9.951859,-0.720630,3.276958,-0.365613,0.746931,1.145968,37.286652,-70.542972,-67.925846
47894,,10.080459,-0.732625,3.508616,-0.317523,0.802615,1.250698,34.695915,-70.588604,-65.372296
47895,,9.936852,-0.685131,3.796815,-0.324047,0.831692,1.364430,31.887375,-70.629971,-62.595174
47896,,10.104846,-0.751949,3.531490,-0.295149,0.856741,1.484756,28.925589,-70.633836,-59.635797
47897,,10.160318,-0.835529,3.516693,-0.293897,0.903062,1.583620,25.753539,-70.600999,-56.456781
47898,,10.228592,-1.099885,3.465213,-0.295976,0.953660,1.687360,22.455559,-70.493804,-53.139858
47899,,10.292959,-1.160757,3.747900,-0.304233,1.016547,1.789101,18.959185,-70.320441,-49.620320
47900,,10.198851,-1.289219,3.805045,-0.342992,1.036603,1.904979,15.382634,-70.072033,-46.028737
47901,,10.371224,-1.406275,3.715562,-0.360691,1.078070,2.002004,11.671939,-69.746544,-42.305996
47902,,10.372400,-1.550818,3.794851,-0.392047,1.179461,2.083477,7.993740,-69.281479,-38.620234
47903,,10.193946,-1.776393,4.065197,-0.385314,1.252753,2.155895,4.308132,-68.704188,-34.918696
47904,,9.976944,-1.845438,4.220034,-0.393996,1.252530,2.229842,0.786898,-68.041152,-31.374646
47905,,10.168548,-1.802892,4.034790,-0.365147,1.296687,2.315627,-2.689403,-67.276766,-27.854116
47906,,10.236409,-1.732940,4.268597,-0.391392,1.372662,2.393107,-5.965419,-66.386408,-24.535700
47907,,10.294218,-2.012188,4.524293,-0.462355,1.429158,2.496066,-9.222727,-65.382998,-21.270459
47908,,10.264976,-2.254157,4.517305,-0.536227,1.465410,2.589574,-12.293957,-64.278781,-18.217628
47909,,10.012377,-2.345650,4.478372,-0.586946,1.483655,2.649725,-15.265283,-63.085774,-15.292829
47910,,10.028621,-2.491635,4.442409,-0.587834,1.473300,2.716413,-17.994132,-61.829447,-12.596184
47911,,9.891616,-2.461452,4.650981,-0.679397,1.482013,2.749228,-20.631622,-60.499069,-10.046328
47912,,9.736938,-2.704938,4.668712,-0.753214,1.453492,2.762906,-23.052822,-59.135337,-7.745792
47913,,9.704607,-2.862373,4.544304,-0.750468,1.444436,2.777037,-25.344969,-57.718553,-5.578203
47914,,9.377995,-3.058203,4.495486,-0.765394,1.450624,2.771638,-27.401668,-56.267010,-3.649769
47915,,9.219831,-3.173957,4.667451,-0.761892,1.443481,2.776145,-29.351330,-54.772907,-1.833948
47916,,9.122380,-3.328461,4.856981,-0.783574,1.452180,2.772383,-31.110001,-53.253030,-0.216491
47917,,8.675469,-3.466914,4.942551,-0.750628,1.405532,2.753147,-32.771943,-51.724265,1.315036
47918,,8.698078,-3.581925,4.940637,-0.661550,1.341169,2.724244,-34.230516,-50.220921,2.703490
47919,,8.460429,-3.521040,5.038872,-0.627966,1.304996,2.686160,-35.604678,-48.715918,4.015098
47920,,8.364343,-3.472343,5.017930,-0.574483,1.242647,2.652007,-36.824942,-47.242870,5.213384
47921,,8.165538,-3.043283,5.267672,-0.629348,1.204509,2.603367,-38.027074,-45.777873,6.349081
47922,,7.891162,-3.226892,5.149340,-0.708728,1.168772,2.525433,-39.145855,-44.351214,7.354624
47923,,7.687677,-3.679917,5.102268,-0.735095,1.145142,2.439899,-40.224214,-42.944322,8.281977
47924,,7.362021,-4.028308,4.985346,-0.745149,1.121429,2.363122,-41.200862,-41.573517,9.098117
47925,,7.169164,-4.323300,5.089283,-0.666942,1.092230,2.296454,-42.102027,-40.223343,9.865078
47926,,6.893309,-4.393811,5.143348,-0.614387,1.047581,2.239584,-42.898975,-38.913366,10.562211
47927,,6.660894,-4.525708,5.080533,-0.515993,0.998503,2.185671,-43.630182,-37.631378,11.238410
47928,,6.489282,-4.612036,5.060190,-0.425593,0.932961,2.120559,-44.252475,-36.402903,11.865591
47929,,6.168174,-4.596827,5.118693,-0.401783,0.871874,2.047337,-44.856447,-35.217890,12.476186
47930,,6.169703,-4.677300,5.017233,-0.353335,0.811984,1.958481,-45.377096,-34.094102,13.034276
47931,,6.050350,-4.516606,5.117283,-0.332431,0.800821,1.882932,-45.872168,-32.997146,13.556282
47932,,5.758801,-4.508963,5.049598,-0.370266,0.777505,1.796187,-46.333000,-31.946322,14.017907
47933,,5.542358,-4.656369,5.029123,-0.392579,0.755348,1.705753,-46.796615,-30.935508,14.445681
47934,,5.150312,-4.728978,4.947520,-0.371968,0.716835,1.613309,-47.202835,-29.979048,14.824951
47935,,4.921702,-4.773263,4.909580,-0.322198,0.662538,1.521189,-47.581933,-29.078152,15.189144
47936,,4.769616,-4.777126,4.899465,-0.311031,0.610653,1.436656,-47.920214,-28.233307,15.521175
47937,,4.702686,-4.874291,4.827401,-0.287735,0.552766,1.345092,-48.249769,-27.446776,15.842924
47938,,4.631631,-5.025817,4.847158,-0.238366,0.513050,1.245664,-48.515630,-26.717716,16.125035
47939,,4.519985,-5.119006,4.792114,-0.190944,0.474224,1.155225,-48.757047,-26.040919,16.390792
47940,,4.369691,-5.138795,4.799801,-0.137042,0.436090,1.052691,-48.935571,-25.422115,16.619167
47941,,4.198691,-5.113347,4.768817,-0.091053,0.388119,0.940033,-49.090150,-24.870163,16.828408
47942,,4.051453,-5.154354,4.779265,-0.038796,0.330487,0.833329,-49.189385,-24.384952,17.011139
47943,,3.912278,-5.130619,4.749293,0.008471,0.278351,0.734404,-49.268252,-23.963394,17.183784
47944,,3.864349,-5.243521,4.786182,0.048522,0.225031,0.633003,-49.301174,-23.604174,17.332213
47945,,3.822295,-5.288242,4.851371,0.069821,0.175621,0.548923,-49.330895,-23.302005,17.475877
47946,,3.869028,-5.480365,4.914471,0.081413,0.120654,0.467692,-49.336140,-23.053485,17.605512
47947,,4.076926,-5.465878,5.062599,0.027598,0.078433,0.409275,-49.383820,-22.848811,17.737308
47948,,3.801227,-5.482294,4.989933,-0.030722,0.040225,0.346007,-49.447816,-22.683050,17.854942
47949,,3.871615,-5.444638,4.916417,-0.022179,-0.025533,0.271997,-49.519968,-22.577316,17.979291
47950,,3.916498,-5.573790,4.838946,-0.028342,-0.080111,0.191181,-49.579860,-22.523539,18.090828
47951,,3.997315,-5.649429,4.772387,-0.022424,-0.128740,0.105489,-49.644364,-22.529244,18.196419
47952,,3.834848,-5.591003,4.721955,0.000911,-0.176195,0.009806,-49.676968,-22.590120,18.280462
47953,,3.707855,-5.466942,4.787932,0.039258,-0.230337,-0.092333,-49.694005,-22.720510,18.354679
47954,,3.604430,-5.263988,4.899042,0.049002,-0.272303,-0.201853,-49.684146,-22.909450,18.399366
47955,,3.520145,-5.175613,4.934041,0.036595,-0.305287,-0.293949,-49.684824,-23.156192,18.427974
47956,,3.538333,-5.163601,5.010762,0.016457,-0.337531,-0.380607,-49.677754,-23.447415,18.431682
47957,,3.659104,-5.297189,5.030778,-0.005809,-0.369895,-0.449319,-49.689411,-23.786317,18.428097
47958,,3.828785,-5.429292,5.047582,-0.034787,-0.404672,-0.512437,-49.703114,-24.160033,18.410558
47959,,4.032974,-5.605581,4.995246,-0.063513,-0.441258,-0.570598,-49.740967,-24.578749,18.391922
47960,,4.300807,-5.764448,4.987715,-0.105584,-0.487386,-0.626404,-49.792404,-25.032951,18.368180
47961,,4.377212,-5.800216,4.876945,-0.146469,-0.535181,-0.675228,-49.878579,-25.532767,18.352959
47962,,4.417804,-5.764829,4.860163,-0.148207,-0.596743,-0.746476,-49.956326,-26.080014,18.334408
47963,,4.478375,-5.685893,4.837026,-0.139502,-0.651901,-0.823964,-50.036838,-26.688732,18.316649
47964,,4.417666,-5.541240,4.878312,-0.157258,-0.697154,-0.895729,-50.114627,-27.338537,18.287533
47965,,4.461417,-5.443418,4.902579,-0.166925,-0.728436,-0.970421,-50.200342,-28.040338,18.248760
47966,,4.549909,-5.378217,4.840180,-0.167109,-0.762332,-1.031935,-50.272494,-28.774097,18.197242
47967,,4.727357,-5.336168,4.755714,-0.195150,-0.807548,-1.091767,-50.368469,-29.558871,18.149190
47968,,5.065334,-5.253071,4.723319,-0.235699,-0.847111,-1.161319,-50.474028,-30.380870,18.088321
47969,,5.185090,-5.287327,4.602781,-0.268796,-0.868904,-1.237009,-50.596406,-31.253009,18.012746
47970,,5.224647,-5.259394,4.549026,-0.283968,-0.889168,-1.322179,-50.704905,-32.161774,17.907861
47971,,5.422451,-5.189024,4.513672,-0.299951,-0.900626,-1.391600,-50.817121,-33.114949,17.784930
47972,,5.614194,-5.087080,4.420762,-0.334721,-0.907946,-1.438133,-50.930599,-34.082397,17.641755
47973,,5.869698,-5.020003,4.338208,-0.377107,-0.907061,-1.488268,-51.062059,-35.082107,17.481748
47974,,6.245656,-4.964379,4.276085,-0.398226,-0.866724,-1.546516,-51.167705,-36.083575,17.269591
47975,,6.459316,-4.992671,4.286682,-0.436286,-0.807217,-1.590221,-51.268121,-37.094503,17.009007
47976,,6.408580,-5.118450,4.314451,-0.505976,-0.776568,-1.621009,-51.377317,-38.097646,16.711283
47977,,6.322565,-5.213045,4.185969,-0.539071,-0.795924,-1.637413,-51.509930,-39.127461,16.420297
47978,,6.518081,-5.266273,4.121214,-0.549543,-0.847716,-1.643665,-51.653806,-40.167180,16.150846
47979,,6.970691,-5.549291,4.081562,-0.554660,-0.875391,-1.644464,-51.814102,-41.230065,15.901567
47980,,7.306176,-5.871498,4.157375,-0.571242,-0.840247,-1.669220,-51.950937,-42.279756,15.614154
47981,,7.387619,-6.184849,4.391599,-0.509781,-0.807112,-1.710258,-52.027253,-43.349595,15.289436
47982,,7.498087,-6.249653,4.424495,-0.329936,-0.803581,-1.752530,-51.968846,-44.424417,14.931142
47983,,7.865311,-6.118152,4.345015,-0.163717,-0.828487,-1.775976,-51.814229,-45.530998,14.572916
47984,,8.109845,-5.746543,4.188718,-0.084606,-0.841913,-1.799902,-51.590123,-46.639406,14.193230
47985,,8.252905,-5.417479,4.087701,-0.016963,-0.862325,-1.846076,-51.311099,-47.787642,13.793508
47986,,8.492889,-5.095300,4.162650,0.032359,-0.859593,-1.888222,-50.958087,-48.939166,13.344734
47987,,8.700106,-5.008512,4.151347,0.021051,-0.846021,-1.928274,-50.572733,-50.115060,12.848381
47988,,8.773995,-4.931730,4.272577,-0.015988,-0.823275,-1.941192,-50.156537,-51.272598,12.297461
47989,,8.851487,-4.991828,4.209753,-0.000405,-0.805387,-1.933251,-49.703596,-52.431210,11.716269
47990,,8.958308,-4.806621,4.144093,0.050283,-0.777080,-1.927724,-49.167821,-53.559890,11.080280
47991,,9.100589,-4.636012,3.897720,0.090507,-0.735393,-1.938292,-48.548863,-54.687447,10.376076
47992,,9.342204,-4.516959,3.634468,0.120650,-0.719644,-1.940210,-47.851957,-55.791040,9.610801
47993,,9.600116,-4.351380,3.521370,0.121238,-0.722053,-1.923383,-47.126073,-56.897169,8.818335
47994,,9.648788,-3.974386,3.397845,0.113330,-0.747398,-1.929945,-46.359296,-57.995947,7.984574
47995,,9.570394,-3.588721,3.352573,0.070829,-0.764633,-1.960085,-45.560459,-59.122462,7.092371
47996,,9.583869,-3.526781,3.422454,-0.014810,-0.756141,-1.963568,-44.733775,-60.225546,6.123735
47997,,9.439676,-3.616681,3.406679,-0.075522,-0.731597,-1.933293,-43.886397,-61.314327,5.100142
47998,,9.068230,-3.795088,3.448125,-0.124166,-0.676130,-1.901409,-42.973348,-62.344518,3.982653
47999,,9.067975,-4.042170,3.296542,-0.116454,-0.660974,-1.845004,-42.020941,-63.352698,2.834700
48000,,9.313842,-4.204630,3.124335,-0.033199,-0.666380,-1.798573,-40.979290,-64.321342,1.651912
48001,,9.533595,-4.164487,2.882829,0.073306,-0.645086,-1.786862,-39.791017,-65.280309,0.382648
48002,,9.705760,-4.007998,2.752477,0.174297,-0.619180,-1.798682,-38.407755,-66.205350,-1.026047
48003,,9.500231,-3.729960,2.989866,0.260421,-0.602258,-1.811609,-36.844305,-67.125866,-2.568582
48004,,9.248382,-3.552967,3.170054,0.316487,-0.579317,-1.792120,-35.117527,-67.997408,-4.241608
48005,,9.311383,-3.484713,2.967645,0.334440,-0.568007,-1.712854,-33.341292,-68.831227,-5.947852
48006,,9.514772,-3.370671,2.879597,0.354491,-0.533613,-1.634071,-31.481845,-69.590699,-7.720537
48007,,9.439553,-3.284191,2.953583,0.325736,-0.497781,-1.572374,-29.570448,-70.305868,-9.558562
48008,,9.607194,-3.327455,2.976991,0.285588,-0.500890,-1.504822,-27.637271,-70.969987,-11.435195
48009,,9.748272,-3.177931,3.134154,0.205823,-0.474911,-1.436464,-25.715453,-71.593644,-13.341676
48010,,9.687425,-3.159368,3.120328,0.136463,-0.428160,-1.355232,-23.790898,-72.140762,-15.285545
48011,,9.795218,-3.464116,3.084079,0.066668,-0.374577,-1.239243,-21.963480,-72.624575,-17.164591
48012,,9.889796,-3.902999,3.063646,0.007201,-0.303992,-1.076483,-20.294966,-73.008414,-18.907779
48013,,9.656893,-4.350868,2.966708,-0.008902,-0.222505,-0.929153,-18.796339,-73.315595,-20.480736
48014,,9.404712,-4.568202,2.867845,0.077172,-0.173301,-0.794685,-17.393898,-73.550301,-21.898841
48015,,9.386479,-4.573128,2.967132,0.195111,-0.159118,-0.650835,-16.176523,-73.752966,-23.053158
48016,,9.588443,-4.393930,2.976477,0.265809,-0.111085,-0.506993,-15.112199,-73.891388,-24.003855
48017,,9.640620,-4.348674,2.824965,0.327057,-0.044640,-0.355145,-14.295631,-73.974241,-24.661100
48018,,9.749034,-4.342290,2.740482,0.372697,0.004348,-0.178680,-13.727077,-73.995346,-25.031529
48019,,9.793648,-4.599537,2.664609,0.426841,0.035054,0.016998,-13.540795,-73.978939,-24.973797
48020,,9.729775,-4.915212,2.358599,0.507802,0.055660,0.228632,-13.659568,-73.915861,-24.548541
48021,,9.563376,-5.120787,2.131597,0.609498,0.052618,0.429163,-14.164125,-73.831647,-23.663246
48022,,9.360283,-5.319858,1.989294,0.736043,0.043740,0.583974,-14.827622,-73.722385,-22.534130
48023,,9.080536,-5.159479,2.061651,0.912157,0.025828,0.676628,-15.633927,-73.608866,-21.153413
48024,,8.941716,-4.629838,2.441659,1.071382,0.008709,0.728382,-16.367509,-73.487837,-19.749579
48025,,9.006277,-4.036471,2.753632,1.177880,-0.002784,0.783437,-17.214023,-73.360193,-18.166946
48026,,9.239954,-3.723410,2.612617,1.292776,-0.015010,0.849441,-18.020919,-73.219941,-16.552256
48027,,9.609608,-3.550630,2.290697,1.424587,-0.017367,0.952208,-19.003645,-73.054233,-14.677644
48028,,9.852472,-3.394183,2.160976,1.521957,0.011040,1.051531,-19.970714,-72.846185,-12.755182
48029,,9.905630,-3.180573,2.320096,1.562420,0.041751,1.124832,-21.073716,-72.593783,-10.668132
48030,,9.990555,-2.929017,2.545351,1.537373,0.055225,1.196596,-22.165861,-72.310714,-8.600039
48031,,9.982457,-2.805047,2.608048,1.481527,0.057177,1.257629,-23.425701,-71.995020,-6.390739
48032,,9.935276,-2.840736,2.465277,1.451185,0.070338,1.298743,-24.609154,-71.654354,-4.271230
48033,,9.947815,-2.745457,2.404425,1.438885,0.096243,1.342528,-25.872160,-71.267942,-2.075910
48034,,9.943717,-2.801219,2.445003,1.445638,0.148074,1.399370,-27.019623,-70.833981,0.011795
48035,,9.915013,-2.913815,2.578487,1.433826,0.199220,1.460773,-28.231036,-70.334247,2.160554
48036,,9.866187,-2.901280,2.690465,1.425603,0.230637,1.512962,-29.329206,-69.800206,4.196278
48037,,9.878910,-2.953720,2.825389,1.383383,0.262833,1.543143,-30.461428,-69.216494,6.243940
48038,,9.875632,-2.829693,2.950981,1.358978,0.295106,1.568839,-31.451904,-68.608312,8.138714
48039,,9.858838,-2.766739,3.106666,1.292227,0.335663,1.600197,-32.477550,-67.945516,10.032107
48040,,9.804938,-2.945103,3.182221,1.219012,0.369062,1.620431,-33.387237,-67.262536,11.770074
48041,,9.732828,-3.100746,3.012903,1.193653,0.387188,1.632212,-34.298340,-66.541669,13.496016
48042,,9.640338,-3.108363,2.946875,1.201195,0.402731,1.620420,-35.039132,-65.823061,15.056688
48043,,9.444180,-2.890742,2.901806,1.229987,0.416077,1.611629,-35.738714,-65.077010,16.591979
48044,,9.265772,-2.679423,2.769465,1.267670,0.397312,1.598455,-36.294146,-64.353673,18.008120
48045,,9.300536,-2.619504,2.657175,1.304568,0.369051,1.571639,-36.824754,-63.629871,19.421140
48046,,9.381082,-2.556221,2.768874,1.307722,0.350802,1.533893,-37.226398,-62.939527,20.708140
48047,,9.446463,-2.106536,3.148254,1.222058,0.348508,1.498663,-37.656351,-62.241276,21.971694
48048,,9.345721,-1.872073,3.184962,1.080628,0.344233,1.455717,-38.041878,-61.573123,23.109054
48049,,9.071224,-1.589462,3.146230,0.929640,0.353836,1.403085,-38.475290,-60.898778,24.201352
48050,,8.674432,-1.580186,3.009757,0.785417,0.348081,1.336756,-38.862610,-60.263881,25.161102
48051,,8.535678,-1.651056,3.026833,0.679172,0.307014,1.256869,-39.288912,-59.656744,26.093193
48052,,8.541756,-1.644291,3.080911,0.553907,0.258573,1.188655,-39.698483,-59.108653,26.936318
48053,,8.633027,-1.677084,3.049141,0.442774,0.233607,1.119552,-40.153175,-58.578536,27.754159
48054,,8.720918,-1.475461,3.084746,0.319042,0.236335,1.058144,-40.575336,-58.082104,28.463354
48055,,8.673057,-1.633417,3.119309,0.185314,0.253782,0.991080,-41.035140,-57.586367,29.121986
48056,,8.717652,-1.875370,3.215982,0.080382,0.264343,0.937783,-41.462204,-57.117635,29.682236
48057,,8.496676,-2.093365,3.278882,-0.010769,0.268058,0.888540,-41.925447,-56.651036,30.217934
48058,,8.327874,-2.475658,3.334421,-0.087737,0.249523,0.845508,-42.371054,-56.219375,30.690694
48059,,8.281186,-2.780965,3.455421,-0.149638,0.218542,0.797619,-42.858695,-55.805546,31.165314
48060,,8.249957,-2.903084,3.557708,-0.186957,0.202095,0.761339,-43.314496,-55.422437,31.586110
48061,,8.184144,-3.132347,3.559976,-0.210263,0.192855,0.720028,-43.783280,-55.046603,31.999927
48062,,8.122836,-3.280894,3.625334,-0.194420,0.183487,0.678504,-44.187365,-54.700433,32.356035
48063,,8.114301,-3.395764,3.649729,-0.197022,0.186686,0.646905,-44.592915,-54.353810,32.705113
48064,,8.051938,-3.538511,3.713974,-0.218655,0.194558,0.615973,-44.955602,-54.025569,32.996073
48065,,8.010512,-3.685706,3.728735,-0.224986,0.215531,0.594150,-45.318376,-53.686797,33.275272
48066,,7.990297,-3.876758,3.711965,-0.235980,0.233216,0.586886,-45.642671,-53.352825,33.508616
48067,,8.008103,-4.033329,3.805152,-0.243306,0.239024,0.580655,-45.984747,-53.008877,33.751209
48068,,8.050938,-4.147848,3.783713,-0.248778,0.240330,0.557431,-46.287517,-52.682671,33.950391
48069,,8.077972,-4.277675,3.757568,-0.216178,0.237579,0.523923,-46.576054,-52.361803,34.147108
48070,,8.149064,-4.116648,3.895752,-0.160901,0.217959,0.489643,-46.798562,-52.071497,34.310107
48071,,8.164471,-3.784232,3.888978,-0.132529,0.200658,0.444943,-47.012612,-51.797696,34.474544
48072,,8.190411,-3.548711,3.861655,-0.132516,0.181996,0.387627,-47.182563,-51.563516,34.592463
48073,,8.160154,-3.552037,3.801476,-0.132700,0.165882,0.339017,-47.358364,-51.348043,34.709038
48074,,8.102305,-3.726194,3.725032,-0.132738,0.150397,0.303962,-47.501597,-51.160984,34.793220
48075,,8.099941,-3.814791,3.771176,-0.110069,0.142232,0.278475,-47.644606,-50.980827,34.885003
48076,,8.013120,-3.918741,3.804091,-0.097707,0.134564,0.253769,-47.750351,-50.820893,34.947146
48077,,7.982020,-3.958252,3.805922,-0.062048,0.126615,0.231413,-47.849632,-50.667323,35.018454
48078,,7.965396,-3.876373,3.835176,-0.053528,0.129463,0.200621,-47.906752,-50.531807,35.050679
48079,,7.866109,-3.842806,3.844090,-0.050090,0.125343,0.167123,-47.968480,-50.406735,35.082520
48080,,7.931575,-3.807297,3.795530,-0.048012,0.112085,0.136119,-48.001036,-50.305299,35.087046
48081,,8.067255,-3.769973,3.754130,-0.064037,0.103674,0.115369,-48.057043,-50.211342,35.101255
48082,,8.225957,-3.776912,3.678828,-0.086209,0.085401,0.081505,-48.099874,-50.143397,35.090659
48083,,8.251323,-3.941784,3.425511,-0.082182,0.071143,0.052353,-48.153310,-50.089759,35.088060
48084,,8.111326,-3.888501,3.550190,-0.059802,0.058474,0.016916,-48.165200,-50.059684,35.056816
48085,,8.178293,-3.633811,3.843401,-0.082329,0.065219,-0.018275,-48.189255,-50.039527,35.015713
48086,,8.239973,-3.587305,4.039867,-0.142051,0.084481,-0.051373,-48.203945,-50.028699,34.926601
48087,,8.261021,-3.609696,4.140775,-0.186217,0.107809,-0.074222,-48.239568,-50.017235,34.823131
48088,,8.201792,-3.662791,4.047975,-0.225678,0.108092,-0.096906,-48.269485,-50.016925,34.691323
48089,,8.223282,-3.716842,3.735983,-0.231924,0.097599,-0.122010,-48.313863,-50.030842,34.565403
48090,,8.199072,-3.720965,3.528108,-0.202714,0.072863,-0.156204,-48.321561,-50.069426,34.421823
48091,,8.243647,-3.652130,3.343778,-0.167064,0.060559,-0.205340,-48.309021,-50.134235,34.270378
48092,,8.186899,-3.341680,3.277711,-0.134007,0.053114,-0.264408,-48.237474,-50.226555,34.075139
48093,,8.136549,-3.087392,3.173278,-0.138365,0.045647,-0.332731,-48.156254,-50.352550,33.856224
48094,,8.123126,-2.889171,3.336151,-0.183354,0.033603,-0.394424,-48.061234,-50.507438,33.594549
48095,,8.137134,-2.761425,3.432397,-0.279701,0.027929,-0.456502,-48.009438,-50.694007,33.310066
48096,,8.054759,-2.549828,3.457853,-0.370051,0.010553,-0.527756,-47.967647,-50.914157,32.980436
48097,,8.143064,-2.392489,3.386878,-0.428823,-0.006610,-0.597570,-47.947581,-51.175220,32.629048
48098,,8.308540,-2.188237,3.385245,-0.482913,-0.011867,-0.681346,-47.903657,-51.469085,32.216242
48099,,8.436467,-2.022853,3.417458,-0.535207,-0.027646,-0.785126,-47.857008,-51.819286,31.756622
48100,,8.478801,-1.815402,3.294522,-0.580427,-0.055194,-0.905340,-47.773225,-52.224438,31.226328
48101,,8.653391,-1.720734,3.278891,-0.617270,-0.078504,-1.042130,-47.658893,-52.704201,30.627736
48102,,8.769097,-1.866238,3.183483,-0.630170,-0.086162,-1.170488,-47.468211,-53.232034,29.934507
48103,,8.790602,-2.155092,3.284841,-0.594325,-0.085995,-1.267691,-47.201885,-53.809227,29.172078
48104,,8.924210,-2.474353,3.433159,-0.543468,-0.091335,-1.325182,-46.850791,-54.400021,28.352241
48105,,8.982627,-2.757034,3.681321,-0.531320,-0.091087,-1.352756,-46.465700,-55.010784,27.500379
48106,,9.022898,-2.941947,3.645245,-0.534013,-0.103756,-1.361666,-46.054007,-55.615147,26.625579
48107,,9.050563,-3.076675,3.438672,-0.497579,-0.133595,-1.380471,-45.612244,-56.248126,25.741663
48108,,9.113076,-3.035983,3.234084,-0.415003,-0.183382,-1.422844,-45.094863,-56.901569,24.834860
48109,,9.208925,-2.855613,3.045966,-0.307543,-0.247440,-1.491100,-44.489310,-57.617290,23.899403
48110,,9.358092,-2.502490,2.911935,-0.231100,-0.310287,-1.578080,-43.780957,-58.374123,22.905991
48111,,9.498663,-2.149787,2.821523,-0.182414,-0.349643,-1.682230,-42.960917,-59.195953,21.819284
48112,,9.624709,-2.043158,2.951070,-0.165390,-0.343868,-1.786711,-41.994280,-60.032205,20.586966
48113,,9.835473,-2.242383,2.977104,-0.163120,-0.290828,-1.856899,-40.877761,-60.876813,19.190980
48114,,9.662382,-2.579681,3.177513,-0.148855,-0.212456,-1.883359,-39.602919,-61.666449,17.638064
48115,,9.394153,-2.723916,3.423317,-0.133668,-0.202560,-1.888826,-38.229751,-62.452996,15.992371
48116,,9.373063,-2.614461,3.453676,-0.145707,-0.234547,-1.879135,-36.807700,-63.214911,14.298328
48117,,9.538473,-2.455693,3.291294,-0.197138,-0.289371,-1.877659,-35.363508,-63.999048,12.555857
48118,,9.746721,-2.441904,2.991480,-0.249954,-0.328749,-1.901436,-33.858521,-64.772479,10.726221
48119,,9.828160,-2.443826,2.782657,-0.254556,-0.360371,-1.945379,-32.223718,-65.569962,8.760532
48120,,9.917958,-2.450672,2.930620,-0.247911,-0.348204,-1.998033,-30.405026,-66.334989,6.611680
48121,,9.996987,-2.500308,3.245660,-0.271078,-0.289056,-2.047884,-28.367409,-67.071810,4.220748
48122,,10.075913,-2.734914,3.472136,-0.264103,-0.216181,-2.051689,-26.143460,-67.719839,1.646098
48123,,10.038064,-3.006294,3.646973,-0.209133,-0.131066,-2.042751,-23.702870,-68.297360,-1.118130
48124,,9.969011,-3.228583,3.643334,-0.117421,-0.079147,-1.998564,-21.120012,-68.775347,-3.967470
48125,,9.952166,-3.317487,3.511154,0.004119,-0.063638,-1.927483,-18.431796,-69.198361,-6.847223
48126,,9.988326,-3.184646,3.304794,0.136908,-0.082817,-1.857587,-15.684991,-69.555319,-9.700017
48127,,9.999354,-3.001204,3.042402,0.270083,-0.124636,-1.803305,-12.854469,-69.893156,-12.554898
48128,,10.035233,-2.572259,2.890167,0.387405,-0.168345,-1.756473,-9.967251,-70.186091,-15.392218
48129,,10.063163,-2.058808,2.789136,0.438414,-0.209495,-1.720449,-7.026094,-70.463751,-18.251160
48130,,10.079409,-1.709160,2.601049,0.421281,-0.229856,-1.691084,-4.084628,-70.687813,-21.115945
48131,,9.950181,-1.429425,2.559150,0.368538,-0.238963,-1.673342,-1.129443,-70.881181,-24.023859
48132,,9.582187,-1.201352,2.660807,0.296707,-0.237427,-1.650022,1.781282,-71.010922,-26.925193
48133,,9.334660,-1.073654,2.691961,0.203582,-0.249970,-1.618144,4.634626,-71.114730,-29.820241
48134,,9.260604,-1.068970,2.532564,0.110163,-0.266494,-1.563737,7.354464,-71.172018,-32.629395
48135,,9.376247,-1.190086,2.384038,0.043183,-0.279572,-1.491316,9.946682,-71.214199,-35.343203
48136,,9.447372,-1.260813,2.336526,0.012735,-0.287825,-1.412179,12.382541,-71.218262,-37.910174
48137,,9.531309,-1.176850,2.257978,-0.000708,-0.307885,-1.335382,14.707256,-71.222857,-40.367405
48138,,9.503848,-1.123474,2.136819,-0.031447,-0.324678,-1.251226,16.866561,-71.205730,-42.669051
48139,,9.364542,-1.074592,1.957138,-0.037564,-0.359065,-1.168552,18.918437,-71.208321,-44.860462
48140,,9.222857,-0.932732,1.859031,-0.038444,-0.400650,-1.090423,20.852820,-71.210565,-46.928845
48141,,9.079981,-0.811740,1.884856,-0.035723,-0.440801,-1.015133,22.711583,-71.242232,-48.914814
48142,,9.033577,-0.608007,1.994755,-0.048156,-0.482592,-0.931588,24.452099,-71.280989,-50.783734
48143,,9.007834,-0.491488,2.099710,-0.087799,-0.510773,-0.844916,26.079871,-71.352416,-52.556192
48144,,9.062558,-0.477541,2.235472,-0.143090,-0.522322,-0.749461,27.536536,-71.424731,-54.181613
48145,,9.228198,-0.533655,2.194945,-0.181421,-0.542234,-0.661020,28.880516,-71.533214,-55.709592
48146,,9.363652,-0.535696,2.124733,-0.182969,-0.546667,-0.564645,30.084498,-71.645532,-57.090893
48147,,9.414801,-0.558543,2.121157,-0.168184,-0.554152,-0.472193,31.194661,-71.795037,-58.362470
48148,,9.376515,-0.592225,2.059119,-0.168479,-0.563504,-0.380042,32.181804,-71.954279,-59.504624
48149,,9.391716,-0.541242,2.010978,-0.165535,-0.587217,-0.280436,33.075498,-72.165816,-60.544613
48150,,9.428761,-0.422143,1.952443,-0.189060,-0.607836,-0.184633,33.843846,-72.396947,-61.466853
48151,,9.435047,-0.406513,1.870717,-0.230139,-0.628154,-0.082452,34.487330,-72.683707,-62.280595
48152,,9.468778,-0.431034,1.796234,-0.275963,-0.643374,0.014527,34.986586,-72.990306,-62.970527
48153,,9.458657,-0.544743,1.653218,-0.316555,-0.663971,0.116355,35.356147,-73.355918,-63.547089
48154,,9.446588,-0.668341,1.507312,-0.333435,-0.691217,0.229123,35.580837,-73.753591,-63.982491
48155,,9.480645,-0.853953,1.432226,-0.346595,-0.740216,0.330473,35.711459,-74.225717,-64.326019
48156,,9.368531,-1.095922,1.380740,-0.328910,-0.762801,0.419568,35.738554,-74.719875,-64.551677
48157,,9.369157,-1.112256,1.288741,-0.293478,-0.808498,0.496644,35.718231,-75.280257,-64.705822
48158,,9.413309,-1.080682,1.251915,-0.261550,-0.841749,0.570066,35.629824,-75.861534,-64.771231
48159,,9.457241,-0.792463,1.358993,-0.252699,-0.875879,0.616398,35.499482,-76.494365,-64.787254
48160,,9.808799,-0.536690,1.517133,-0.210282,-0.870476,0.663910,35.288154,-77.120311,-64.695918
48161,,9.652588,-0.537066,1.845523,-0.158184,-0.788009,0.738228,34.797396,-77.752699,-64.287170
48162,,9.239276,-0.347751,2.015936,-0.133481,-0.786632,0.777802,34.190716,-78.375646,-63.747244
48163,,9.575223,-0.078297,2.009630,-0.155779,-0.811128,0.764158,33.561196,-79.025557,-63.197555
48164,,10.021302,0.245527,1.930831,-0.192400,-0.714801,0.731712,32.779045,-79.596900,-62.515781
48165,,10.178067,0.917415,2.212672,-0.231731,-0.598223,0.688483,31.779326,-80.117156,-61.636374
48166,,10.513092,1.586427,2.664540,-0.254414,-0.515974,0.634856,30.708040,-80.557785,-60.699554
48167,,10.857923,2.386769,3.041332,-0.343349,-0.415613,0.559755,29.508378,-80.943501,-59.684799
48168,,11.107464,2.493958,3.219733,-0.420542,-0.299383,0.463698,28.314523,-81.221353,-58.722267
48169,,11.230734,2.357425,3.215302,-0.438199,-0.180983,0.349935,27.181628,-81.423573,-57.831750
48170,,11.167356,2.378370,3.210480,-0.422776,-0.097265,0.233102,26.311789,-81.532739,-57.199182
48171,,11.151995,2.166098,3.061027,-0.349752,-0.009234,0.128637,25.645034,-81.585181,-56.729348
48172,,10.936026,2.031354,2.626777,-0.269488,0.090261,0.045598,25.182777,-81.549011,-56.420192
48173,,10.673041,1.987354,2.080234,-0.225063,0.154213,-0.037029,24.899145,-81.474021,-56.265533
48174,,10.472135,1.651956,1.608791,-0.237380,0.201621,-0.100289,24.787938,-81.344408,-56.292693
48175,,10.260068,1.241546,1.447232,-0.295115,0.236110,-0.132727,24.672456,-81.203068,-56.348759
48176,,10.040918,0.613638,1.164839,-0.365121,0.260372,-0.131403,24.504884,-81.035472,-56.392983
48177,,9.873456,0.098846,1.050031,-0.380278,0.241283,-0.132978,24.338792,-80.891279,-56.447323
48178,,9.748648,-0.327531,0.953373,-0.365185,0.225948,-0.111888,24.162815,-80.746325,-56.483123
48179,,9.546401,-0.542378,0.892171,-0.318091,0.215084,-0.094979,23.951023,-80.625048,-56.455120
48180,,9.386284,-0.533040,0.772882,-0.286402,0.200289,-0.081538,23.765204,-80.500640,-56.435225
48181,,9.329357,-0.429956,0.770572,-0.242939,0.198518,-0.069347,23.542161,-80.394375,-56.352155
48182,,9.428191,-0.413645,0.841842,-0.214505,0.191956,-0.039920,23.286182,-80.283827,-56.219308
48183,,9.781650,-0.667315,0.923025,-0.197288,0.168946,0.013097,22.880691,-80.211976,-55.924572
48184,,10.037154,-1.164641,0.844760,-0.165713,0.186848,0.064449,22.351708,-80.126851,-55.486227
48185,,9.852894,-1.501463,0.832733,-0.070971,0.178966,0.114291,21.706100,-80.071076,-54.874201
48186,,9.688866,-1.534954,0.839565,0.042413,0.121288,0.172046,21.062484,-80.041842,-54.198274
48187,,9.582262,-1.199277,0.881311,0.132285,0.068451,0.228885,20.314284,-80.066706,-53.363836
48188,,9.585569,-0.810513,0.990390,0.179907,0.018035,0.274843,19.550120,-80.110247,-52.485647
48189,,9.584012,-0.527805,1.021743,0.189942,0.000970,0.300080,18.669492,-80.181443,-51.483577
48190,,9.648858,-0.387544,1.104983,0.190840,0.003985,0.317449,17.773705,-80.235758,-50.465802
48191,,9.697378,-0.310936,1.221778,0.196780,0.011305,0.317490,16.802984,-80.298994,-49.368810
48192,,9.597475,-0.209920,1.148937,0.197115,0.027347,0.320471,15.857434,-80.335233,-48.297252
48193,,9.520763,-0.224205,1.156212,0.202427,0.018488,0.323127,14.840224,-80.389134,-47.150237
48194,,9.524724,-0.229595,1.166046,0.242938,-0.001730,0.314219,13.948553,-80.434536,-46.107015
48195,,9.496442,-0.190882,1.149276,0.280826,-0.007313,0.316575,12.994329,-80.495678,-44.978767
48196,,9.516218,-0.041628,1.164319,0.334122,-0.028462,0.317891,12.141932,-80.550952,-43.922754
48197,,9.561697,0.134286,1.236322,0.367785,-0.031546,0.308256,11.256063,-80.618922,-42.813777
48198,,9.585849,0.254323,1.260874,0.386835,-0.029591,0.289622,10.508010,-80.666657,-41.833288
48199,,9.667555,0.239026,1.260493,0.386035,-0.035973,0.269888,9.743012,-80.728163,-40.836644
48200,,9.695084,0.092376,1.220430,0.379396,-0.030753,0.256141,9.088919,-80.769344,-39.955989
48201,,9.783219,0.009393,1.188004,0.386475,-0.036847,0.242996,8.399036,-80.825023,-39.035549
48202,,9.795234,-0.117783,1.106489,0.371294,-0.036305,0.240043,7.784603,-80.864795,-38.200025
48203,,9.748854,-0.039477,1.159740,0.376116,-0.047243,0.235654,7.101627,-80.922472,-37.292914
48204,,9.781314,0.015736,1.147752,0.370110,-0.057660,0.239550,6.482271,-80.971357,-36.453348
48205,,9.772283,0.167544,1.271574,0.379391,-0.061616,0.225216,5.825118,-81.033313,-35.570827
48206,,9.818518,0.182991,1.373924,0.371024,-0.059160,0.208761,5.301445,-81.078521,-34.827863
48207,,9.814116,0.090174,1.447961,0.367653,-0.052928,0.199767,4.710283,-81.131336,-34.019251
48208,,9.749822,0.077582,1.409339,0.372882,-0.047155,0.182534,4.267087,-81.166358,-33.356863
48209,,9.786067,0.077029,1.424727,0.351458,-0.048566,0.156863,3.810659,-81.212634,-32.694211
48210,,9.783739,0.036072,1.354205,0.341578,-0.031923,0.149278,3.459903,-81.236235,-32.143659
48211,,9.723462,0.081415,1.310312,0.344012,-0.027717,0.135789,3.064781,-81.268349,-31.547505
48212,,9.781416,0.205980,1.340991,0.349238,-0.024454,0.126077,2.798132,-81.285984,-31.077699
48213,,9.779957,0.302141,1.433978,0.337688,-0.010678,0.103439,2.513111,-81.306391,-30.596710
48214,,9.820506,0.362298,1.444640,0.313879,0.003252,0.087049,2.365145,-81.306621,-30.267515
48215,,9.882639,0.326673,1.411942,0.292056,0.014763,0.063922,2.198448,-81.310905,-29.932729
48216,,9.863673,0.287731,1.378077,0.270812,0.033097,0.053074,2.148701,-81.293099,-29.727872
48217,,9.803020,0.215803,1.319075,0.249913,0.041093,0.037117,2.056952,-81.281455,-29.493361
48218,,9.642059,0.176449,1.331892,0.244014,0.040649,0.022606,2.105196,-81.258659,-29.403176
48219,,9.633015,0.165287,1.387105,0.208349,0.027105,0.004448,2.115401,-81.254250,-29.295932
48220,,9.731406,-0.010189,1.373525,0.173309,0.025314,-0.004036,2.224199,-81.239698,-29.308013
48221,,9.747029,-0.252709,1.307379,0.144396,0.020826,-0.027448,2.318258,-81.238098,-29.322701
48222,,9.831787,-0.408858,1.250181,0.130872,0.012268,-0.056209,2.597836,-81.229742,-29.532200
48223,,9.919740,-0.572730,1.133563,0.129818,0.000825,-0.081897,2.888380,-81.238048,-29.754149
48224,,9.895770,-0.622866,1.092409,0.134563,-0.015130,-0.096866,3.325931,-81.243763,-30.121356
48225,,9.908704,-0.514415,1.013494,0.137382,-0.033641,-0.108538,3.727290,-81.270455,-30.451016
48226,,9.938705,-0.388016,1.041738,0.130090,-0.049515,-0.109205,4.219287,-81.294508,-30.875873
48227,,9.935616,-0.335457,1.080162,0.101119,-0.053450,-0.093914,4.554433,-81.332534,-31.159508
48228,,9.837534,-0.274257,1.071115,0.076783,-0.057946,-0.070699,4.879052,-81.362399,-31.445898
48229,,9.774856,-0.203709,1.081340,0.059091,-0.063230,-0.053836,5.046604,-81.407665,-31.584320
48230,,9.750362,-0.184270,1.142460,0.054923,-0.065390,-0.044331,5.265395,-81.442826,-31.776309
48231,,9.697404,-0.134494,1.115407,0.059527,-0.065936,-0.036509,5.371313,-81.490493,-31.852115
48232,,9.701335,-0.096698,1.174170,0.072308,-0.064221,-0.034234,5.564048,-81.525403,-32.007662
48233,,9.695281,0.010294,1.179367,0.073246,-0.062951,-0.035944,5.677056,-81.571366,-32.082667
48234,,9.716038,0.022545,1.224089,0.078630,-0.049979,-0.044421,5.909679,-81.597459,-32.274860
48235,,9.706481,0.097156,1.165587,0.066192,-0.047376,-0.053587,6.083763,-81.633399,-32.415667
48236,,9.748213,0.137912,1.186824,0.053073,-0.043754,-0.054334,6.340063,-81.655148,-32.646577
48237,,9.786633,0.144738,1.143487,0.029963,-0.040287,-0.054916,6.499240,-81.686810,-32.793273
48238,,9.809592,0.146808,1.131214,0.009014,-0.034409,-0.050768,6.714439,-81.703266,-33.008144
48239,,9.807356,0.067763,1.153405,-0.007218,-0.036904,-0.053211,6.847486,-81.733009,-33.149947
48240,,9.871471,0.009682,1.133790,-0.015935,-0.036308,-0.058953,7.083119,-81.749803,-33.399901
48241,,9.850903,-0.012213,1.154498,-0.012223,-0.040711,-0.054265,7.222180,-81.781532,-33.550659
48242,,9.903893,-0.021031,1.155080,-0.007532,-0.044039,-0.057390,7.462540,-81.802620,-33.800507
48243,,9.897093,-0.007522,1.128866,-0.008138,-0.040983,-0.062581,7.639844,-81.833746,-33.987507
48244,,9.923455,0.029038,1.181004,-0.015651,-0.041668,-0.060617,7.889545,-81.852997,-34.251474
48245,,9.940730,0.103760,1.195708,-0.021591,-0.032040,-0.061726,8.053956,-81.878938,-34.433207
48246,,9.890613,0.208121,1.162558,-0.036569,-0.026353,-0.067858,8.313845,-81.888661,-34.719561
48247,,9.907513,0.283339,1.178757,-0.059997,-0.020214,-0.071647,8.491977,-81.906869,-34.937359
48248,,9.881099,0.239506,1.195674,-0.088420,-0.013060,-0.079102,8.760117,-81.907807,-35.262052
48249,,9.881404,0.151099,1.161493,-0.106577,-0.008280,-0.077351,8.929861,-81.918509,-35.498328
48250,,9.838412,0.038021,1.160791,-0.111307,-0.002550,-0.075618,9.164581,-81.913500,-35.802518
48251,,9.842595,0.002884,1.117429,-0.118206,-0.004084,-0.076007,9.321070,-81.921737,-36.032127
48252,,9.842606,0.008920,1.117300,-0.110444,0.001328,-0.072595,9.541371,-81.914556,-36.321267
48253,,9.881674,0.080618,1.127497,-0.117344,-0.000210,-0.072990,9.684539,-81.920725,-36.536918
48254,,9.932295,0.103192,1.116686,-0.130843,0.003831,-0.069552,9.878818,-81.912202,-36.811595
48255,,9.975025,0.112778,1.158958,-0.147793,0.009520,-0.067605,9.977279,-81.913285,-36.999715
48256,,9.949099,0.087374,1.103948,-0.168837,0.017673,-0.064863,10.120649,-81.897264,-37.244981
