// Start Time: Unknown
// Update Rate: 100.0Hz
// Filter Profile: human (46.1)
// Firmware Version: 4.3.5
PacketCounter,Acc_X,Acc_Y,Acc_Z,Gyr_X,Gyr_Y,Gyr_Z
40131,9.672135,-1.111418,2.471785,-0.220450,0.052963,-0.039557
40132,9.631486,-1.328924,2.430195,-0.208733,0.063607,-0.031063
40133,9.583255,-1.484715,2.419306,-0.157494,0.058984,-0.029688
40134,9.534044,-1.528352,2.380784,-0.096820,0.056125,-0.023772
40135,9.524545,-1.495804,2.319648,-0.032026,0.052272,-0.019588
40136,9.491336,-1.398801,2.320362,0.020540,0.045371,-0.020332
40137,9.529082,-1.209496,2.274556,0.068859,0.043544,-0.021725
40138,9.557294,-0.967175,2.200841,0.093071,0.044770,-0.027136
40139,9.553069,-0.719877,2.188134,0.078965,0.053285,-0.039729
40140,9.639066,-0.533932,2.051936,0.047807,0.064741,-0.055986
40141,9.621402,-0.343247,1.959728,-0.001463,0.087650,-0.070258
40142,9.630498,-0.106059,1.861458,-0.090610,0.112886,-0.082635
40143,9.598370,-0.016609,1.890829,-0.209691,0.132921,-0.078844
40144,9.605228,-0.037326,2.029222,-0.328799,0.159546,-0.073590
40145,9.644063,-0.369888,2.205938,-0.465179,0.193347,-0.048514
40146,9.638785,-0.994761,2.353670,-0.552533,0.207885,-0.010236
40147,9.566757,-1.590975,2.300313,-0.527010,0.207766,0.025662
40148,9.508902,-2.050640,2.282518,-0.439357,0.197332,0.052480
40149,9.425229,-2.328207,2.358399,-0.293023,0.170015,0.068530
40150,9.412835,-2.349599,2.640828,-0.105740,0.135220,0.084071
40151,9.471197,-2.240978,3.038341,0.096866,0.108993,0.096270
40152,9.526319,-1.919436,3.270338,0.275766,0.100668,0.115206
40153,9.530364,-1.528749,3.293388,0.371414,0.095189,0.118346
40154,9.521019,-1.121237,2.910267,0.402880,0.100375,0.105662
40155,9.451574,-0.699727,2.292056,0.381567,0.121724,0.077758
40156,9.423936,-0.334162,1.558350,0.276020,0.131249,0.034005
40157,9.354440,-0.118021,0.945458,0.089342,0.130929,-0.007198
40158,9.455039,-0.238489,0.804196,-0.101909,0.133629,-0.028618
40159,9.602354,-0.450527,1.272076,-0.268555,0.172122,-0.032261
40160,9.498521,-0.854101,1.809100,-0.388286,0.200714,-0.035536
40161,9.258726,-1.449326,2.096751,-0.463714,0.198852,-0.005237
40162,9.084521,-2.045267,2.233992,-0.440049,0.144457,0.039643
40163,9.192129,-2.413226,2.594800,-0.331396,0.094036,0.097617
40164,9.455545,-2.522590,3.354722,-0.156488,0.106171,0.144453
40165,9.650989,-2.433158,4.177865,0.101164,0.150659,0.185776
40166,9.826808,-1.918697,4.484395,0.330226,0.179378,0.218768
40167,9.928939,-1.395162,4.470657,0.459200,0.186127,0.251538
40168,10.027266,-1.336057,4.217418,0.517116,0.199924,0.269543
40169,9.846529,-1.303360,3.483442,0.551058,0.233524,0.286971
40170,9.426491,-1.041230,2.529417,0.538144,0.221284,0.255491
40171,9.275358,-0.788434,1.683857,0.476950,0.182411,0.206654
40172,9.122302,-0.877237,1.076449,0.368042,0.150136,0.190933
40173,9.049432,-1.027521,0.839141,0.285872,0.102572,0.177439
40174,9.149402,-0.887154,0.998263,0.236606,0.074497,0.157627
40175,9.099744,-0.793040,1.412343,0.119741,0.070281,0.139975
40176,9.062250,-0.932665,1.874132,0.007704,0.056701,0.120535
40177,9.058707,-1.210004,2.265981,-0.088366,0.035634,0.121491
40178,9.162559,-1.663980,2.999934,-0.121212,0.034147,0.147961
40179,9.247124,-2.128905,3.704863,-0.051363,0.056205,0.183361
40180,9.249173,-2.219965,3.865251,0.100044,0.073281,0.208726
40181,9.338966,-1.874860,3.716398,0.247380,0.063798,0.227314
40182,9.475562,-1.617285,3.684616,0.341700,0.050661,0.233488
40183,9.627736,-1.480745,3.593256,0.456664,0.050848,0.225246
40184,9.577637,-1.232814,3.428666,0.542209,0.069663,0.209974
40185,9.462782,-1.014519,2.984206,0.514464,0.094009,0.189986
40186,9.437197,-0.970625,2.430322,0.433543,0.094535,0.177676
40187,9.442830,-1.057724,2.032180,0.315213,0.096911,0.169915
40188,9.447370,-1.144376,1.877116,0.182035,0.115840,0.164826
40189,9.341616,-1.179512,1.830927,0.056521,0.129914,0.159332
40190,9.333925,-1.343980,1.964826,-0.049818,0.145307,0.165992
40191,9.173002,-1.734939,2.138283,-0.127401,0.151936,0.188496
40192,8.967363,-2.232912,2.318248,-0.156143,0.143300,0.228850
40193,9.053564,-2.788589,2.890150,-0.121989,0.126085,0.286389
40194,9.214735,-3.283904,3.462584,0.019174,0.118886,0.346746
40195,9.303023,-3.148389,3.682117,0.265157,0.103266,0.393685
40196,9.392168,-2.357886,3.766267,0.443204,0.083514,0.407732
40197,9.629778,-1.809078,3.787862,0.540285,0.060640,0.396597
40198,9.669510,-1.332906,3.855439,0.637339,0.068377,0.378028
40199,9.593419,-0.851205,3.762978,0.638874,0.103292,0.346454
40200,9.367869,-0.638445,3.478506,0.539246,0.151813,0.305705
40201,9.198084,-0.685375,3.008262,0.419339,0.162363,0.288304
40202,9.251905,-0.948805,2.450008,0.266974,0.153027,0.279826
40203,9.200904,-1.219403,1.971076,0.142017,0.168365,0.261601
40204,9.068977,-1.358182,1.703536,0.043459,0.164575,0.236812
40205,9.054386,-1.687783,2.068594,-0.031312,0.177736,0.224148
40206,9.099225,-2.169219,3.006314,-0.016564,0.214204,0.237391
40207,9.149983,-2.595966,3.945761,-0.023471,0.277056,0.284339
40208,9.135684,-2.990206,4.326971,0.025160,0.336820,0.352547
40209,9.055730,-2.881334,4.231611,0.068863,0.352535,0.408336
40210,9.148749,-2.580946,3.954474,0.073869,0.332139,0.429786
40211,9.260939,-2.410932,3.862264,0.113510,0.323240,0.426195
40212,9.361587,-2.361170,4.170128,0.191074,0.335493,0.425238
40213,9.384830,-2.514428,4.713745,0.284155,0.368623,0.448295
40214,9.228990,-2.523655,4.839329,0.384233,0.407808,0.491590
40215,8.968282,-2.414615,4.274451,0.473867,0.422688,0.522436
40216,8.854869,-2.143434,3.332725,0.478813,0.390673,0.536198
40217,8.899692,-2.029681,2.545482,0.397062,0.343477,0.521589
40218,9.061396,-2.124794,2.207289,0.313503,0.328435,0.492245
40219,9.057166,-2.162395,2.297154,0.274700,0.349849,0.468790
40220,8.949362,-2.119131,2.617742,0.214937,0.371035,0.454745
40221,8.783417,-2.319139,2.949704,0.122395,0.408382,0.464714
40222,8.601651,-2.578105,3.181745,0.028138,0.424872,0.507790
40223,8.539080,-2.877231,3.358168,-0.067785,0.434359,0.560914
40224,8.560455,-3.152418,3.501036,-0.124251,0.459676,0.607298
40225,8.563332,-3.268916,3.650915,-0.127056,0.492861,0.625891
40226,8.620115,-3.097185,3.863205,-0.130107,0.520227,0.638401
40227,8.678977,-2.919846,4.055882,-0.147230,0.542922,0.644946
40228,8.675041,-2.725135,4.198050,-0.161837,0.557483,0.657116
40229,8.606595,-2.582877,4.130156,-0.199328,0.558175,0.668990
40230,8.666263,-2.729636,3.736286,-0.226439,0.530827,0.684576
40231,8.744426,-2.865451,3.504387,-0.216995,0.496929,0.694295
40232,8.828239,-2.899418,3.440658,-0.195024,0.461714,0.689112
40233,8.816430,-2.873167,3.618953,-0.166096,0.436611,0.666720
40234,8.828925,-2.716254,4.087759,-0.123127,0.439645,0.657474
40235,8.634823,-2.925936,4.621588,-0.132883,0.451593,0.656536
40236,8.538439,-3.353211,5.225723,-0.101453,0.466554,0.682315
40237,8.312150,-3.748557,5.475421,-0.035967,0.477278,0.742692
40238,8.075610,-3.975749,5.202525,0.075095,0.437430,0.796550
40239,8.017770,-3.903345,4.516489,0.144973,0.363192,0.800994
40240,8.302426,-3.660524,4.095053,0.195889,0.311879,0.769549
40241,8.395834,-3.659839,3.912881,0.257112,0.306253,0.718437
40242,8.298303,-3.725778,3.768831,0.321666,0.297204,0.674271
40243,8.183203,-3.719412,3.697632,0.372219,0.275356,0.650920
40244,8.081058,-3.694453,3.580325,0.381374,0.260104,0.644510
40245,8.066730,-3.682205,3.371084,0.352861,0.240603,0.636106
40246,8.131916,-3.839198,3.439904,0.305027,0.229965,0.637039
40247,8.133596,-3.943182,3.880827,0.227755,0.230111,0.645658
40248,8.098530,-4.030534,4.688728,0.164163,0.253429,0.664261
40249,8.014055,-4.003979,5.551286,0.110197,0.320415,0.687830
40250,7.786883,-3.931453,5.971917,0.048550,0.384821,0.714313
40251,7.613679,-3.943985,5.931948,-0.011479,0.433514,0.742207
40252,7.560527,-4.107957,5.585746,-0.066026,0.445239,0.768261
40253,7.559501,-4.289169,4.901993,-0.064100,0.424985,0.771680
40254,7.552539,-4.464987,4.107736,-0.044162,0.378812,0.764319
40255,7.565011,-4.698385,3.669952,-0.000336,0.329159,0.764557
40256,7.625861,-4.915758,3.678953,0.100698,0.297645,0.768151
40257,7.569835,-4.783977,3.870323,0.193610,0.290843,0.758388
40258,7.507035,-4.629337,4.120915,0.241007,0.306257,0.748708
40259,7.428012,-4.533972,4.295011,0.224007,0.329554,0.749939
40260,7.346491,-4.603148,4.658769,0.130369,0.343460,0.775525
40261,7.334720,-4.667035,5.100784,-0.000454,0.371233,0.806105
40262,7.294645,-4.699341,5.598071,-0.102671,0.419634,0.827797
40263,7.299952,-4.643849,6.006368,-0.205580,0.466955,0.847191
40264,7.333082,-4.854898,6.324463,-0.306968,0.515244,0.866508
40265,7.283793,-5.231089,6.299357,-0.356650,0.553824,0.898521
40266,7.059672,-5.617894,5.909111,-0.306014,0.546312,0.924818
40267,6.939316,-5.784317,5.348621,-0.191885,0.494970,0.932021
40268,6.937651,-5.754717,4.970668,-0.073866,0.444194,0.919699
40269,6.995894,-5.461700,4.883828,0.054265,0.433685,0.875138
40270,6.990380,-5.159325,5.048809,0.229660,0.447927,0.816507
40271,6.862050,-4.998079,5.316164,0.427976,0.433300,0.772275
40272,6.685219,-5.036963,5.535511,0.564012,0.401654,0.770691
40273,6.464341,-5.225383,5.806666,0.667310,0.363212,0.798247
40274,6.261825,-5.552882,5.999616,0.743806,0.335409,0.839813
40275,6.130267,-5.756793,6.233260,0.794016,0.322560,0.861901
40276,6.171223,-5.870390,6.407067,0.849537,0.334180,0.872351
40277,6.277683,-5.922014,6.631582,0.903217,0.360573,0.870285
40278,6.310008,-5.973473,6.775517,0.936769,0.405360,0.862662
40279,6.318116,-6.059278,6.772401,0.959704,0.432523,0.875446
40280,6.178739,-6.369159,6.613208,0.980678,0.439432,0.907548
40281,6.096019,-6.424471,6.258277,1.060467,0.406079,0.928247
40282,6.110447,-6.242229,5.767712,1.152588,0.355299,0.918059
40283,6.128634,-5.685051,5.155969,1.189698,0.318091,0.879320
40284,6.227486,-5.121762,4.836936,1.149101,0.313531,0.832243
40285,6.340862,-4.791746,4.948167,1.055489,0.357540,0.788817
40286,6.260293,-4.561554,5.329456,0.929366,0.447873,0.766039
40287,6.034805,-4.388832,5.628349,0.760467,0.514499,0.761254
40288,5.892261,-4.370982,5.705479,0.544861,0.557230,0.776782
40289,5.662469,-4.627904,5.744043,0.360587,0.572632,0.795261
40290,5.486238,-4.969600,5.830167,0.214840,0.568217,0.813805
40291,5.409117,-5.378372,6.185163,0.077171,0.567425,0.835589
40292,5.398885,-5.925340,6.323955,0.021479,0.582589,0.863188
40293,5.330675,-6.368718,6.581845,0.087859,0.588796,0.880868
40294,5.237108,-6.511723,6.787800,0.183698,0.574013,0.902212
40295,5.208113,-6.465954,6.873864,0.343589,0.541498,0.920515
40296,5.107917,-6.148677,6.787514,0.520815,0.510650,0.926240
40297,5.061825,-5.572796,6.587423,0.664296,0.457080,0.897113
40298,5.162922,-5.119731,6.489843,0.771119,0.393466,0.843071
40299,5.253891,-4.953672,6.496937,0.872338,0.352007,0.780511
40300,5.227383,-4.733490,6.344443,1.027537,0.327757,0.704820
40301,5.167426,-4.276320,6.239106,1.136148,0.315269,0.619075
40302,5.078708,-3.739433,6.153305,1.186308,0.281071,0.547667
40303,5.049519,-3.092799,6.159688,1.103960,0.275603,0.479680
40304,5.082444,-2.770019,6.387660,0.895703,0.305167,0.422451
40305,4.923656,-2.785233,6.669396,0.633357,0.356452,0.370778
40306,4.769075,-3.226868,6.913946,0.340904,0.401527,0.331814
40307,4.582590,-3.877821,7.105510,0.114059,0.447380,0.315375
40308,4.351022,-4.452849,7.257146,-0.019995,0.469727,0.315490
40309,4.283407,-5.037754,7.367245,-0.076223,0.485259,0.326750
40310,4.138886,-5.459507,7.261406,-0.047737,0.471714,0.345592
40311,4.022324,-5.511881,7.066039,0.037830,0.421021,0.342805
40312,4.066706,-5.369997,7.008485,0.157167,0.368679,0.318101
40313,4.009280,-5.204019,6.881923,0.278511,0.327527,0.293150
40314,3.891410,-5.106355,6.902668,0.360742,0.292453,0.278842
40315,3.823187,-5.363301,6.982543,0.421001,0.270363,0.290641
40316,3.637021,-5.641864,6.933970,0.514868,0.244385,0.320913
40317,3.547251,-5.466756,6.701573,0.594314,0.196732,0.342949
40318,3.728534,-5.052727,6.637504,0.630576,0.166891,0.335859
40319,3.823518,-4.717591,6.610915,0.612235,0.154384,0.321908
40320,3.967088,-4.429168,6.765994,0.502772,0.138441,0.295810
40321,4.076129,-4.479855,7.375906,0.331622,0.169014,0.297264
40322,3.957098,-4.896119,8.084857,0.201290,0.249294,0.338443
40323,3.676849,-5.368314,8.431446,0.124824,0.334134,0.419126
40324,3.378397,-5.542052,8.588256,0.109590,0.361926,0.493072
40325,3.354058,-5.492829,8.435678,0.165908,0.300444,0.530815
40326,3.591395,-5.289308,8.095817,0.256280,0.224579,0.508348
40327,3.600500,-5.419684,7.822005,0.346441,0.177389,0.461221
40328,3.452326,-5.834062,7.570957,0.506383,0.119566,0.432123
40329,3.220236,-6.024308,7.371895,0.743770,0.062870,0.429854
40330,3.093490,-5.745713,7.048891,0.975216,0.017197,0.450062
40331,3.102741,-5.066726,6.714161,1.122421,-0.009507,0.461117
40332,3.321420,-4.354486,6.501905,1.105437,-0.008800,0.440630
40333,3.476561,-3.808962,6.362666,0.934843,0.023699,0.404120
40334,3.581981,-3.536038,6.654684,0.648510,0.064041,0.392923
40335,3.649811,-3.741741,7.311630,0.333828,0.148681,0.391570
40336,3.470791,-4.112308,8.029468,0.039688,0.266443,0.419662
40337,3.192073,-4.372789,8.477815,-0.222760,0.349600,0.471158
40338,3.134216,-4.472605,8.742677,-0.427470,0.416202,0.524926
40339,3.027749,-4.633283,8.892084,-0.588096,0.461848,0.563064
40340,2.961509,-4.933426,8.827619,-0.713023,0.471565,0.579175
40341,2.928842,-5.488423,8.707623,-0.740167,0.438639,0.577550
40342,2.848819,-6.081346,8.532064,-0.599666,0.391571,0.591805
40343,2.716734,-6.618160,8.469076,-0.317373,0.323850,0.621920
40344,2.632187,-6.977618,8.251889,0.075363,0.232301,0.675025
40345,2.687573,-6.942844,8.134873,0.525862,0.119881,0.717807
40346,2.797641,-6.358461,8.116265,0.975047,0.007392,0.724745
40347,2.858557,-5.506463,7.904242,1.304723,-0.111960,0.696868
40348,3.022170,-4.732400,7.587184,1.450828,-0.187320,0.653753
40349,3.131531,-4.319488,7.478601,1.428491,-0.179257,0.638114
40350,3.019814,-4.179978,7.340118,1.336379,-0.137128,0.647650
40351,2.939600,-3.708888,7.385193,1.132799,-0.093082,0.684053
40352,3.003665,-3.131370,7.653023,0.802676,-0.055403,0.717097
40353,3.030400,-2.970773,7.737152,0.444460,-0.027983,0.708167
40354,2.924578,-3.320150,7.726774,0.156584,0.003529,0.659862
40355,2.677361,-4.142613,8.039755,0.026429,0.032189,0.608503
40356,2.430158,-4.899568,8.133733,0.173135,0.000387,0.582162
40357,2.232612,-4.704592,8.223525,0.464430,-0.058207,0.571756
40358,2.206331,-3.962102,8.261809,0.643903,-0.105418,0.568639
40359,2.321223,-3.461713,8.590446,0.673660,-0.128044,0.561652
40360,2.388831,-3.630851,9.080914,0.709777,-0.163225,0.556381
40361,2.440797,-4.011265,9.392904,0.840190,-0.190822,0.553162
40362,2.326627,-4.285632,9.249655,1.081776,-0.262503,0.533510
40363,2.387452,-4.445268,8.754835,1.337993,-0.332154,0.506082
40364,2.497962,-4.100672,8.169342,1.595926,-0.370232,0.452559
40365,2.607683,-3.198127,8.028635,1.693490,-0.356091,0.396445
40366,2.787199,-2.500771,7.970975,1.575751,-0.334817,0.372289
40367,2.799952,-2.408428,8.211620,1.334285,-0.289325,0.359826
40368,2.671508,-2.634009,8.254053,1.109242,-0.239218,0.354253
40369,2.452367,-2.794229,8.317872,0.896365,-0.199120,0.355386
40370,2.271736,-3.219291,8.456448,0.682476,-0.188203,0.365493
40371,2.368278,-3.798207,8.659939,0.613848,-0.190028,0.383006
40372,2.351338,-4.092380,8.648679,0.748764,-0.229183,0.393660
40373,2.551114,-3.719453,8.820772,0.959884,-0.258464,0.382554
40374,2.597216,-3.297730,8.960554,1.089727,-0.275462,0.372686
40375,2.543754,-3.064493,8.791258,1.199044,-0.317830,0.357097
40376,2.560011,-2.625370,8.784060,1.233063,-0.340449,0.330673
40377,2.444638,-2.705358,8.827830,1.198346,-0.360899,0.329809
40378,2.509997,-2.944788,8.702133,1.263498,-0.405940,0.333213
40379,2.541914,-3.012425,8.631183,1.370619,-0.440242,0.344083
40380,2.713712,-2.610951,8.455973,1.505560,-0.479058,0.330368
40381,2.862709,-1.858620,8.561775,1.569081,-0.485955,0.307339
40382,2.795986,-1.476103,8.780409,1.430853,-0.467043,0.292195
40383,2.774089,-1.681733,8.720048,1.275796,-0.438180,0.284253
40384,2.855482,-1.440728,8.851246,1.221280,-0.421604,0.264997
40385,2.957934,-1.132076,8.950611,1.055025,-0.408641,0.242674
40386,2.989220,-1.029253,9.005795,0.939913,-0.386409,0.228019
40387,2.864149,-1.190604,9.194113,0.851732,-0.371032,0.240188
40388,2.793565,-1.834020,8.953059,0.829214,-0.388611,0.265861
40389,2.857643,-2.007417,8.895057,0.953436,-0.411118,0.244441
40390,3.011866,-1.336048,8.632755,1.089548,-0.427240,0.197160
40391,3.322367,0.023244,8.685249,1.066418,-0.402350,0.116933
40392,3.459442,1.091198,8.928793,0.759977,-0.332566,0.048272
40393,3.381394,1.221888,9.203247,0.360786,-0.236447,0.018113
40394,3.226778,0.700888,9.311917,0.038816,-0.167198,0.010246
40395,3.096364,-0.273174,9.210309,-0.207879,-0.121999,0.007283
40396,3.292835,-1.312936,8.974283,-0.307602,-0.109069,-0.008206
40397,3.550012,-1.772901,9.035317,-0.229253,-0.113820,-0.040985
40398,3.749273,-1.467109,9.312487,-0.118033,-0.114946,-0.076354
40399,3.641924,-0.887524,9.728134,-0.104887,-0.097282,-0.091599
40400,3.298619,-0.878396,9.794253,-0.167372,-0.069808,-0.070542
40401,3.073953,-1.341543,9.713253,-0.159208,-0.053098,-0.041960
40402,3.077222,-1.680436,9.438696,-0.049614,-0.064755,-0.025090
40403,3.311386,-1.316693,9.367072,0.056748,-0.073464,-0.039413
40404,3.394289,-0.877411,9.440387,0.044502,-0.071469,-0.075647
40405,3.438635,-0.697889,9.504415,-0.010100,-0.051626,-0.102289
40406,3.378908,-0.545538,9.568790,-0.071342,-0.012131,-0.118765
40407,3.190674,-0.635267,9.702281,-0.172247,0.021443,-0.117760
40408,3.115137,-1.425674,9.575333,-0.208318,0.040439,-0.083302
40409,3.152422,-1.795507,9.280668,-0.114568,0.047974,-0.068436
40410,3.235808,-1.686808,9.330096,-0.027346,0.042301,-0.074778
40411,3.394535,-1.380698,9.333025,0.030593,0.042198,-0.088652
40412,3.420032,-0.808425,9.432232,0.005426,0.072008,-0.111221
40413,3.353416,-0.478401,9.502008,-0.112817,0.118062,-0.133669
40414,3.289915,-0.576016,9.487071,-0.251248,0.154457,-0.125846
40415,3.289761,-0.942867,9.405800,-0.356285,0.188100,-0.127880
40416,3.229689,-1.413300,9.189226,-0.415142,0.212856,-0.120302
40417,3.276727,-1.558321,8.956251,-0.411678,0.231827,-0.136405
40418,3.288670,-1.309642,8.824206,-0.424166,0.248942,-0.170807
40419,3.409248,-0.847500,8.611353,-0.519308,0.283022,-0.232417
40420,3.509712,-0.201100,8.384419,-0.695668,0.342044,-0.319440
40421,3.488474,0.386110,9.015206,-1.015493,0.417746,-0.374010
40422,3.267433,-0.297698,9.456623,-1.313039,0.464243,-0.353650
40423,3.214169,-1.172554,9.380453,-1.490065,0.505420,-0.332337
40424,2.842273,-1.780595,9.281971,-1.545759,0.575805,-0.336562
40425,2.558961,-1.518211,8.830514,-1.580306,0.547611,-0.392255
40426,2.833642,-1.551415,8.492839,-1.699198,0.534141,-0.447166
40427,3.007705,-2.234408,8.385455,-1.762569,0.558063,-0.478543
40428,2.963207,-2.785659,8.542251,-1.724027,0.591362,-0.496252
40429,2.627108,-3.133001,9.795832,-1.630891,0.591261,-0.453338
40430,2.317167,-4.815559,9.940196,-1.452042,0.528061,-0.299632
40431,2.172480,-5.101098,8.876539,-0.969689,0.421274,-0.223906
40432,2.135534,-3.906514,8.331842,-0.684714,0.355926,-0.247754
40433,2.700707,-3.386739,8.071898,-0.628576,0.272783,-0.286224
40434,3.198744,-3.043744,8.097108,-0.529016,0.265735,-0.340682
40435,3.053301,-2.456353,8.370378,-0.572697,0.301329,-0.392909
40436,2.773684,-2.078420,9.127294,-0.750815,0.318077,-0.412832
40437,2.563266,-2.651304,9.742323,-0.885464,0.333860,-0.357213
40438,2.279724,-3.175504,9.260296,-0.928767,0.342938,-0.306450
40439,2.121178,-2.884053,8.559358,-0.947772,0.315805,-0.300639
40440,2.351930,-2.943102,8.046694,-1.016976,0.273223,-0.313480
40441,2.763593,-3.353474,7.629774,-1.020114,0.257311,-0.339725
40442,2.847888,-3.455628,7.558165,-0.986247,0.288766,-0.390075
40443,2.731469,-3.522730,8.448276,-1.008790,0.334550,-0.413221
40444,2.307850,-4.532399,8.939502,-1.046505,0.324178,-0.357659
40445,2.047577,-5.110655,8.302363,-0.980607,0.243064,-0.294552
40446,2.267495,-4.999164,8.014422,-0.861515,0.216077,-0.267664
40447,2.485386,-4.507714,8.122976,-0.820007,0.216754,-0.281557
40448,2.612421,-3.888095,8.100689,-0.871983,0.224380,-0.334183
40449,2.668225,-3.385945,8.234779,-0.991778,0.272678,-0.388434
40450,2.535223,-3.421432,8.892461,-1.147531,0.329321,-0.400091
40451,2.254836,-3.976904,9.334905,-1.227864,0.358467,-0.360291
40452,1.885043,-4.625415,9.103741,-1.218717,0.334226,-0.307845
40453,1.825026,-4.995351,8.491932,-1.112172,0.252033,-0.268961
40454,2.108988,-4.962559,8.016277,-0.981909,0.200774,-0.283515
40455,2.487963,-4.833454,7.615903,-0.840311,0.185201,-0.338008
40456,2.640209,-4.373294,7.562366,-0.706961,0.188181,-0.420060
40457,2.753775,-3.970826,8.077635,-0.714519,0.238080,-0.485021
40458,2.470939,-3.996645,8.676739,-0.796436,0.298771,-0.502574
40459,2.167061,-4.227720,8.781771,-0.921518,0.297288,-0.481283
40460,2.240207,-4.679789,8.440616,-1.032725,0.287991,-0.426515
40461,2.345423,-5.350091,8.064882,-1.103731,0.294680,-0.371484
40462,2.415076,-5.916603,7.278468,-1.134206,0.277928,-0.382173
40463,2.601535,-5.695613,6.802109,-1.129583,0.251539,-0.428568
40464,2.839824,-5.429203,7.261293,-1.205353,0.256893,-0.447014
40465,2.763072,-5.498107,7.810698,-1.267408,0.287469,-0.445358
40466,2.420373,-6.004495,8.022944,-1.288466,0.305629,-0.395288
40467,2.034205,-6.485898,7.695234,-1.250610,0.271750,-0.332263
40468,1.951397,-6.599050,7.211089,-1.094894,0.212937,-0.293900
40469,2.162525,-6.338449,6.968109,-0.943954,0.163099,-0.290951
40470,2.472911,-6.024481,6.806144,-0.853933,0.131206,-0.321081
40471,2.660392,-5.720495,7.102493,-0.817372,0.143134,-0.365250
40472,2.696609,-5.626500,8.039656,-0.834879,0.222380,-0.362682
40473,2.162889,-5.809622,8.550198,-0.832518,0.254893,-0.347695
40474,1.997157,-6.113437,8.169286,-0.762086,0.197910,-0.305766
40475,2.031070,-6.282050,7.794574,-0.662182,0.154627,-0.261490
40476,2.160502,-6.587172,7.175137,-0.601161,0.110207,-0.245483
40477,2.437942,-6.514509,6.510002,-0.485920,0.064006,-0.281756
40478,2.797527,-5.920641,6.175513,-0.390895,0.037478,-0.327030
40479,3.033268,-5.370539,6.680890,-0.445568,0.070356,-0.381858
40480,2.903143,-5.723853,7.484642,-0.620330,0.154552,-0.400764
40481,2.432781,-6.374496,7.530589,-0.728241,0.182982,-0.378218
40482,2.246599,-6.827987,7.446777,-0.793741,0.182179,-0.312277
40483,2.309147,-7.047251,7.433069,-0.803971,0.163686,-0.244826
40484,2.472773,-6.894337,7.233147,-0.725388,0.125217,-0.223819
40485,2.724930,-6.507098,7.054199,-0.659931,0.094875,-0.266661
40486,2.873667,-6.317417,7.395216,-0.547224,0.090155,-0.316821
40487,2.737150,-6.393149,7.983071,-0.362772,0.094359,-0.341476
40488,2.453536,-6.524016,8.466187,-0.097359,0.064259,-0.334764
40489,2.272680,-6.532569,8.366893,0.169751,-0.017682,-0.300150
40490,2.421599,-6.564502,7.631358,0.446758,-0.132838,-0.297554
40491,2.803752,-6.313738,6.626684,0.682664,-0.218938,-0.345670
40492,3.206521,-5.875319,5.880656,0.846333,-0.259876,-0.419362
40493,3.595276,-5.348838,5.908414,0.891339,-0.259632,-0.507520
40494,3.709249,-4.846675,6.308521,0.824805,-0.199309,-0.579488
40495,3.428364,-4.252121,6.490897,0.648941,-0.140868,-0.646566
40496,3.277873,-4.122318,6.599200,0.283734,-0.085503,-0.662147
40497,3.171043,-4.858924,6.853104,-0.151016,-0.014456,-0.641655
40498,3.020282,-5.817217,6.845687,-0.455746,0.036551,-0.599428
40499,3.005461,-6.187779,6.967650,-0.599210,0.044720,-0.558672
40500,3.184583,-6.237767,7.499294,-0.667244,0.044021,-0.536035
40501,3.302405,-6.202219,7.687315,-0.631074,0.043099,-0.536304
40502,3.155978,-6.199252,7.820998,-0.541897,0.028255,-0.536289
40503,2.949332,-6.556548,7.863833,-0.367306,-0.006180,-0.538738
40504,2.793030,-6.786052,7.602007,-0.044846,-0.051323,-0.537944
40505,2.734304,-6.935863,6.960292,0.307652,-0.094691,-0.534654
40506,2.786261,-6.898042,6.041790,0.582597,-0.156344,-0.532561
40507,3.140852,-6.504637,5.563328,0.762326,-0.195091,-0.551305
40508,3.611151,-5.915154,5.585166,0.762415,-0.192725,-0.569745
40509,3.912955,-4.905092,5.851946,0.634217,-0.186758,-0.617780
40510,4.269725,-4.082845,6.439936,0.317988,-0.173598,-0.670891
40511,4.314949,-4.185051,6.798140,-0.086292,-0.097422,-0.683445
40512,4.001839,-4.934625,6.777074,-0.433688,-0.048077,-0.651379
40513,3.735797,-5.787861,6.992716,-0.686377,-0.030916,-0.582478
40514,3.563859,-6.509647,7.100657,-0.798195,-0.037067,-0.508254
40515,3.516636,-6.854838,7.104901,-0.758913,-0.065744,-0.480566
40516,3.682528,-6.893122,7.377971,-0.607543,-0.096074,-0.488015
40517,3.808024,-6.908749,7.597586,-0.321624,-0.108645,-0.531377
40518,3.753437,-6.507282,7.479574,-0.009764,-0.140126,-0.563362
40519,3.807861,-5.999564,7.092809,0.235502,-0.196380,-0.582614
40520,3.926579,-5.626126,6.449292,0.370620,-0.234338,-0.596012
40521,4.044798,-5.244049,5.840479,0.417610,-0.272028,-0.622747
40522,4.297180,-4.917534,5.521325,0.375294,-0.299102,-0.668173
40523,4.397508,-4.842714,5.812855,0.229636,-0.281920,-0.715098
40524,4.333501,-5.107560,6.169625,0.044252,-0.258748,-0.735027
40525,4.282289,-5.501923,6.397502,-0.134967,-0.205857,-0.691458
40526,4.250993,-5.653237,6.430912,-0.307705,-0.155107,-0.614312
40527,4.358211,-5.637075,6.763154,-0.461248,-0.128622,-0.554180
40528,4.744717,-5.509313,7.654224,-0.601704,-0.106270,-0.535056
40529,5.045953,-5.270016,8.302916,-0.651356,-0.082066,-0.553148
40530,5.108371,-5.083677,8.460479,-0.604307,-0.060938,-0.594872
40531,4.895846,-5.410805,8.113634,-0.502233,-0.050431,-0.630437
40532,4.395034,-6.037684,7.108640,-0.318309,-0.095065,-0.650350
40533,3.961273,-6.486726,5.802165,-0.072963,-0.209279,-0.653849
40534,3.941017,-6.758448,4.898186,0.166579,-0.328581,-0.636912
40535,4.144305,-6.618480,4.470049,0.402600,-0.403325,-0.649595
40536,4.322236,-5.940055,4.465711,0.562119,-0.447629,-0.692360
40537,4.565744,-4.958187,4.789808,0.588519,-0.475521,-0.721881
40538,4.741738,-4.400673,5.579788,0.435580,-0.425082,-0.717023
40539,4.893833,-4.346575,6.373060,0.179479,-0.331190,-0.667670
40540,5.126748,-4.482580,6.982533,-0.103038,-0.274649,-0.606607
40541,5.624678,-4.608118,7.472270,-0.381542,-0.223236,-0.560053
40542,5.931610,-4.623753,7.863996,-0.623862,-0.189695,-0.553679
40543,5.971672,-4.742122,8.134996,-0.772492,-0.184782,-0.596784
40544,5.847637,-5.153654,8.024756,-0.785104,-0.166969,-0.658987
40545,5.298616,-5.655626,6.962218,-0.647628,-0.169255,-0.722848
40546,4.777512,-6.126535,5.620592,-0.384989,-0.226395,-0.754839
40547,4.515688,-6.697798,4.802018,-0.078721,-0.328444,-0.760795
40548,4.560482,-6.836059,4.377951,0.236561,-0.440550,-0.766466
40549,4.816790,-6.482033,4.205826,0.473576,-0.553578,-0.756012
40550,5.282506,-6.095241,4.476510,0.578901,-0.650263,-0.732641
40551,5.728386,-5.427370,5.457489,0.556296,-0.661381,-0.736598
40552,5.941346,-4.739174,6.511022,0.391478,-0.572547,-0.751236
40553,5.978992,-3.954207,7.173488,0.104663,-0.463368,-0.731837
40554,6.018415,-3.833742,7.560081,-0.248406,-0.363702,-0.687703
40555,6.188788,-4.236511,7.716511,-0.493981,-0.275407,-0.644667
40556,6.137638,-4.640524,7.703477,-0.621218,-0.227219,-0.620520
40557,6.170137,-5.016933,7.595175,-0.614859,-0.242095,-0.629965
40558,6.103322,-5.219457,7.054306,-0.440658,-0.266185,-0.644653
40559,6.090316,-5.194679,6.340700,-0.191310,-0.316006,-0.685434
40560,6.130215,-5.386082,5.840444,0.062525,-0.369920,-0.737061
40561,6.196263,-5.510497,5.056031,0.323410,-0.443492,-0.794918
40562,6.203150,-5.149680,4.393475,0.527236,-0.545823,-0.839367
40563,6.316882,-4.952005,4.126673,0.575625,-0.598576,-0.834371
40564,6.277787,-4.865035,4.346874,0.524569,-0.595181,-0.809698
40565,6.344727,-4.445326,4.876480,0.397069,-0.562288,-0.787027
40566,6.468613,-3.760902,5.498308,0.189274,-0.492078,-0.761535
40567,6.514075,-3.005397,5.842654,-0.131616,-0.395383,-0.747345
40568,6.588015,-2.427975,6.025760,-0.536272,-0.285841,-0.736823
40569,6.723076,-2.682611,6.428607,-0.957577,-0.167669,-0.743384
40570,6.947832,-3.628829,6.880572,-1.258271,-0.051590,-0.728554
40571,7.188197,-5.013066,6.819015,-1.362121,0.034459,-0.651101
40572,7.171314,-6.167541,6.462422,-1.216721,0.046228,-0.566151
40573,7.251482,-6.663106,6.378463,-0.921764,-0.038256,-0.533014
40574,7.412392,-6.328160,6.646644,-0.556247,-0.125658,-0.573771
40575,7.410128,-5.549901,6.881507,-0.202539,-0.196249,-0.652772
40576,7.107212,-5.061915,6.523162,0.097709,-0.254543,-0.724775
40577,6.730675,-4.658321,5.385751,0.355122,-0.343367,-0.757805
40578,6.673115,-4.385239,4.452293,0.526861,-0.431564,-0.769282
40579,6.857806,-4.210645,4.031769,0.625188,-0.484923,-0.788741
40580,7.056038,-3.841386,3.825272,0.655777,-0.505536,-0.817632
40581,7.328369,-3.229425,3.787488,0.563520,-0.511465,-0.846827
40582,7.622196,-2.778473,3.863623,0.333495,-0.494747,-0.868436
40583,7.660533,-2.585773,4.207402,0.035915,-0.460461,-0.871851
40584,7.621292,-2.903436,4.953042,-0.260174,-0.438355,-0.860040
40585,7.647247,-3.384621,5.776525,-0.468924,-0.388695,-0.830841
40586,7.598662,-3.720264,5.975931,-0.606590,-0.320711,-0.792844
40587,7.576990,-3.919286,6.069693,-0.704883,-0.281590,-0.765771
40588,7.719361,-4.284943,6.362173,-0.736418,-0.259026,-0.755051
40589,7.889293,-4.527248,6.485195,-0.609448,-0.246519,-0.760044
40590,7.922591,-4.575969,6.404904,-0.365340,-0.259079,-0.759598
40591,7.821313,-4.709408,6.040367,-0.084896,-0.323274,-0.759583
40592,7.621824,-4.648049,5.071935,0.229908,-0.431543,-0.768856
40593,7.303682,-4.266998,3.803235,0.496599,-0.538362,-0.788108
40594,7.232088,-3.711249,2.873014,0.614581,-0.630399,-0.799927
40595,7.455641,-3.469628,2.809902,0.575239,-0.676976,-0.817935
40596,7.698014,-3.340127,3.224984,0.541806,-0.671424,-0.817829
40597,7.967898,-2.711785,3.700290,0.452788,-0.630627,-0.790479
40598,8.091542,-2.113096,4.083521,0.195704,-0.570574,-0.740663
40599,8.225348,-1.886879,4.436451,-0.165960,-0.505027,-0.701945
40600,8.432323,-2.079148,4.679116,-0.546229,-0.440335,-0.671411
40601,8.577535,-2.533040,4.962303,-0.831247,-0.376736,-0.651841
40602,8.645638,-3.152769,5.507058,-0.996035,-0.296590,-0.642609
40603,8.507559,-3.736872,6.113980,-1.013345,-0.221367,-0.625111
40604,8.423916,-4.178410,6.496340,-0.832252,-0.190775,-0.589927
40605,8.516465,-4.234969,6.771948,-0.537811,-0.200941,-0.548415
40606,8.673390,-4.202362,6.554029,-0.224847,-0.252503,-0.508720
40607,8.540462,-3.811825,5.447140,0.149189,-0.372140,-0.519747
40608,8.352344,-3.029313,4.168330,0.466757,-0.523519,-0.592562
40609,8.387624,-2.471893,3.197446,0.648078,-0.611532,-0.691625
40610,8.378367,-2.189703,2.774509,0.741650,-0.607160,-0.777007
40611,8.386445,-1.876998,2.777451,0.746948,-0.615436,-0.808033
40612,8.544325,-1.592881,2.879169,0.638706,-0.618224,-0.780225
40613,8.642087,-1.307174,2.991965,0.437305,-0.595197,-0.727628
40614,8.829520,-0.997399,3.322926,0.125411,-0.558233,-0.693932
40615,9.025028,-1.106359,3.831055,-0.282756,-0.497518,-0.681479
40616,9.169138,-1.574440,4.152441,-0.645792,-0.427299,-0.680648
40617,9.072054,-2.198282,4.414760,-0.902042,-0.363726,-0.678519
40618,8.934522,-3.002901,4.773914,-1.003656,-0.320592,-0.663782
40619,8.790824,-3.626000,5.072268,-0.857953,-0.294277,-0.645911
40620,8.632222,-3.781701,5.177462,-0.575574,-0.301948,-0.622015
40621,8.591057,-3.677404,5.073425,-0.271972,-0.350153,-0.604802
40622,8.661572,-3.465925,4.436679,0.050624,-0.414890,-0.587603
40623,8.771232,-2.799612,3.776971,0.336879,-0.487619,-0.605731
40624,9.030210,-2.289089,3.275640,0.494399,-0.530163,-0.637029
40625,8.991952,-1.928403,3.093428,0.549543,-0.518220,-0.672910
40626,8.896691,-1.754004,3.006302,0.488626,-0.511179,-0.678927
40627,8.834432,-1.840248,3.075286,0.331725,-0.490115,-0.651965
40628,8.850114,-2.000700,3.148608,0.151527,-0.489191,-0.601876
40629,8.960228,-2.574063,3.259201,-0.040519,-0.476874,-0.545212
40630,8.776986,-3.167256,3.011989,-0.113353,-0.446529,-0.492165
40631,8.636339,-3.272588,3.050810,-0.082276,-0.452647,-0.460029
40632,8.652874,-3.182539,3.572379,-0.032398,-0.453533,-0.441577
40633,8.766975,-2.914614,3.997639,0.050270,-0.420086,-0.406147
40634,8.925660,-2.488444,4.314984,0.177486,-0.364222,-0.368570
40635,9.053098,-1.789594,4.409596,0.253807,-0.310915,-0.333626
40636,9.269014,-1.185697,4.412590,0.245144,-0.291871,-0.292938
40637,9.553583,-0.936709,4.069900,0.189980,-0.268704,-0.261100
40638,9.621990,-0.750068,3.503000,0.144479,-0.245430,-0.248804
40639,9.593466,-0.554383,3.124821,0.099662,-0.259751,-0.240421
40640,9.653862,-0.707037,3.047440,0.055413,-0.292753,-0.242743
40641,9.611092,-0.906516,3.024406,0.036263,-0.291592,-0.236545
40642,9.505145,-1.059389,2.861432,-0.020213,-0.282309,-0.219265
40643,9.419894,-1.147970,2.730293,-0.038951,-0.274683,-0.200983
40644,9.390854,-1.014409,2.728437,-0.039166,-0.271630,-0.198917
40645,9.442274,-0.811579,2.866783,-0.057379,-0.273815,-0.200148
40646,9.438042,-0.651512,3.118433,-0.058725,-0.275573,-0.211580
40647,9.473390,-0.577008,3.493109,-0.059044,-0.269909,-0.205447
40648,9.412704,-0.763312,3.671305,-0.078209,-0.238697,-0.183710
40649,9.432610,-1.093390,3.601264,-0.104192,-0.216371,-0.153962
40650,9.480156,-1.328549,3.415471,-0.071857,-0.206749,-0.127126
40651,9.528574,-1.383199,3.258487,-0.024447,-0.208168,-0.118593
40652,9.496548,-1.186302,3.109094,0.017856,-0.198759,-0.115400
40653,9.429734,-1.015316,3.002210,0.010904,-0.202429,-0.115360
40654,9.667003,-1.252948,3.083775,0.001453,-0.190961,-0.101674
40655,9.888071,-1.952455,3.065395,0.006052,-0.155207,-0.059844
40656,9.815541,-2.539536,2.918902,0.120427,-0.122752,-0.018998
40657,9.436211,-2.538973,3.128235,0.291750,-0.134218,0.021758
40658,9.232256,-2.387952,3.215182,0.336498,-0.196900,0.062069
40659,9.223458,-2.403555,3.195099,0.373264,-0.248413,0.121436
40660,9.130936,-2.318903,3.380536,0.499794,-0.265321,0.176036
40661,9.107036,-1.999693,3.507065,0.621994,-0.258031,0.197625
40662,9.119580,-1.387229,3.331940,0.675287,-0.201796,0.190425
40663,9.184730,-0.754661,3.081803,0.651613,-0.159751,0.183218
40664,9.301753,-0.323484,2.823665,0.589937,-0.127463,0.168862
40665,9.387006,0.012597,2.447358,0.493748,-0.106644,0.138872
40666,9.430199,0.212020,2.333183,0.342156,-0.086877,0.109471
40667,9.387544,0.071520,2.271761,0.207513,-0.072839,0.082643
40668,9.316882,0.001899,2.162344,0.139054,-0.059816,0.066876
40669,9.254352,0.043556,2.254259,0.085247,-0.058674,0.034404
40670,9.272072,-0.031375,2.586441,0.055977,-0.060751,0.020965
40671,9.313302,-0.301262,2.710753,0.019587,-0.054853,0.001497
40672,9.341268,-0.479946,2.792476,0.022804,-0.048329,-0.014462
40673,9.462764,-0.564008,2.776940,0.034566,-0.055178,-0.028802
40674,9.652717,-0.517696,2.704317,0.044207,-0.058323,-0.040861
40675,9.752089,-0.549826,2.602710,0.045307,-0.056565,-0.064939
40676,9.662548,-0.566070,2.328853,0.024353,-0.055292,-0.073463
40677,9.630955,-0.641796,2.186580,0.013215,-0.067852,-0.092608
40678,9.565037,-0.644248,2.177513,-0.018055,-0.070901,-0.097572
40679,9.459154,-0.730393,2.215616,-0.074883,-0.076562,-0.094643
40680,9.401616,-0.901931,2.297227,-0.099774,-0.082901,-0.092731
40681,9.390287,-1.023201,2.317956,-0.100403,-0.082825,-0.085826
40682,9.402094,-1.085110,2.387719,-0.117162,-0.075104,-0.080478
40683,9.451924,-1.077483,2.536185,-0.103941,-0.077069,-0.079855
40684,9.396515,-1.051690,2.590974,-0.071362,-0.072628,-0.078129
40685,9.370471,-0.896462,2.669649,-0.045847,-0.072644,-0.090135
40686,9.436488,-0.754330,2.686634,-0.047384,-0.074727,-0.101244
40687,9.567313,-0.671333,2.650834,-0.054163,-0.068225,-0.125101
40688,9.595801,-0.604358,2.613177,-0.069527,-0.049041,-0.147110
40689,9.628848,-0.557844,2.541697,-0.077219,-0.034177,-0.171148
40690,9.596316,-0.448658,2.524601,-0.075027,-0.025246,-0.192107
40691,9.638277,-0.365819,2.520480,-0.100070,-0.011464,-0.212527
40692,9.662104,-0.501571,2.720518,-0.138868,0.005952,-0.217509
40693,9.609578,-0.761077,2.717947,-0.142777,0.012400,-0.190261
40694,9.593713,-0.921951,2.622279,-0.167000,0.005629,-0.151469
40695,9.576485,-1.340772,2.448810,-0.181492,0.000243,-0.111583
40696,9.524190,-1.512182,2.430041,-0.160293,-0.007140,-0.063890
40697,9.458260,-1.441917,2.458441,-0.083120,-0.013625,-0.037845
40698,9.451742,-1.160888,2.650700,-0.025438,-0.004293,-0.027673
40699,9.459995,-1.027298,2.704193,0.001543,0.006703,-0.019643
40700,9.423098,-0.832393,2.680396,0.030992,0.008707,-0.004472
40701,9.457507,-0.743101,2.715860,0.053390,0.008629,0.002626
40702,9.491561,-0.562836,2.761923,0.075745,0.006212,0.003931
40703,9.591319,-0.349807,2.764226,0.082586,-0.000736,-0.012856
40704,9.684420,-0.276108,2.735026,0.074766,-0.006523,-0.030589
40705,9.729762,-0.202592,2.549037,0.056054,-0.000760,-0.055617
40706,9.756933,-0.133435,2.414874,0.007250,0.008969,-0.084012
40707,9.743603,-0.234906,2.398827,-0.045451,0.019996,-0.094815
40708,9.659153,-0.322701,2.313694,-0.076333,0.028292,-0.095619
40709,9.556398,-0.499391,2.246904,-0.100578,0.031999,-0.082729
40710,9.437433,-0.611592,2.286460,-0.124605,0.026002,-0.073623
40711,9.378343,-0.753071,2.284164,-0.130964,0.015558,-0.056950
40712,9.385091,-0.888046,2.386131,-0.106766,0.004871,-0.044881
40713,9.401254,-0.885790,2.437813,-0.089264,0.001785,-0.044120
40714,9.419743,-0.901638,2.534628,-0.060743,0.001539,-0.045373
40715,9.479853,-0.844425,2.527398,-0.037905,0.005223,-0.046253
40716,9.503617,-0.693426,2.508786,-0.037853,0.022282,-0.051492
40717,9.452511,-0.361609,2.570126,-0.056680,0.036407,-0.066004
40718,9.381606,-0.107039,2.627652,-0.069937,0.044966,-0.090100
40719,9.372663,-0.059193,2.622169,-0.079755,0.036522,-0.108696
40720,9.447705,-0.158377,2.603044,-0.088953,0.032756,-0.122727
40721,9.533737,-0.397394,2.604117,-0.110186,0.039775,-0.126635
40722,9.524716,-0.679842,2.565491,-0.123933,0.040150,-0.113619
40723,9.510598,-0.916950,2.413164,-0.132208,0.028852,-0.090225
40724,9.572124,-1.100587,2.305108,-0.107225,0.019532,-0.074187
40725,9.550376,-1.172675,2.380767,-0.080922,0.013891,-0.055435
40726,9.540157,-1.110234,2.327016,-0.063673,0.006101,-0.041454
40727,9.516880,-0.996487,2.322434,-0.050675,0.002207,-0.023433
40728,9.440543,-0.888326,2.344902,-0.037116,-0.003921,-0.018270
40729,9.458473,-0.727878,2.384292,-0.027716,-0.011781,-0.015617
40730,9.454557,-0.643416,2.498144,-0.010134,-0.017427,-0.018877
40731,9.518153,-0.544135,2.614662,-0.006214,-0.011317,-0.020762
40732,9.536586,-0.561214,2.710921,-0.009989,-0.006659,-0.027181
40733,9.593374,-0.582803,2.750535,-0.013704,-0.000056,-0.026066
40734,9.560807,-0.598044,2.772050,-0.030687,0.010236,-0.018189
40735,9.550506,-0.690409,2.627738,-0.041167,0.014964,-0.009186
40736,9.475302,-0.745916,2.582751,-0.040910,0.012875,0.001036
40737,9.459231,-0.747177,2.531514,-0.033919,0.015298,0.007499
40738,9.457645,-0.739190,2.510146,-0.023252,0.011467,0.011141
40739,9.480385,-0.673655,2.458783,-0.010753,0.011739,0.008736
40740,9.499274,-0.676493,2.431493,-0.012539,0.016825,-0.002747
40741,9.538607,-0.690543,2.398231,-0.009722,0.015227,-0.004628
40742,9.585347,-0.663885,2.408394,0.003563,0.013830,-0.005549
40743,9.617837,-0.574932,2.445858,0.004809,0.015572,-0.010391
40744,9.541888,-0.476487,2.493166,-0.011423,0.019614,-0.012708
40745,9.579044,-0.399607,2.472527,-0.043489,0.019632,-0.011969
40746,9.614634,-0.411753,2.520447,-0.063801,0.021245,-0.013414
40747,9.628028,-0.501036,2.643588,-0.078230,0.034313,-0.011841
40748,9.554148,-0.674168,2.736239,-0.066744,0.045212,-0.008450
40749,9.435737,-0.723650,2.831888,-0.036076,0.049416,0.000525
40750,9.412659,-0.774496,2.762847,-0.016464,0.051051,0.009741
40751,9.367932,-0.875362,2.620472,-0.008070,0.053804,0.018203
40752,9.463245,-0.887926,2.482835,0.017259,0.049265,0.021256
40753,9.517734,-0.876430,2.357832,0.030862,0.057254,0.018892
40754,9.509045,-0.917649,2.320029,0.037052,0.059060,0.018056
40755,9.437951,-0.913683,2.278040,0.039985,0.056412,0.021284
40756,9.376302,-0.888360,2.323703,0.051550,0.043007,0.014063
40757,9.374160,-0.807587,2.362648,0.057424,0.035427,0.014711
40758,9.395637,-0.767733,2.462220,0.059057,0.031387,0.021077
40759,9.417097,-0.727998,2.561570,0.064656,0.030826,0.021451
40760,9.457996,-0.690178,2.632470,0.079310,0.030117,0.020835
40761,9.482532,-0.571006,2.685539,0.080673,0.030814,0.021088
40762,9.560305,-0.518454,2.654993,0.073419,0.037707,0.020118
40763,9.549073,-0.458862,2.605229,0.066285,0.041265,0.018439
40764,9.571621,-0.392257,2.557055,0.050926,0.040662,0.015123
40765,9.562342,-0.352074,2.552277,0.025620,0.045218,0.012010
40766,9.505045,-0.328844,2.516110,0.005292,0.047194,0.008797
40767,9.518291,-0.391305,2.493476,-0.015527,0.041519,-0.001428
40768,9.552114,-0.465409,2.464666,-0.028170,0.042648,-0.005903
40769,9.546854,-0.534468,2.492524,-0.030981,0.041956,-0.009869
40770,9.548792,-0.634628,2.506886,-0.040752,0.043086,-0.006984
40771,9.494710,-0.711753,2.480316,-0.041899,0.039966,0.004667
40772,9.482312,-0.751491,2.520622,-0.028839,0.028131,0.010446
40773,9.466223,-0.682026,2.527417,-0.027968,0.025420,0.017048
40774,9.488568,-0.725239,2.590926,-0.035474,0.022236,0.020990
40775,9.453189,-0.726176,2.568634,-0.033292,0.022856,0.031979
40776,9.425131,-0.758105,2.532430,-0.025312,0.012694,0.025214
40777,9.458441,-0.753801,2.534974,-0.013276,0.007247,0.023398
40778,9.459015,-0.765321,2.557845,0.004241,0.002623,0.015171
40779,9.452756,-0.816575,2.536970,0.017592,0.000505,0.017747
40780,9.444649,-0.777136,2.527963,0.017052,-0.004497,0.014847
40781,9.480049,-0.790257,2.574403,0.021195,-0.002770,0.017380
40782,9.515375,-0.803856,2.620961,0.021974,-0.002496,0.026388
40783,9.499442,-0.796369,2.545790,0.017950,-0.005613,0.030668
40784,9.485056,-0.737142,2.572177,0.011811,-0.008097,0.034883
40785,9.519606,-0.742709,2.595659,0.017441,-0.009017,0.036985
40786,9.554960,-0.757640,2.641751,0.019348,-0.005270,0.032635
40787,9.575290,-0.772215,2.635552,0.022833,-0.005211,0.032969
40788,9.616879,-0.808824,2.645795,0.020268,-0.008673,0.042633
40789,9.633383,-0.904031,2.685416,0.017139,-0.012889,0.062725
40790,9.611908,-0.960090,2.610466,0.011225,-0.020085,0.073043
40791,9.576385,-0.954842,2.561653,0.020645,-0.028669,0.079170
40792,9.512878,-0.896332,2.508949,0.041071,-0.038296,0.068364
40793,9.439011,-0.812158,2.572517,0.066843,-0.041495,0.057647
40794,9.483813,-0.679580,2.545550,0.082482,-0.035132,0.042697
40795,9.518525,-0.602549,2.601493,0.082789,-0.027365,0.031944
40796,9.525441,-0.553025,2.620670,0.078165,-0.017347,0.022989
40797,9.504212,-0.449955,2.636792,0.073223,-0.019363,0.011465
40798,9.487276,-0.393003,2.765246,0.068146,-0.017702,-0.001061
40799,9.534876,-0.364861,2.773390,0.062788,-0.006370,-0.009800
