// Start Time: Unknown
// Update Rate: 100.0Hz
// Filter Profile: human (46.1)
// Firmware Version: 4.3.5
PacketCounter,Acc_X,Acc_Y,Acc_Z,Gyr_X,Gyr_Y,Gyr_Z
50013,9.754816,-1.236215,1.511121,-0.016619,0.006325,0.007756
50014,9.754617,-1.237416,1.511422,-0.018002,0.004241,0.011493
50015,9.754272,-1.247383,1.488921,-0.016613,0.006635,0.009438
50016,9.759355,-1.199275,1.522780,-0.013840,0.005330,0.009929
50017,9.758871,-1.217889,1.477557,-0.016607,0.006944,0.011120
50018,9.759058,-1.193048,1.546419,-0.018700,0.005628,0.007703
50019,9.744053,-1.193087,1.494237,-0.024942,0.006888,0.006912
50020,9.753410,-1.244431,1.513451,-0.018707,0.002273,0.008325
50021,9.713784,-1.290044,1.478441,-0.015921,0.004631,0.009877
50022,9.723285,-1.324465,1.543564,0.004915,0.006136,0.018414
50023,9.693702,-1.298464,1.507448,0.020182,0.000185,0.027830
50024,9.727733,-1.288883,1.554694,0.024352,-0.006635,0.039891
50025,9.732707,-1.243695,1.587246,0.011159,-0.017338,0.049382
50026,9.807037,-1.219541,1.939480,-0.022115,-0.016263,0.058377
50027,9.988873,-1.321846,2.598758,-0.087991,-0.014593,0.066106
50028,9.984581,-1.788643,2.768859,-0.121211,-0.008908,0.081260
50029,9.928063,-2.758267,2.478575,0.037787,0.012291,0.094953
50030,9.824721,-3.250704,1.996308,0.456376,0.051964,0.092004
50031,9.621344,-3.416442,1.308284,1.015636,0.060783,0.081425
50032,9.534284,-2.981547,0.791426,1.507652,0.064887,0.074855
50033,9.716113,-2.321319,0.807587,1.825566,0.058783,0.086206
50034,10.090263,-1.559138,1.374212,1.859600,0.116855,0.145685
50035,10.339603,-0.562739,2.192378,1.532609,0.203249,0.235860
50036,10.223291,0.708893,2.777499,0.830884,0.286195,0.339088
50037,9.894715,1.831263,3.172814,-0.174880,0.327936,0.413247
50038,9.609540,1.977840,3.226649,-1.284508,0.340221,0.458198
50039,9.356894,0.825500,2.695919,-2.236583,0.319437,0.495338
50040,9.221017,-1.035120,1.891401,-2.812563,0.284213,0.506634
50041,9.108207,-2.980557,1.161476,-2.935468,0.226651,0.496220
50042,9.069230,-4.648102,0.705528,-2.622563,0.155594,0.467283
50043,9.140752,-5.927223,0.449604,-1.948661,0.072849,0.433264
50044,9.483651,-6.611315,0.641800,-1.060465,0.008269,0.430424
50045,9.972401,-6.312703,1.363578,-0.147911,0.003022,0.440416
50046,10.174713,-5.328726,1.927971,0.626468,0.006788,0.469736
50047,10.272787,-4.160612,2.333266,1.155019,0.007211,0.515904
50048,10.241116,-2.608451,2.578415,1.352457,0.018296,0.585396
50049,10.203836,-1.101582,2.698816,1.165568,0.050993,0.643086
50050,10.048309,0.205830,2.854908,0.621079,0.098993,0.698476
50051,9.765675,1.109833,2.519106,-0.122086,0.140175,0.726858
50052,9.731269,0.988008,1.725346,-0.913339,0.196514,0.740226
50053,9.568325,-0.130786,1.234890,-1.576723,0.277612,0.781051
50054,9.451232,-1.472360,1.276488,-2.081227,0.322971,0.825338
50055,9.276135,-2.637667,1.463473,-2.383639,0.360522,0.847345
50056,8.836496,-3.633707,0.612173,-2.385442,0.318102,0.838469
50057,8.786464,-4.749851,-0.246597,-2.065961,0.229828,0.794673
50058,8.871001,-5.930342,0.465982,-1.481257,0.157320,0.732946
50059,8.975932,-7.392722,1.017231,-0.526263,0.027634,0.635205
50060,9.276326,-8.996339,0.662803,0.840654,-0.088858,0.555681
50061,9.709204,-9.123065,0.187704,2.473892,-0.146133,0.560527
50062,9.932942,-6.668548,-0.122585,3.746524,-0.183889,0.606681
50063,9.803012,-3.002886,0.006048,4.174603,-0.251943,0.664534
50064,9.915559,0.170903,1.325239,3.685055,-0.295561,0.760261
50065,9.551930,2.485466,1.827123,2.540178,-0.259103,0.813466
50066,9.290621,3.597452,2.192092,1.121499,-0.215480,0.792729
50067,9.302979,2.564941,1.852278,-0.234406,-0.100669,0.761510
50068,9.199954,0.153598,1.424952,-1.244295,0.037303,0.769286
50069,8.870872,-2.306695,0.986093,-1.756534,0.151942,0.765544
50070,8.352084,-3.663584,1.038936,-1.860165,0.231423,0.746863
50071,7.913688,-4.720061,0.604243,-1.618026,0.184254,0.661458
50072,8.068201,-6.117556,0.345585,-1.049842,0.065874,0.560783
50073,8.545650,-6.853156,1.124150,-0.244453,-0.020986,0.489014
50074,8.885529,-6.469839,1.719131,0.555840,-0.073213,0.406005
50075,9.022744,-5.555758,1.621650,1.217756,-0.178197,0.367273
50076,9.339706,-4.531282,1.789858,1.687259,-0.248814,0.365028
50077,9.630061,-3.555890,2.058877,1.788078,-0.276486,0.405700
50078,9.664376,-2.629653,2.457949,1.549771,-0.283906,0.453614
50079,9.685850,-1.938867,2.600478,1.051946,-0.235823,0.512766
50080,9.400310,-1.493110,2.021761,0.476882,-0.174174,0.541146
50081,9.346215,-1.873166,1.784210,-0.032444,-0.077802,0.592778
50082,9.321572,-3.162771,1.864476,-0.426950,0.053386,0.667805
50083,9.231983,-4.228485,2.318050,-0.701119,0.151412,0.737939
50084,8.794951,-4.391168,2.891437,-0.948991,0.211819,0.777917
50085,8.318884,-4.306189,2.515053,-1.149041,0.174043,0.783504
50086,8.090027,-4.902630,2.075046,-1.241168,0.061441,0.774196
50087,8.192974,-6.095082,2.451378,-1.098336,-0.048407,0.725824
50088,8.321543,-7.795771,2.261639,-0.605083,-0.160626,0.661553
50089,8.572313,-9.326684,2.088648,0.317590,-0.252182,0.596121
50090,9.086415,-9.119725,1.816868,1.343875,-0.276632,0.625453
50091,9.273737,-7.058598,1.432129,2.043931,-0.309856,0.626747
50092,9.784142,-4.922557,2.272064,2.185144,-0.277330,0.673514
50093,9.348018,-2.972830,2.214782,1.833411,-0.191637,0.713017
50094,9.039692,-1.679937,1.679025,1.232735,-0.150738,0.717287
50095,9.053648,-1.749860,1.556378,0.562567,-0.021339,0.774706
50096,9.202920,-2.705966,1.615157,-0.070683,0.116226,0.834164
50097,8.938168,-3.936289,2.189737,-0.554799,0.265785,0.896851
50098,8.428887,-4.292904,3.088891,-0.940885,0.377766,0.919226
50099,7.797157,-4.514649,2.748104,-1.155931,0.342771,0.893738
50100,7.668295,-5.524933,1.822050,-1.160071,0.246036,0.858240
50101,7.858905,-6.578277,2.545331,-0.972299,0.169937,0.784415
50102,7.914346,-7.882833,2.325872,-0.444571,0.050803,0.711045
50103,8.256534,-9.085788,1.805749,0.392148,-0.047536,0.674538
50104,8.512278,-8.836979,1.533922,1.282680,-0.065700,0.689550
50105,8.501656,-6.993819,1.402805,1.803220,-0.109788,0.705529
50106,8.697132,-4.961183,1.970865,1.783360,-0.115015,0.747537
50107,8.344776,-3.362110,1.992147,1.349675,-0.063357,0.777121
50108,8.076301,-2.895588,1.236868,0.797094,-0.054122,0.786147
50109,8.492788,-3.854417,1.291633,0.296525,0.080594,0.849552
50110,8.604019,-4.992088,1.715877,-0.097151,0.239822,0.916605
50111,8.191727,-5.382223,2.663643,-0.406790,0.395398,0.966215
50112,7.669764,-5.093370,3.362616,-0.737729,0.483492,0.947451
50113,7.154542,-5.320546,2.409703,-0.987685,0.438129,0.893435
50114,7.073597,-6.642713,1.538455,-1.031491,0.344010,0.817936
50115,7.228099,-7.853435,1.952708,-0.780043,0.236307,0.724284
50116,7.511004,-8.917614,1.946112,-0.258188,0.094067,0.656903
50117,7.703956,-9.630533,1.864248,0.503963,0.015981,0.624659
50118,7.751289,-9.134167,2.060670,1.230669,-0.021913,0.634111
50119,7.911037,-7.618012,2.144406,1.647779,-0.065345,0.664168
50120,8.157589,-5.992291,2.566326,1.624285,-0.048176,0.714924
50121,7.839766,-4.938374,2.348116,1.303438,-0.005893,0.756294
50122,7.437774,-4.555331,1.483402,0.926787,-0.029460,0.759388
50123,7.644456,-5.516401,1.606401,0.659772,0.025309,0.791581
50124,7.502892,-6.611266,2.251285,0.552566,0.089261,0.824242
50125,7.044570,-7.129304,3.050096,0.561707,0.093411,0.815217
50126,6.491039,-7.033170,3.745239,0.637295,0.027168,0.781704
50127,6.560001,-7.181677,4.357505,0.740645,-0.070590,0.740098
50128,6.952398,-8.129970,4.321057,0.978389,-0.109376,0.688650
50129,7.523709,-8.888798,4.190465,1.370162,-0.101624,0.655995
50130,7.555732,-8.572492,3.435210,1.801554,-0.051465,0.621729
50131,7.549649,-7.286933,2.754222,2.056952,-0.063538,0.583728
50132,7.880328,-5.733474,3.341229,1.912997,-0.018031,0.580028
50133,7.882227,-4.816988,3.606023,1.437020,0.051733,0.586449
50134,7.436679,-4.774866,3.275541,0.958172,0.092617,0.588675
50135,7.413035,-5.206566,3.404722,0.577618,0.185348,0.630445
50136,7.434159,-5.934606,3.367381,0.238826,0.333523,0.706759
50137,7.150639,-6.137382,3.380793,-0.041914,0.455633,0.771516
50138,6.669933,-5.623436,3.678520,-0.394654,0.522590,0.794293
50139,6.254335,-5.799027,3.305897,-0.737002,0.498605,0.781745
50140,6.213157,-7.579993,2.364642,-0.776506,0.391237,0.736479
50141,6.326132,-9.734105,1.632265,-0.317929,0.292870,0.687602
50142,6.739500,-10.474804,2.357911,0.458281,0.233618,0.629123
50143,6.876633,-10.006115,2.900940,1.275521,0.191989,0.627260
50144,7.028487,-8.902382,3.442273,1.854691,0.174476,0.654337
50145,6.954163,-7.397481,3.709711,2.085950,0.180196,0.696441
50146,6.810586,-5.970314,3.790194,1.949450,0.192810,0.740608
50147,6.505543,-4.832882,3.683259,1.579931,0.217199,0.755108
50148,6.398558,-4.541674,3.726351,1.119581,0.235439,0.765581
50149,6.702239,-5.139598,4.108306,0.700276,0.314702,0.794371
50150,6.736798,-5.913801,4.869719,0.387202,0.438025,0.826118
50151,6.492128,-6.149466,5.708132,0.147415,0.587159,0.823530
50152,5.909272,-5.911604,5.595773,-0.071579,0.691881,0.795005
50153,5.404903,-5.738690,4.807485,-0.301756,0.703290,0.734982
50154,5.210172,-6.228668,3.994247,-0.488584,0.677607,0.655720
50155,5.262024,-7.181957,3.679559,-0.492561,0.622001,0.581636
50156,5.435914,-8.212159,3.939881,-0.265583,0.561640,0.508017
50157,5.672595,-9.036922,4.373520,0.132589,0.569135,0.454646
50158,5.837832,-9.427300,4.310308,0.681156,0.608594,0.423124
50159,5.732625,-8.760097,4.197675,1.179342,0.650961,0.392219
50160,5.482441,-7.679856,4.104522,1.449911,0.639081,0.347069
50161,5.369087,-6.951289,4.190481,1.465099,0.590472,0.309171
50162,5.419921,-6.780325,4.383665,1.362956,0.510359,0.272919
50163,5.711285,-6.989613,4.671103,1.275107,0.445789,0.253860
50164,5.927275,-7.252962,4.421069,1.322799,0.426590,0.246155
50165,5.801172,-7.777470,4.045173,1.535745,0.425396,0.246893
50166,5.597550,-8.369631,4.083689,1.912996,0.417612,0.251509
50167,5.543390,-8.809127,4.015836,2.397196,0.433372,0.266922
50168,5.668966,-8.930636,4.025360,3.020003,0.449454,0.247365
50169,5.785411,-8.276059,4.331726,3.611053,0.472621,0.246264
50170,5.804251,-6.455311,4.980026,3.980242,0.490564,0.255692
50171,5.516712,-4.143725,5.767638,3.957546,0.501427,0.271506
50172,5.160648,-2.701390,6.332550,3.539950,0.495724,0.293883
50173,4.766262,-2.352409,6.602390,2.960321,0.464372,0.309721
50174,4.585950,-2.860599,6.609154,2.440356,0.429258,0.324668
50175,4.757851,-4.007003,6.517525,2.143493,0.406204,0.327614
50176,4.992698,-5.159497,6.389052,2.177605,0.412183,0.336129
50177,5.273858,-5.783326,6.306309,2.516735,0.464081,0.333137
50178,5.108274,-5.429635,6.343629,2.959210,0.519547,0.351887
50179,4.661099,-4.493999,6.255979,3.319025,0.542686,0.372697
50180,4.228158,-3.644990,6.419334,3.521213,0.519296,0.396994
50181,4.449377,-3.297621,6.740231,3.587139,0.455763,0.417712
50182,4.895989,-3.601757,6.854423,3.707551,0.429754,0.417573
50183,5.116826,-3.882948,6.769270,4.044136,0.426493,0.402186
50184,5.043734,-3.170043,7.072622,4.501845,0.462942,0.381386
50185,4.562761,-1.872696,7.127161,4.825134,0.533123,0.354795
50186,3.836686,-0.871197,6.989088,4.895666,0.544652,0.338185
50187,3.575073,-0.025655,7.107659,4.711057,0.490910,0.327333
50188,3.939080,0.395169,7.721040,4.322753,0.427537,0.320146
50189,4.336579,0.456504,8.249818,3.924314,0.408777,0.311375
50190,4.304669,0.812490,8.610756,3.652728,0.428646,0.307612
50191,4.233603,1.282293,8.910867,3.423014,0.472071,0.322316
50192,3.886635,1.206732,8.718401,3.211519,0.490290,0.370796
50193,3.679793,0.962651,7.791141,3.121694,0.473214,0.424030
50194,3.977442,0.369975,7.041394,3.108036,0.457381,0.456196
50195,4.506656,-0.515492,6.439917,3.320831,0.492772,0.448214
50196,4.996669,-1.087775,6.560242,3.962790,0.648337,0.425831
50197,4.707009,0.250249,7.366971,4.692852,0.763012,0.432714
50198,3.958190,3.465562,8.222671,4.898279,0.811681,0.476360
50199,2.708992,6.670094,8.740122,4.329417,0.759322,0.451550
50200,2.159596,7.699466,8.676299,3.184044,0.595935,0.324922
50201,2.510221,5.452457,8.203475,2.170982,0.418847,0.264008
50202,3.312564,1.757694,7.540377,1.926924,0.336313,0.249293
50203,4.082212,-0.828526,6.951420,2.576856,0.348488,0.245381
50204,4.117098,-0.768621,6.766426,3.619397,0.423826,0.276921
50205,3.677011,1.837663,6.695175,4.375591,0.477205,0.337941
50206,3.050347,5.310305,6.830424,4.440996,0.473704,0.373819
50207,2.568044,7.450505,7.140054,3.769920,0.422613,0.412830
50208,2.463923,6.978296,7.222438,2.874399,0.338237,0.377574
50209,2.942484,4.689662,7.055708,2.415747,0.288120,0.342745
50210,3.381921,2.955869,6.564158,2.596805,0.289435,0.292936
50211,3.265121,3.185523,6.283719,3.125716,0.316554,0.284826
50212,3.038589,5.353943,6.504505,3.465177,0.329851,0.284690
50213,2.702805,7.952150,6.719636,3.219797,0.326898,0.315816
50214,2.311969,9.063119,6.888087,2.519668,0.276584,0.344313
50215,2.697447,8.172469,6.970660,1.821824,0.215546,0.246292
50216,3.169583,6.252942,6.755370,1.514244,0.200991,0.185867
50217,3.477040,5.237921,6.489650,1.587603,0.199486,0.146533
50218,3.367474,5.859976,6.274651,1.776084,0.193099,0.087621
50219,3.309175,7.311290,6.084525,1.680959,0.157496,0.053572
50220,3.035069,8.017143,5.563971,1.247862,0.096120,0.040294
50221,2.738962,6.774835,4.858322,0.786826,-0.000188,0.076113
50222,2.992713,4.536811,4.784856,0.764425,-0.106544,0.153520
50223,3.880110,3.842802,5.354767,1.208894,-0.146612,0.236068
50224,3.602423,5.358934,5.730795,1.710145,-0.113317,0.291647
50225,2.702261,7.648066,6.094948,1.849135,-0.109558,0.323668
50226,2.520778,9.538464,6.182314,1.446449,-0.137079,0.350512
50227,2.693831,10.062592,5.994956,0.710986,-0.176493,0.304032
50228,3.119868,9.184341,5.736034,0.053747,-0.192823,0.210709
50229,3.309963,7.979396,5.657299,-0.343554,-0.185990,0.156576
50230,3.530755,7.679053,6.059696,-0.444946,-0.146937,0.133946
50231,3.350945,8.247890,6.479258,-0.485395,-0.085535,0.142278
50232,3.308416,8.591904,6.650632,-0.575431,-0.042873,0.160028
50233,3.187271,7.887243,6.398510,-0.624105,-0.009430,0.176710
50234,3.407794,7.553833,6.611231,-0.487128,0.001640,0.190402
50235,3.414929,8.226953,6.893823,-0.393477,0.051060,0.176836
50236,3.230277,8.323756,6.739345,-0.414322,0.077037,0.154279
50237,3.348684,8.157729,6.623276,-0.373717,0.079150,0.125966
50238,3.316219,8.765938,6.843692,-0.389373,0.087527,0.098727
50239,3.210941,9.420782,7.084513,-0.537031,0.094645,0.056107
50240,3.158717,9.670404,7.066636,-0.822587,0.090495,0.006679
50241,3.113145,9.811440,7.086614,-1.213403,0.058697,-0.065337
50242,3.107524,9.978391,7.254667,-1.680618,0.026477,-0.142878
50243,3.060844,10.312246,7.125152,-2.297658,-0.006030,-0.229403
50244,2.841285,9.391108,6.529039,-2.984733,-0.073657,-0.326072
50245,2.961264,8.188087,6.452897,-3.411385,-0.165226,-0.395642
50246,3.462752,7.590144,6.767766,-3.683387,-0.191926,-0.459177
50247,3.400891,7.615249,6.902461,-3.958033,-0.198251,-0.493191
50248,3.596878,8.151850,6.860659,-4.419321,-0.228009,-0.534232
50249,3.579619,8.838158,6.517233,-5.263746,-0.261998,-0.557144
50250,3.473038,8.644984,5.746686,-6.464434,-0.342491,-0.580873
50251,3.577885,7.184632,5.488207,-7.702251,-0.453821,-0.610592
50252,3.715238,3.917048,4.943585,-8.448865,-0.480869,-0.683409
50253,3.397305,-0.362390,5.063017,-8.371470,-0.491082,-0.638190
50254,3.834214,-2.888865,6.105148,-7.353933,-0.455957,-0.502655
50255,4.035508,-2.443903,7.172375,-6.181262,-0.341123,-0.353907
50256,3.507149,-0.913864,7.899584,-5.379014,-0.295092,-0.232731
50257,3.221536,0.161226,8.229027,-5.015496,-0.306297,-0.085611
50258,3.234365,0.117463,8.288539,-4.896364,-0.338714,0.030889
50259,3.350760,-0.791419,8.044421,-4.787335,-0.354572,0.089388
50260,3.537152,-2.315659,7.645443,-4.480644,-0.357746,0.077959
50261,3.982519,-4.125546,8.055214,-3.789714,-0.271586,-0.029340
50262,4.389246,-5.003151,8.852674,-2.846421,-0.139918,-0.062557
50263,4.232985,-3.889081,9.607668,-2.036371,0.003398,-0.068520
50264,3.608265,-1.657759,10.128515,-1.854468,0.056272,-0.035378
50265,3.152595,0.156242,10.278695,-2.397706,0.027284,0.012333
50266,3.061175,0.742673,9.990018,-3.397043,-0.070871,0.050889
50267,3.260117,0.133119,9.626251,-4.431796,-0.177626,0.066789
50268,3.637506,-1.212717,9.403815,-5.227181,-0.215393,0.075530
50269,3.958953,-2.642848,9.157301,-5.704435,-0.182983,0.066263
50270,4.010300,-3.532180,8.636350,-5.909199,-0.111299,0.068791
50271,3.736148,-3.633814,7.876463,-6.060280,-0.068950,0.093431
50272,3.409972,-3.523324,7.062381,-6.314809,-0.063267,0.131336
50273,3.213771,-3.809905,6.246663,-6.646408,-0.097267,0.153221
50274,3.220131,-4.526171,5.444293,-6.885183,-0.142419,0.139880
50275,3.322107,-6.239931,4.450230,-6.774270,-0.166099,0.067714
50276,3.741253,-8.907576,4.118944,-6.190653,-0.146805,-0.006635
50277,4.298021,-11.043119,4.434190,-5.162308,-0.009962,0.020144
50278,4.299344,-11.302103,4.393506,-3.948927,0.145313,0.084700
50279,3.720933,-9.742667,4.395836,-3.057088,0.210953,0.103320
50280,3.466866,-7.094111,4.920543,-2.799932,0.167752,0.130713
50281,3.832464,-4.721797,5.214587,-3.166566,0.163885,0.102602
50282,4.192311,-3.484727,5.082754,-3.879167,0.179201,0.023540
50283,4.394524,-3.685613,4.689654,-4.531890,0.242004,-0.083406
50284,4.363946,-5.027791,3.387322,-4.955236,0.338331,-0.179931
50285,3.684673,-6.727168,1.565806,-5.056325,0.429743,-0.251337
50286,2.963709,-7.997057,0.351887,-4.928699,0.453976,-0.293980
50287,2.785128,-8.700173,0.135353,-4.728914,0.395332,-0.300082
50288,3.243676,-9.552238,0.446625,-4.520487,0.342266,-0.256755
50289,3.794828,-10.262251,1.156545,-4.272169,0.309942,-0.191705
50290,4.095911,-10.624859,1.299667,-3.999243,0.291289,-0.092049
50291,4.062884,-10.549065,0.996566,-3.741803,0.241916,0.050991
50292,4.255377,-9.690243,0.546598,-3.584226,0.198830,0.220054
50293,3.928042,-9.188629,-0.513501,-3.543778,0.163767,0.313430
50294,2.946062,-10.159267,-1.053914,-3.491817,0.036960,0.352922
50295,3.013497,-11.650116,-1.524705,-3.190237,-0.077211,0.374905
50296,3.649694,-12.572546,-1.856432,-2.568118,-0.082750,0.374271
50297,4.092237,-11.793646,-1.190283,-1.874330,-0.010170,0.402507
50298,4.148501,-9.714041,-0.562237,-1.533531,0.104249,0.436996
50299,3.808842,-7.691928,-0.633477,-1.624492,0.205152,0.478985
50300,2.998464,-6.721312,-1.128179,-1.931209,0.227718,0.427444
50301,2.824783,-7.108092,-1.595054,-2.257547,0.202030,0.325330
50302,3.199334,-8.216126,-2.329902,-2.365731,0.201573,0.240247
50303,3.482621,-9.263922,-2.945137,-2.084459,0.223632,0.128385
50304,3.609793,-9.452806,-3.166722,-1.526812,0.260652,0.007335
50305,3.638137,-9.119452,-3.722313,-0.896840,0.276401,-0.114253
50306,3.194487,-9.025834,-4.899616,-0.258679,0.210106,-0.226350
50307,2.287708,-9.329639,-6.293374,0.594776,0.074789,-0.403435
50308,1.969508,-9.871500,-5.482900,1.677373,-0.217558,-0.670259
50309,3.346145,-10.775042,-4.434030,2.971801,-0.503290,-0.827705
50310,4.280716,-11.943065,-3.004900,4.380545,-0.710895,-0.876033
50311,4.731718,-11.324343,-0.525225,5.537071,-0.735949,-0.717328
50312,4.470393,-7.245656,0.658226,5.753544,-0.629565,-0.448664
50313,3.696191,-3.103308,0.825612,4.829383,-0.565672,-0.226386
50314,3.177343,-1.989910,0.255524,3.279020,-0.563701,-0.123751
50315,2.980553,-3.583463,0.448800,1.622015,-0.510340,-0.025903
50316,3.256660,-5.144510,1.802317,0.170044,-0.383958,0.012812
50317,3.723465,-5.886845,2.958956,-1.041146,-0.146467,-0.045157
50318,3.483573,-6.585831,3.260639,-2.010563,0.095521,-0.130535
50319,3.191220,-7.660109,2.701772,-2.563881,0.262424,-0.241493
50320,3.272375,-9.093191,1.704429,-2.716042,0.369492,-0.350309
50321,3.664826,-10.547630,0.780452,-2.511892,0.389453,-0.424011
50322,4.308923,-11.519974,0.156604,-2.055860,0.369379,-0.441875
50323,4.660764,-11.711011,-0.281705,-1.425151,0.346123,-0.426753
50324,4.914459,-11.207107,-0.780274,-0.796486,0.294290,-0.393738
50325,5.215647,-10.471061,-0.804441,-0.363436,0.216522,-0.344636
50326,5.397115,-9.672721,-0.780421,-0.159296,0.189223,-0.263932
50327,5.005640,-8.989348,-0.924320,-0.177570,0.174937,-0.181624
50328,4.760089,-8.281219,-0.787226,-0.353907,0.154825,-0.104764
50329,4.862228,-7.600726,-0.541056,-0.704521,0.145589,-0.021266
50330,4.801151,-7.022739,-0.179795,-1.188241,0.154937,0.053310
50331,4.974970,-6.752172,-0.192240,-1.713972,0.203368,0.127431
50332,5.027512,-6.719526,-0.578776,-2.156220,0.279716,0.181127
50333,4.940799,-6.955348,-1.600119,-2.404772,0.380953,0.177788
50334,4.226123,-7.477934,-2.984165,-2.380933,0.461693,0.088064
50335,3.411329,-8.214614,-4.304031,-2.064793,0.439356,-0.092933
50336,2.736981,-9.107528,-5.255450,-1.404878,0.329252,-0.343114
50337,3.168645,-10.219287,-5.641678,-0.427070,0.106639,-0.602991
50338,4.485393,-11.122320,-5.440525,0.639408,-0.139087,-0.719058
50339,5.622544,-10.590373,-4.409955,1.637383,-0.263440,-0.684296
50340,5.303423,-8.609881,-3.460711,2.292955,-0.365009,-0.605531
50341,4.697952,-7.225064,-2.597548,2.353464,-0.504376,-0.457922
50342,4.372002,-7.076359,-2.370898,2.007181,-0.607591,-0.286352
50343,4.203865,-8.056817,-2.179467,1.618437,-0.662716,-0.190544
50344,4.071672,-9.043521,-1.607517,1.388390,-0.611857,-0.140089
50345,3.814061,-9.146061,-0.822307,1.316237,-0.451552,-0.142216
50346,3.640666,-8.383495,-0.173630,1.178631,-0.268040,-0.156736
50347,3.567131,-7.643994,0.284874,0.824454,-0.089012,-0.180991
50348,3.444836,-7.308509,0.314061,0.368093,0.044951,-0.233588
50349,2.975477,-7.776156,-0.111822,-0.059558,0.123298,-0.315123
50350,2.921197,-8.824862,-0.387366,-0.313811,0.115079,-0.423576
50351,3.492192,-9.958193,-0.792552,-0.329502,0.086930,-0.541369
50352,4.229130,-10.913112,-0.994674,-0.052750,0.023027,-0.646029
50353,5.030577,-11.538598,-1.075932,0.457329,-0.058611,-0.700981
50354,5.405252,-11.633718,-1.293872,1.036618,-0.128495,-0.710884
50355,5.532251,-11.356906,-0.904729,1.564338,-0.249740,-0.692670
50356,5.885178,-10.751467,-0.038764,1.897946,-0.329348,-0.614645
50357,5.812532,-9.628082,0.820116,1.993951,-0.320506,-0.508717
50358,5.590387,-8.510755,1.318817,1.822563,-0.267227,-0.383776
50359,5.423095,-7.960877,1.252157,1.453536,-0.193604,-0.256874
50360,5.301889,-8.149825,0.837778,1.050328,-0.052128,-0.138344
50361,5.185125,-8.042168,0.479635,0.650139,0.107235,-0.093965
50362,5.092915,-7.329717,0.629848,0.178148,0.287089,-0.104428
50363,4.420732,-6.151993,0.819878,-0.322239,0.429068,-0.204380
50364,3.897549,-5.478574,1.283218,-0.781795,0.467004,-0.375653
50365,3.735777,-6.088160,0.684524,-0.952963,0.513910,-0.591583
50366,3.561111,-7.781346,-0.282509,-0.674721,0.448943,-0.805217
50367,3.985836,-9.086655,-0.658134,-0.109900,0.380444,-0.981071
50368,5.039727,-9.127180,-0.387541,0.503804,0.304779,-1.124405
50369,5.834746,-8.362496,-0.323161,0.973174,0.250382,-1.196487
50370,6.219979,-7.279368,-0.642689,1.217639,0.106277,-1.223558
50371,6.825028,-7.028112,-0.206907,1.227511,-0.066974,-1.193065
50372,7.574520,-7.597768,0.620966,1.086728,-0.148265,-1.067544
50373,7.415451,-7.954297,0.835869,0.912312,-0.073340,-0.894954
50374,6.506344,-7.479301,0.372962,0.736155,0.011639,-0.729999
50375,5.942783,-6.888609,-0.101472,0.498914,0.099990,-0.594476
50376,5.672097,-6.796564,-0.122204,0.153257,0.189822,-0.498018
50377,5.389452,-6.924664,0.283082,-0.167382,0.289895,-0.492688
50378,5.160030,-6.815520,0.390669,-0.412157,0.365110,-0.555300
50379,5.024811,-6.481704,0.273881,-0.603761,0.362394,-0.653691
50380,5.172124,-6.558670,0.109473,-0.724028,0.278994,-0.785416
50381,5.669124,-7.582447,-0.041798,-0.648822,0.153803,-0.899807
50382,6.302855,-8.663303,-0.111218,-0.315420,0.049177,-0.980718
50383,6.753718,-9.380607,-0.278526,0.178367,-0.038755,-1.027962
50384,7.171089,-9.197822,-0.443631,0.653999,-0.113881,-1.035758
50385,7.448998,-8.355361,-0.294363,0.920377,-0.189241,-1.009435
50386,7.611412,-7.959829,0.072913,0.912040,-0.253138,-0.943159
50387,7.739188,-8.388511,0.781292,0.760021,-0.280095,-0.851285
50388,7.750811,-8.692193,1.565593,0.566931,-0.269562,-0.748859
50389,7.422372,-8.618236,1.941261,0.339059,-0.209175,-0.639040
50390,6.770027,-8.473100,1.698791,0.089212,-0.158330,-0.552071
50391,6.309568,-8.390576,1.244805,-0.107062,-0.143562,-0.499783
50392,6.037287,-8.393566,0.669786,-0.162116,-0.158660,-0.465928
50393,6.070527,-8.300522,0.611486,-0.084091,-0.177427,-0.416215
50394,6.561526,-8.331546,1.340278,0.049998,-0.129309,-0.366139
50395,6.955957,-8.268248,1.789504,0.294042,0.043785,-0.371738
50396,6.740982,-7.478712,1.378636,0.502297,0.235513,-0.428487
50397,6.277205,-6.109598,0.762450,0.506551,0.331624,-0.540313
50398,6.120491,-5.164331,0.140387,0.266682,0.286977,-0.694952
50399,6.563632,-5.566293,0.134974,-0.049675,0.161739,-0.883633
50400,6.814729,-6.274161,-0.095841,-0.064236,0.052221,-1.070802
50401,6.785022,-6.638660,-0.277546,0.156535,-0.096502,-1.244633
50402,6.986296,-7.248139,-0.491130,0.568377,-0.259578,-1.320447
50403,7.550368,-7.594912,-0.073130,1.069265,-0.375680,-1.308812
50404,8.394646,-7.219325,1.009916,1.493294,-0.387803,-1.224343
50405,8.742691,-5.875557,1.542306,1.625122,-0.255456,-1.098036
50406,8.064080,-4.158057,1.048310,1.406683,-0.114365,-0.984517
50407,7.404318,-3.487835,0.100929,0.937548,-0.068780,-0.885805
50408,7.506565,-4.240209,-0.315595,0.410760,-0.022024,-0.761108
50409,7.669507,-5.087191,0.144659,-0.093867,0.095385,-0.676078
50410,7.481608,-5.386613,0.783474,-0.485756,0.216447,-0.681783
50411,7.103890,-5.118525,1.187218,-0.771935,0.311223,-0.752729
50412,6.772994,-4.756708,1.198804,-1.027851,0.330405,-0.846043
50413,6.906693,-4.785952,1.114977,-1.292961,0.279441,-0.926734
50414,7.688249,-5.334216,0.954977,-1.515742,0.209355,-0.973088
50415,8.399203,-6.234522,0.551356,-1.600256,0.124432,-0.985970
50416,8.554512,-7.330738,-0.631844,-1.286636,0.007954,-1.000050
50417,8.598230,-8.061855,-1.438271,-0.557352,-0.157110,-1.055126
50418,9.093054,-8.375678,-1.267810,0.265092,-0.310183,-1.075902
50419,9.869104,-8.151554,-0.497200,0.891128,-0.352718,-1.030518
50420,9.817302,-7.022667,-0.161514,1.247194,-0.275396,-0.933033
50421,9.102348,-4.978152,-0.723001,1.266505,-0.204329,-0.838192
50422,8.525155,-2.789647,-0.408115,0.840672,-0.156037,-0.752967
50423,8.380687,-1.959776,0.505410,0.084387,-0.105479,-0.712049
50424,8.326022,-2.950294,0.937355,-0.716473,-0.006389,-0.680697
50425,8.021691,-4.702323,1.232593,-1.198841,0.087276,-0.677580
50426,7.878649,-5.844095,1.432041,-1.246877,0.172392,-0.724593
50427,7.660312,-6.054288,1.037442,-1.015456,0.222972,-0.800483
50428,7.854794,-5.820577,1.027014,-0.796299,0.189050,-0.891877
50429,8.625307,-5.795405,2.007956,-0.696684,0.140652,-0.967020
50430,9.268901,-6.548590,2.146474,-0.535901,0.097165,-1.011625
50431,9.260534,-7.174586,1.561078,-0.128476,0.051915,-1.019132
50432,9.291632,-6.767411,1.112869,0.305586,0.011264,-1.000412
50433,9.285098,-5.589168,1.274302,0.533704,-0.023531,-0.974894
50434,9.747065,-4.989834,1.993399,0.498951,-0.024022,-0.910013
50435,9.829464,-4.793592,2.417006,0.343399,0.064998,-0.823737
50436,9.448784,-4.572882,2.310784,0.144958,0.136175,-0.768808
50437,8.873747,-4.170417,1.145555,-0.077182,0.178445,-0.740156
50438,8.468946,-3.608781,-0.281432,-0.324581,0.191534,-0.735185
50439,8.435428,-3.750752,-0.495298,-0.563158,0.218417,-0.739663
50440,8.544282,-4.472838,-0.318469,-0.676881,0.283060,-0.747074
50441,8.740263,-5.115750,0.079184,-0.585737,0.372428,-0.766365
50442,8.765039,-4.845302,0.953883,-0.415811,0.449188,-0.796121
50443,9.055354,-3.885505,1.625097,-0.428689,0.452853,-0.815927
50444,9.445897,-3.484653,1.845445,-0.681227,0.407018,-0.818895
50445,9.529777,-3.997689,1.684584,-0.924654,0.334270,-0.820390
50446,9.653489,-4.899342,1.238406,-0.914889,0.224241,-0.823839
50447,9.950734,-5.860383,0.449708,-0.582342,0.129999,-0.822833
50448,9.904142,-6.054339,-0.518043,-0.025813,0.060581,-0.821723
50449,9.905846,-5.396141,-0.960221,0.452603,-0.033764,-0.800731
50450,10.137741,-4.301711,-0.115312,0.576626,-0.076709,-0.715462
50451,10.015551,-3.326892,0.672524,0.315704,-0.084111,-0.589033
50452,9.662507,-2.659326,0.648954,-0.231461,-0.115831,-0.450986
50453,9.397112,-2.450361,-0.202044,-0.911347,-0.165786,-0.338497
50454,9.162385,-2.793110,-0.568092,-1.465818,-0.195847,-0.303819
50455,9.180085,-3.706451,-0.531342,-1.758715,-0.148794,-0.284332
50456,8.906329,-4.712816,0.299306,-1.660983,0.008585,-0.318817
50457,8.224934,-5.017313,1.132114,-1.298758,0.190835,-0.367408
50458,7.875343,-4.817539,1.424078,-0.880412,0.323530,-0.428660
50459,8.206777,-4.334659,1.045392,-0.583665,0.385551,-0.475504
50460,8.586180,-4.007147,0.436712,-0.449937,0.389507,-0.521332
50461,8.961671,-4.241490,0.716987,-0.292798,0.346262,-0.599922
50462,9.435893,-4.960242,0.624004,-0.022907,0.280794,-0.623729
50463,9.686552,-5.325236,0.037593,0.383492,0.215476,-0.608365
50464,9.758232,-4.665548,-0.258975,0.759723,0.154074,-0.584883
50465,9.885419,-3.554024,-0.141888,0.945061,0.085476,-0.557837
50466,9.971494,-2.347669,-0.062786,0.900313,0.027318,-0.515718
50467,9.660015,-1.449822,0.216604,0.677169,-0.014857,-0.479993
50468,9.264960,-0.897682,0.223128,0.335308,-0.042024,-0.443237
50469,9.111683,-0.767193,-0.062731,-0.110177,-0.058756,-0.395458
50470,9.042662,-1.621614,-0.518221,-0.516927,-0.007185,-0.384056
50471,8.611876,-2.880794,-0.859247,-0.681501,0.084208,-0.387574
50472,8.462973,-3.848281,-0.953028,-0.543637,0.155410,-0.409726
50473,8.794246,-3.782073,-0.501599,-0.237343,0.219818,-0.450636
50474,9.140674,-2.833496,0.161211,-0.032330,0.254389,-0.503011
50475,9.491186,-1.968905,0.943044,-0.042318,0.199666,-0.546051
50476,9.882826,-2.188757,1.233212,-0.138912,0.107837,-0.528141
50477,9.794670,-2.499776,1.005522,-0.123965,0.040225,-0.509984
50478,9.655048,-2.330960,0.692480,-0.063469,-0.024005,-0.489420
50479,9.635294,-1.925472,0.453107,-0.078163,-0.082754,-0.476608
50480,9.623756,-1.713234,0.041797,-0.165979,-0.132789,-0.476866
50481,9.591938,-2.117518,-0.248290,-0.270151,-0.190704,-0.467922
50482,9.768484,-2.560862,-0.326816,-0.317086,-0.235099,-0.430995
50483,10.079807,-2.771989,-0.455552,-0.283503,-0.254929,-0.377387
50484,10.217422,-2.624896,-0.314275,-0.262586,-0.252218,-0.302113
50485,10.239771,-2.439155,-0.123625,-0.276830,-0.227823,-0.229627
50486,10.064364,-2.217080,0.346611,-0.287490,-0.177461,-0.173337
50487,9.741986,-2.025503,0.737120,-0.302612,-0.097042,-0.154339
50488,9.304109,-2.043550,0.824434,-0.366210,-0.056951,-0.154763
50489,9.150800,-2.229222,0.847526,-0.433426,-0.047330,-0.169636
50490,9.235761,-2.570421,0.926708,-0.470276,-0.045946,-0.197080
50491,9.446277,-2.834921,1.183990,-0.441676,-0.034444,-0.212619
50492,9.710528,-2.791887,1.424445,-0.365102,-0.013300,-0.228666
50493,9.861428,-2.682722,1.617571,-0.297208,0.004734,-0.232634
50494,9.989435,-2.666648,1.605757,-0.244529,0.023381,-0.241993
50495,10.072339,-2.710451,1.607512,-0.169759,0.045129,-0.242933
50496,10.108478,-2.797837,1.474021,-0.070461,0.071322,-0.247552
50497,10.064831,-2.846750,1.394662,0.035663,0.094286,-0.250167
50498,10.118894,-2.727302,1.369068,0.130259,0.108326,-0.245256
50499,10.177216,-2.573452,1.342534,0.183214,0.124933,-0.237268
50500,10.150058,-2.274824,1.254938,0.202681,0.143196,-0.227880
50501,10.054321,-1.963883,1.193700,0.182906,0.158226,-0.228884
50502,9.971782,-1.776701,1.022902,0.129152,0.157009,-0.217142
50503,9.940173,-1.833255,0.805986,0.101784,0.160312,-0.219207
50504,9.819568,-2.025400,0.536114,0.125668,0.156609,-0.223533
50505,9.793824,-2.194162,0.408249,0.202254,0.148959,-0.226746
50506,9.783123,-2.261817,0.267805,0.298224,0.136008,-0.218826
50507,9.768088,-2.003125,0.329852,0.371141,0.121725,-0.200701
50508,9.862446,-1.708958,0.503838,0.379238,0.100981,-0.174586
50509,9.851773,-1.393669,0.500361,0.325958,0.077463,-0.135878
50510,9.916071,-1.299593,0.521713,0.224109,0.059553,-0.092028
50511,9.853382,-1.364041,0.344319,0.133647,0.043439,-0.061927
50512,9.758910,-1.544522,0.206714,0.062935,0.022076,-0.039587
50513,9.687109,-1.693938,0.184917,0.048094,0.009667,-0.030374
50514,9.662596,-1.746965,0.146570,0.063209,0.009370,-0.026576
50515,9.655042,-1.808219,0.183496,0.082352,0.010086,-0.027875
50516,9.678895,-1.899400,0.274721,0.110825,0.018696,-0.043231
50517,9.656814,-1.939044,0.312292,0.150209,0.039225,-0.055876
50518,9.656207,-1.950802,0.421854,0.178570,0.054239,-0.076813
50519,9.652721,-1.979230,0.413647,0.216442,0.081715,-0.096804
50520,9.564395,-1.989382,0.333123,0.246909,0.086818,-0.121824
50521,9.517537,-2.089161,0.266947,0.298939,0.073929,-0.134371
50522,9.489077,-2.187328,0.324616,0.375765,0.059871,-0.139110
50523,9.481733,-2.257471,0.452459,0.478821,0.036966,-0.138572
50524,9.587046,-2.258368,0.641531,0.610101,0.016331,-0.131774
50525,9.725457,-2.124651,0.708065,0.746818,0.010186,-0.125505
50526,9.817962,-1.932844,0.765351,0.858178,0.014685,-0.120449
50527,9.829086,-1.689250,0.762853,0.930743,0.009524,-0.111838
50528,9.927296,-1.439333,0.753233,0.936047,0.009274,-0.107760
50529,9.941562,-1.158582,0.758407,0.903733,0.005887,-0.096436
50530,9.946132,-0.962344,0.701994,0.836975,0.001306,-0.091885
50531,9.894091,-0.801201,0.700303,0.757870,-0.007044,-0.082749
50532,9.849945,-0.721015,0.739264,0.665632,-0.017734,-0.074381
50533,9.736394,-0.797695,0.766173,0.607012,-0.029330,-0.066288
50534,9.752297,-0.963262,0.787609,0.578011,-0.042592,-0.053226
50535,9.785199,-0.971976,0.868313,0.561971,-0.054389,-0.046568
50536,9.801881,-0.975123,0.896522,0.552018,-0.056584,-0.035796
50537,9.840210,-0.944598,0.863412,0.531137,-0.063515,-0.023292
50538,9.902122,-0.854855,0.862123,0.488105,-0.066889,-0.012603
50539,9.914312,-0.744712,0.853543,0.416218,-0.076553,0.000640
50540,9.919132,-0.702668,0.862129,0.313892,-0.081501,0.016395
50541,9.912972,-0.761349,0.898635,0.228007,-0.088360,0.026375
50542,9.848605,-0.878661,0.903014,0.174011,-0.072472,0.027831
50543,9.839765,-0.967543,0.847058,0.126627,-0.069561,0.043552
50544,9.850901,-1.029494,0.833071,0.073555,-0.065298,0.050160
50545,9.855198,-0.994476,0.840840,0.018359,-0.058373,0.056228
50546,9.806129,-0.971268,0.853212,-0.040893,-0.056249,0.062814
50547,9.755426,-1.119959,0.839947,-0.107704,-0.055629,0.069245
50548,9.795100,-1.237191,0.787602,-0.168178,-0.059319,0.078478
50549,9.809471,-1.423921,0.678514,-0.207232,-0.060920,0.090374
50550,9.835245,-1.504706,0.688797,-0.242064,-0.064201,0.104543
50551,9.824096,-1.602383,0.755082,-0.259151,-0.055871,0.116261
50552,9.802019,-1.643045,0.830823,-0.259889,-0.043002,0.119635
50553,9.779972,-1.829080,0.720404,-0.231595,-0.033625,0.125020
50554,9.825810,-1.878047,0.671889,-0.153349,-0.021864,0.113675
50555,9.889152,-1.779993,0.635252,-0.068339,-0.007115,0.098698
50556,9.818748,-1.781328,0.507385,0.002427,-0.003442,0.089718
50557,9.718684,-1.600111,0.559350,0.062209,-0.001109,0.082090
50558,9.665313,-1.466444,0.649288,0.110278,-0.009380,0.068596
50559,9.659084,-1.374322,0.673622,0.148120,-0.005845,0.066591
50560,9.652235,-1.287899,0.674457,0.174154,-0.013605,0.053692
50561,9.653457,-1.277617,0.722538,0.201460,-0.011909,0.039477
50562,9.663929,-1.192999,0.775199,0.223224,-0.007617,0.024614
50563,9.703881,-1.150460,0.814595,0.233187,0.000281,0.006897
50564,9.708822,-1.108845,0.831183,0.241900,0.006165,-0.005426
50565,9.703065,-1.152287,0.797779,0.245756,0.008772,-0.020928
50566,9.716597,-1.180698,0.759859,0.256775,0.009825,-0.023781
50567,9.772042,-1.151700,0.805412,0.267689,0.006266,-0.034483
50568,9.790050,-1.143187,0.884337,0.269095,0.009006,-0.034659
50569,9.810385,-1.116087,0.906315,0.256081,0.007031,-0.033179
50570,9.877105,-0.995585,0.896771,0.221026,0.006104,-0.027990
50571,9.883058,-0.943989,0.935346,0.161761,0.004741,-0.024175
50572,9.918333,-0.937727,0.960151,0.079086,0.001697,-0.016352
50573,9.926112,-1.016957,0.883256,-0.003486,-0.000321,-0.001866
50574,9.880250,-1.249186,0.880907,-0.038646,-0.005414,-0.001340
50575,9.888813,-1.322622,0.826126,-0.042128,0.001777,0.000731
50576,9.850463,-1.351326,0.836615,-0.029137,0.010512,-0.001658
50577,9.796137,-1.368527,0.819407,-0.016133,0.015622,-0.005177
50578,9.780982,-1.349187,0.816116,0.000152,0.026758,-0.014637
50579,9.745880,-1.350350,0.796033,0.015048,0.038545,-0.024277
50580,9.725123,-1.376538,0.758951,0.016970,0.045477,-0.028719
50581,9.777856,-1.370486,0.735191,0.021004,0.042244,-0.036542
50582,9.835387,-1.465519,0.794320,0.024422,0.038167,-0.040826
50583,9.882744,-1.505987,0.734119,0.034146,0.037261,-0.038383
50584,9.898147,-1.520725,0.743389,0.042650,0.031045,-0.029995
50585,9.929377,-1.547367,0.780544,0.051944,0.019715,-0.019012
50586,9.928698,-1.553018,0.759735,0.061219,0.012016,-0.006897
50587,9.909527,-1.566733,0.766484,0.069867,-0.000407,0.005955
50588,9.884587,-1.482871,0.792970,0.076172,0.002778,0.012697
50589,9.811107,-1.515187,0.781050,0.083800,-0.002983,0.010676
50590,9.789529,-1.552215,0.717834,0.101072,0.000983,0.012805
50591,9.775917,-1.664521,0.705569,0.147709,0.006416,-0.004131
50592,9.687523,-1.675786,0.691628,0.207449,0.025274,-0.015560
50593,9.617433,-1.532695,0.706699,0.252757,0.039138,-0.026974
50594,9.580887,-1.400149,0.699633,0.269171,0.046902,-0.035672
50595,9.609631,-1.299878,0.727100,0.255922,0.050289,-0.043779
50596,9.606135,-1.171787,0.823177,0.226182,0.052385,-0.045890
50597,9.657765,-1.164093,0.906395,0.172683,0.060945,-0.057596
50598,9.634173,-1.211436,0.907354,0.126298,0.060359,-0.062194
50599,9.716194,-1.254280,0.851790,0.084081,0.061738,-0.063470
50600,9.761372,-1.310115,0.852992,0.059907,0.061760,-0.061624
50601,9.789022,-1.379169,0.756129,0.052158,0.066138,-0.068031
50602,9.761985,-1.459128,0.767896,0.057746,0.063580,-0.067181
50603,9.792351,-1.496260,0.763493,0.077865,0.058788,-0.068383
50604,9.792361,-1.496904,0.747500,0.104901,0.058088,-0.066354
50605,9.813522,-1.451801,0.818684,0.130677,0.055798,-0.057236
50606,9.817757,-1.412684,0.814496,0.139776,0.049695,-0.057197
50607,9.821966,-1.373739,0.809865,0.138491,0.047545,-0.053417
50608,9.802249,-1.398134,0.775535,0.129640,0.044428,-0.046577
50609,9.802061,-1.400939,0.758441,0.120768,0.041026,-0.041418
50610,9.818004,-1.406274,0.793056,0.115372,0.037999,-0.034362
50611,9.788544,-1.349770,0.832057,0.102287,0.036219,-0.031534
50612,9.807225,-1.340239,0.808386,0.071212,0.037127,-0.023646
50613,9.753878,-1.348298,0.816955,0.044456,0.025473,-0.016679
50614,9.747151,-1.394267,0.889804,0.044206,0.038334,-0.022402
50615,9.711978,-1.404414,0.847484,0.047689,0.038716,-0.020481
50616,9.704398,-1.466438,0.875219,0.055264,0.039688,-0.023513
50617,9.703997,-1.471761,0.857276,0.078056,0.044049,-0.024273
50618,9.696606,-1.377669,0.856706,0.099386,0.052116,-0.027503
50619,9.673905,-1.265182,0.850250,0.102837,0.051635,-0.030559
50620,9.674188,-1.253366,0.879112,0.084275,0.045954,-0.025784
50621,9.727094,-1.248300,0.856853,0.060810,0.044749,-0.018766
50622,9.734756,-1.328230,0.891390,0.056031,0.037694,-0.023019
50623,9.749644,-1.352223,0.879086,0.056148,0.035805,-0.014063
50624,9.784112,-1.345849,0.907193,0.056173,0.036394,-0.010717
50625,9.871565,-1.337725,0.907747,0.062537,0.033049,-0.002727
50626,9.929206,-1.269538,0.964230,0.046680,0.033990,0.007898
50627,10.063171,-1.137021,1.021455,-0.003854,0.033657,0.014278
50628,10.178489,-1.003857,1.129555,-0.100159,0.039472,0.027962
50629,10.181521,-0.976042,1.120775,-0.221617,0.050689,0.023276
50630,10.068823,-1.076569,1.029189,-0.349827,0.059870,0.027205
50631,9.963722,-1.259795,0.965898,-0.424008,0.068072,0.016882
50632,9.861549,-1.589254,0.849193,-0.438519,0.071415,0.005323
50633,9.722542,-1.905179,0.855882,-0.381046,0.074505,-0.005826
50634,9.595447,-2.114274,0.851749,-0.263425,0.078504,-0.012701
