// Start Time: Unknown
// Update Rate: 100.0Hz
// Filter Profile: human (46.1)
// Firmware Version: 4.3.5
PacketCounter,Acc_X,Acc_Y,Acc_Z,Gyr_X,Gyr_Y,Gyr_Z
50013,9.488244,-1.163994,2.355421,-0.005087,0.012629,-0.013078
50014,9.511597,-1.128514,2.362127,-0.007523,0.013381,-0.006802
50015,9.508883,-1.214935,2.378447,-0.010131,0.013434,-0.002991
50016,9.522640,-1.204692,2.362522,-0.009154,0.012752,0.000975
50017,9.507350,-1.261779,2.351641,-0.005364,0.010194,0.004401
50018,9.506992,-1.262538,2.352681,0.001506,0.012202,0.010608
50019,9.471467,-1.222037,2.350015,0.007510,0.007325,0.015264
50020,9.479658,-1.244900,2.344673,0.018617,0.009910,0.009890
50021,9.471071,-1.171475,2.453940,0.026964,0.005935,0.017442
50022,9.458293,-1.141874,2.427776,0.037768,0.004598,0.007946
50023,9.453483,-1.127703,2.468385,0.035551,0.006917,0.006719
50024,9.434665,-1.123261,2.526038,0.048565,0.003258,-0.001538
50025,9.451189,-1.159260,2.587072,0.055684,-0.003094,-0.012033
50026,9.535562,-1.364045,2.671116,0.068916,0.002213,-0.017766
50027,9.594252,-1.612457,2.499097,0.130973,0.014722,-0.020858
50028,9.570155,-1.693431,2.397412,0.218126,0.038658,-0.022619
50029,9.665002,-1.587329,2.579013,0.259426,0.076657,-0.036481
50030,9.669410,-1.337963,2.914893,0.293549,0.129329,-0.039742
50031,9.542659,-1.049833,3.134497,0.281142,0.167413,-0.042854
50032,9.383065,-0.748432,3.058342,0.219065,0.184738,-0.041331
50033,9.327794,-0.548706,2.591246,0.121433,0.185185,-0.039529
50034,9.344714,-0.348691,2.008675,0.010890,0.171062,-0.051441
50035,9.361732,-0.422766,1.434886,-0.072877,0.153182,-0.079784
50036,9.288733,-0.581109,1.043746,-0.132916,0.098724,-0.091681
50037,9.420038,-1.133347,1.106696,-0.209583,0.064336,-0.073292
50038,9.531851,-1.531753,1.560062,-0.224463,0.083119,-0.034812
50039,9.533559,-1.658426,2.231937,-0.247038,0.128517,-0.004702
50040,9.584871,-1.785874,2.957161,-0.327867,0.191662,0.044254
50041,9.565323,-2.229433,3.514217,-0.354088,0.241333,0.116138
50042,9.432956,-2.464810,4.009767,-0.314575,0.260182,0.203678
50043,9.357980,-2.584953,4.350822,-0.208414,0.249484,0.282488
50044,9.310513,-2.496787,4.276855,-0.044066,0.211661,0.339904
50045,9.416612,-2.221222,3.949401,0.141429,0.170402,0.380478
50046,9.546133,-2.280254,3.504184,0.356075,0.151062,0.396188
50047,9.585256,-1.851013,3.131915,0.598896,0.125764,0.389703
50048,9.655198,-1.290656,2.713412,0.678262,0.134524,0.349226
50049,9.577670,-0.915044,2.260768,0.674278,0.154778,0.308805
50050,9.463240,-0.531846,1.809719,0.583161,0.172905,0.268000
50051,9.420063,-0.439162,1.430786,0.335639,0.195882,0.235448
50052,9.418915,-0.412025,1.265911,0.087552,0.218044,0.205161
50053,9.403640,-0.554807,1.456966,-0.181833,0.250140,0.183656
50054,9.262992,-0.923264,1.839086,-0.388013,0.267889,0.177381
50055,9.092020,-1.634826,2.251080,-0.518198,0.262927,0.195395
50056,9.062769,-2.423313,2.930837,-0.533723,0.261514,0.254423
50057,9.094769,-3.084945,4.004075,-0.412764,0.261101,0.333877
50058,9.214839,-3.335836,4.833381,-0.102720,0.257568,0.390741
50059,9.314958,-2.971694,5.246533,0.228263,0.249203,0.432728
50060,9.372966,-2.265691,5.228138,0.430299,0.215788,0.456515
50061,9.472368,-1.525831,5.031921,0.540760,0.183044,0.418647
50062,9.559295,-1.241218,4.516996,0.642109,0.197309,0.357663
50063,9.361769,-1.307203,3.497029,0.682122,0.216344,0.323095
50064,9.057643,-1.503419,2.016233,0.717374,0.194181,0.317380
50065,9.001893,-1.639982,0.664690,0.675847,0.154387,0.307025
50066,8.807919,-1.837735,-0.307230,0.536146,0.120196,0.300355
50067,8.797572,-1.872091,-0.661483,0.405638,0.042660,0.272459
50068,8.822111,-1.803027,-0.145460,0.278530,-0.002461,0.250619
50069,8.806538,-1.650774,0.976956,0.150446,-0.024039,0.259273
50070,8.866902,-1.778544,2.465742,-0.003287,0.004438,0.302111
50071,9.023910,-2.322511,4.074301,-0.130471,0.089848,0.397359
50072,9.000269,-2.814397,5.194918,-0.163477,0.161655,0.489196
50073,8.985527,-2.983002,5.412986,-0.130572,0.175777,0.548443
50074,9.129312,-2.895623,5.078815,0.034973,0.125925,0.572612
50075,9.283427,-2.819694,4.706908,0.207298,0.074151,0.572097
50076,9.317331,-2.729313,4.252265,0.443490,0.042811,0.538276
50077,9.247975,-2.187805,3.458580,0.660065,0.027178,0.496137
50078,9.114875,-1.975387,2.518284,0.706833,0.011260,0.466069
50079,8.979595,-1.754329,1.610166,0.744873,-0.048393,0.455286
50080,9.075453,-1.572587,1.088687,0.610845,-0.070323,0.429111
50081,9.102301,-1.457077,1.182207,0.479652,-0.064675,0.398993
50082,9.144399,-1.137114,1.651632,0.336630,-0.033098,0.358010
50083,8.975898,-1.205880,2.363995,0.124274,-0.000062,0.339122
50084,8.937253,-1.837528,3.135491,-0.086542,0.018643,0.373732
50085,9.034515,-2.509717,4.180022,-0.165877,0.076727,0.435673
50086,9.170988,-3.107880,5.239441,-0.195902,0.157167,0.496602
50087,9.156676,-3.438950,5.771030,-0.090872,0.233927,0.554409
50088,9.174469,-3.433710,5.975934,0.024529,0.268897,0.612521
50089,9.173461,-3.302984,5.820541,0.085189,0.279716,0.659199
50090,9.202545,-2.971382,5.190786,0.180110,0.274164,0.675119
50091,9.138203,-2.971487,4.270701,0.210382,0.289841,0.681137
50092,8.979469,-3.237484,3.121357,0.267885,0.260205,0.685979
50093,8.924910,-3.395640,2.041113,0.338656,0.240714,0.669228
50094,8.704030,-3.451110,1.250431,0.394821,0.192098,0.660379
50095,8.694983,-3.124852,1.083805,0.469437,0.124263,0.616759
50096,8.783164,-2.613155,1.387915,0.447196,0.106907,0.563331
50097,8.717120,-2.473500,1.914699,0.347998,0.097257,0.542092
50098,8.738879,-2.610330,2.599197,0.211827,0.118519,0.575052
50099,8.832277,-2.976877,3.852191,0.060219,0.193090,0.629064
50100,8.820234,-3.141231,5.321721,-0.058874,0.281808,0.683016
50101,8.923163,-3.244035,6.078378,-0.125676,0.365580,0.720940
50102,8.834169,-3.090605,6.012225,-0.186884,0.440296,0.750019
50103,8.665246,-3.021304,5.691695,-0.238116,0.452935,0.767546
50104,8.506590,-3.310392,5.065974,-0.233225,0.447392,0.758893
50105,8.342275,-3.718281,4.247829,-0.108068,0.398817,0.752233
50106,8.112256,-4.290346,3.159079,0.036609,0.335554,0.763577
50107,7.972117,-4.674534,2.063893,0.225754,0.267058,0.786833
50108,7.932122,-4.505106,1.392030,0.410362,0.198314,0.790954
50109,8.063182,-4.226938,1.196275,0.520433,0.134636,0.752104
50110,8.154965,-3.750090,1.431342,0.549697,0.084406,0.720269
50111,8.273953,-3.632730,2.109253,0.437823,0.052953,0.718076
50112,8.547326,-3.873513,3.020347,0.260748,0.105939,0.768102
50113,8.783950,-4.105486,4.245786,0.045674,0.224704,0.843296
50114,8.859477,-4.234472,5.700093,-0.173428,0.351621,0.904526
50115,8.881071,-4.128501,6.498711,-0.320258,0.434072,0.933452
50116,8.575500,-3.688499,6.380793,-0.468505,0.489637,0.932080
50117,8.240914,-3.857774,5.953143,-0.581516,0.500588,0.930745
50118,7.897734,-4.652298,5.241992,-0.546786,0.500809,0.932346
50119,7.445506,-5.457572,4.351681,-0.342195,0.437953,0.946052
50120,7.284484,-5.884698,3.551583,-0.019877,0.326500,0.960940
50121,7.368435,-6.074579,3.131062,0.332478,0.240030,0.972207
50122,7.415686,-6.055467,3.128200,0.657195,0.179112,0.980387
50123,7.496669,-5.728149,3.309737,0.918917,0.114156,0.974263
50124,7.744139,-5.202082,4.017976,1.075948,0.085525,0.964286
50125,7.752470,-5.058534,4.957366,1.131167,0.096316,0.972309
50126,7.755789,-5.094631,5.937576,1.128914,0.151739,1.011700
50127,7.616324,-5.080059,6.472104,1.070879,0.268153,1.073623
50128,7.410953,-4.926214,6.327778,1.001211,0.364461,1.113394
50129,7.441362,-4.792340,5.846921,0.903863,0.412230,1.135547
50130,7.692454,-4.975103,5.441563,0.779168,0.441438,1.154626
50131,7.854258,-5.439142,5.040868,0.667979,0.453176,1.173275
50132,7.823819,-5.687728,4.229808,0.646385,0.421761,1.156924
50133,7.678817,-5.532357,3.341823,0.661575,0.377244,1.128150
50134,7.434409,-5.515494,2.904856,0.678431,0.330473,1.088510
50135,7.165698,-5.515647,2.634449,0.700717,0.300680,1.043312
50136,6.939803,-4.967200,2.820448,0.734143,0.310049,0.983152
50137,6.736463,-4.729614,3.399330,0.658476,0.316109,0.963818
50138,6.686817,-4.937389,4.108470,0.540529,0.313945,1.007782
50139,6.926592,-5.180304,5.080047,0.394528,0.365713,1.094017
50140,7.064571,-5.285119,6.274375,0.233383,0.475752,1.164232
50141,6.963542,-5.109744,7.003972,0.122099,0.532125,1.189942
50142,6.824714,-4.928403,6.930163,0.015714,0.550989,1.186976
50143,6.525012,-5.027408,6.186969,-0.083939,0.532756,1.169844
50144,6.248360,-5.604648,5.528841,-0.096913,0.471222,1.146272
50145,6.087282,-6.229202,4.929422,0.021790,0.384883,1.128881
50146,5.989583,-6.653735,4.528982,0.265013,0.330017,1.113673
50147,5.820183,-6.889478,4.273917,0.531284,0.298247,1.126608
50148,5.632003,-6.806005,3.894981,0.761720,0.257495,1.137546
50149,5.653452,-6.463214,3.875881,0.917868,0.210873,1.117186
50150,5.752966,-6.116367,3.815873,0.976228,0.178070,1.076899
50151,5.876736,-5.823906,3.846566,0.909486,0.163658,1.050797
50152,6.072089,-5.702513,4.545145,0.720546,0.221707,1.048544
50153,6.202286,-5.679214,5.826625,0.488247,0.345120,1.066337
50154,6.021975,-5.533580,6.894236,0.234783,0.482275,1.094515
50155,5.751583,-5.082435,7.167243,-0.074850,0.573584,1.134199
50156,5.527115,-4.817966,6.836258,-0.432425,0.638921,1.167206
50157,5.235672,-5.066731,6.159360,-0.769510,0.669327,1.194581
50158,5.069254,-5.719599,5.569831,-1.026233,0.665194,1.213604
50159,5.087898,-6.953563,5.571900,-1.114328,0.666955,1.246997
50160,4.790855,-8.346550,5.772956,-0.977209,0.650529,1.306051
50161,4.424811,-9.300236,5.972847,-0.610504,0.564873,1.368254
50162,4.284852,-9.723385,5.974795,-0.119333,0.426873,1.415830
50163,4.249080,-9.398065,5.623269,0.402894,0.274834,1.424795
50164,4.426117,-8.512833,5.383949,0.818395,0.139944,1.386671
50165,4.718948,-7.770127,5.633843,1.091097,0.086305,1.324870
50166,4.703452,-7.215310,5.908503,1.283248,0.080174,1.274933
50167,4.560836,-6.816395,6.122163,1.402623,0.046400,1.253035
50168,4.478431,-6.734684,6.174678,1.434957,0.029259,1.282270
50169,4.319123,-6.650523,5.933431,1.463954,-0.002973,1.319551
50170,4.305174,-6.280177,5.742285,1.441515,-0.048124,1.314455
50171,4.332853,-6.047765,5.633535,1.393159,-0.083378,1.271562
50172,4.329186,-5.685150,5.668231,1.322396,-0.076051,1.197650
50173,4.184840,-5.445418,6.005297,1.243372,-0.036795,1.105706
50174,3.942654,-5.576815,6.339026,1.206771,0.007366,1.039717
50175,3.547146,-5.574951,6.306501,1.280796,0.030009,1.005668
50176,3.407567,-5.397774,6.220773,1.296517,0.016384,1.001608
50177,3.510114,-5.179992,6.356810,1.276882,0.003163,1.004979
50178,3.567232,-4.807287,6.583728,1.213939,-0.010173,0.971275
50179,3.537413,-4.711113,7.094154,1.086199,-0.021770,0.928276
50180,3.377475,-5.297918,7.509952,1.010385,-0.023028,0.910355
50181,3.125574,-6.199148,7.373353,1.149959,-0.067673,0.921790
50182,3.140522,-7.023532,7.053399,1.464070,-0.138713,0.939264
50183,3.344246,-7.357493,6.852087,1.855763,-0.201264,0.941169
50184,3.646097,-6.765215,6.513981,2.223154,-0.239404,0.878767
50185,3.566475,-5.288733,6.554209,2.344067,-0.216520,0.775268
50186,3.307889,-4.218833,6.994977,2.144174,-0.190879,0.701970
50187,3.020863,-4.278170,7.291059,1.978828,-0.175543,0.689907
50188,2.775076,-4.213044,7.280538,1.965580,-0.166592,0.694290
50189,2.784621,-3.973726,7.264789,1.891020,-0.185443,0.682272
50190,3.104653,-3.581218,7.395605,1.798115,-0.177690,0.654897
50191,3.467319,-3.115478,7.756741,1.634308,-0.115228,0.586420
50192,3.525196,-2.564797,8.070580,1.433368,0.003334,0.484936
50193,3.315345,-2.525210,8.326708,1.212413,0.090963,0.426041
50194,3.026694,-2.998249,8.512593,1.058629,0.123818,0.418722
50195,2.657292,-3.873621,8.207996,0.983931,0.075049,0.448568
50196,2.477804,-4.990151,7.427199,1.032197,-0.043436,0.505190
50197,2.836534,-5.522346,6.892740,1.297836,-0.159811,0.494562
50198,3.089593,-5.446359,7.198361,1.572147,-0.182091,0.449217
50199,3.041763,-4.789013,7.906255,1.787032,-0.171543,0.384660
50200,2.734308,-3.908536,8.693339,1.821469,-0.134605,0.346876
50201,2.579225,-3.152994,9.326320,1.669415,-0.111488,0.358910
50202,2.323389,-2.630130,9.206048,1.480450,-0.111917,0.363769
50203,2.390224,-2.496951,8.742351,1.201474,-0.141928,0.378532
50204,2.595767,-2.859541,8.212551,0.982436,-0.152672,0.376666
50205,2.635245,-3.436774,7.908967,0.922348,-0.174491,0.356626
50206,2.515533,-3.980563,7.681980,1.013820,-0.182537,0.346291
50207,2.479320,-3.897164,8.041215,1.242287,-0.211463,0.311892
50208,2.455990,-3.507779,8.198634,1.360578,-0.250410,0.294335
50209,2.401800,-3.169449,8.020275,1.374658,-0.294152,0.293003
50210,2.385724,-3.018273,7.805528,1.284598,-0.316028,0.305437
50211,2.522447,-2.852676,7.838792,1.198339,-0.331233,0.302176
50212,2.573194,-2.290377,8.022996,1.161085,-0.304254,0.271066
50213,2.576941,-1.589191,8.348746,1.095298,-0.261349,0.234126
50214,2.592281,-1.343281,8.649382,0.936854,-0.223042,0.224575
50215,2.621080,-1.640728,8.732733,0.764559,-0.199016,0.238106
50216,2.660918,-2.026833,8.350112,0.642956,-0.206260,0.254437
50217,2.845765,-2.309226,8.369569,0.510200,-0.210504,0.268346
50218,3.001756,-2.905885,8.099619,0.411528,-0.216107,0.271932
50219,3.128556,-2.608054,8.070393,0.484855,-0.228366,0.221243
50220,3.098097,-1.854683,8.638819,0.476084,-0.225348,0.153165
50221,2.816065,-1.761646,9.506256,0.363325,-0.242920,0.136920
50222,2.440284,-2.964725,9.449249,0.375385,-0.324502,0.210171
50223,2.440672,-3.602825,8.718049,0.729174,-0.443860,0.273392
50224,2.856910,-2.997986,8.622881,1.027667,-0.511744,0.275609
50225,3.163864,-1.995083,8.471341,1.147884,-0.524919,0.240853
50226,3.356275,-0.517629,8.392544,1.127520,-0.466774,0.152630
50227,3.239633,0.913785,8.388276,0.803743,-0.375307,0.068897
50228,3.150995,1.577039,8.554957,0.269730,-0.291626,0.041814
50229,3.078534,1.198269,8.846849,-0.217203,-0.243859,0.048504
50230,3.270738,0.286395,9.059161,-0.508048,-0.175720,0.041658
50231,3.401929,-0.564289,9.296048,-0.661941,-0.095844,-0.001655
50232,3.425009,-1.225073,9.659822,-0.671817,-0.038023,-0.034330
50233,3.130604,-1.787522,10.078722,-0.630410,-0.025008,-0.030520
50234,3.020517,-2.538636,9.736384,-0.495877,-0.080080,-0.031798
50235,3.208215,-2.359022,9.627732,-0.260161,-0.098246,-0.069456
50236,3.246110,-2.105375,9.802446,-0.189460,-0.084787,-0.102444
50237,3.237276,-2.156411,9.703230,-0.098751,-0.070655,-0.098405
50238,3.263595,-1.415157,9.744777,-0.100641,-0.029067,-0.125048
50239,3.335468,-0.878555,9.798373,-0.301532,0.040050,-0.159407
50240,3.383661,-0.826496,9.673170,-0.559992,0.125237,-0.187897
50241,3.441745,-1.155399,9.219740,-0.820058,0.190871,-0.210115
50242,3.513236,-1.402158,8.897030,-1.003011,0.270158,-0.253644
50243,3.473315,-1.385104,8.778164,-1.225311,0.348527,-0.319793
50244,3.329696,-1.713509,9.024016,-1.508781,0.414113,-0.337319
50245,3.162551,-2.773679,8.727012,-1.658566,0.438992,-0.296875
50246,3.075221,-2.820055,8.556948,-1.645805,0.467591,-0.313731
50247,3.081271,-2.447559,8.195079,-1.775973,0.532833,-0.369510
50248,3.373347,-2.147719,7.455900,-1.979102,0.590701,-0.447536
50249,3.612139,-1.564086,7.178629,-2.234678,0.665613,-0.537332
50250,3.591341,-1.314594,7.070938,-2.663396,0.736810,-0.595545
50251,3.421324,-1.860252,6.963031,-3.082250,0.725391,-0.600842
50252,3.236250,-2.716364,7.200410,-3.316747,0.701643,-0.570436
50253,2.703699,-3.753698,7.810047,-3.346241,0.655644,-0.506166
50254,2.251372,-5.074942,7.930738,-3.214715,0.595695,-0.446051
50255,2.008173,-5.619303,8.039462,-2.802906,0.541596,-0.423655
50256,2.081458,-5.868683,8.289458,-2.425006,0.487291,-0.416850
50257,2.334781,-6.082547,8.607990,-2.077172,0.454332,-0.426501
50258,2.240715,-6.187788,8.644670,-1.719526,0.415813,-0.442605
50259,2.134902,-6.304759,8.492744,-1.414259,0.317631,-0.439929
50260,2.186956,-6.912539,8.060035,-1.167736,0.213423,-0.389769
50261,2.322682,-7.596846,7.384160,-0.839935,0.112983,-0.336218
50262,2.470837,-7.173932,6.903583,-0.471194,0.035477,-0.314067
50263,2.836974,-5.943135,7.133904,-0.357890,0.006418,-0.332655
50264,3.052745,-4.949964,7.689898,-0.450723,0.054843,-0.356018
50265,2.955251,-4.296213,8.201689,-0.650337,0.129905,-0.380897
50266,2.726386,-4.491498,8.128433,-0.969352,0.187418,-0.353587
50267,2.636115,-5.358400,7.640834,-1.199542,0.214814,-0.291442
50268,2.578037,-6.263677,7.110196,-1.281021,0.222560,-0.235906
50269,2.698504,-6.587080,6.670353,-1.243555,0.215276,-0.234017
50270,2.837681,-6.340325,6.597437,-1.236130,0.227190,-0.260766
50271,2.880867,-6.047889,6.843017,-1.265667,0.282919,-0.307198
50272,2.772402,-5.871357,7.328516,-1.345995,0.338034,-0.332052
50273,2.563080,-6.076977,7.669011,-1.444516,0.368730,-0.322303
50274,2.342077,-6.847757,7.544168,-1.491843,0.379318,-0.256986
50275,2.328391,-7.386047,7.326624,-1.409774,0.369213,-0.202742
50276,2.356011,-7.521008,7.050480,-1.312119,0.372407,-0.182461
50277,2.499183,-7.198278,6.448139,-1.174601,0.313657,-0.203938
50278,2.874541,-6.333591,6.414134,-1.085791,0.282220,-0.228092
50279,3.067870,-6.080840,7.010511,-1.171265,0.332236,-0.239511
50280,2.830768,-6.742374,6.985748,-1.187336,0.349484,-0.226550
50281,2.706951,-7.452509,6.300875,-1.129538,0.365860,-0.201104
50282,2.854412,-7.844630,5.736927,-1.094274,0.398644,-0.191717
50283,3.032917,-7.856185,5.117014,-1.157437,0.451007,-0.233966
50284,3.142973,-6.855413,5.035795,-1.258502,0.484255,-0.345919
50285,2.934625,-5.596546,5.757503,-1.564288,0.488544,-0.466257
50286,2.469928,-4.787133,6.414014,-1.893326,0.477229,-0.527476
50287,2.247980,-5.199902,6.557888,-2.210259,0.458673,-0.506960
50288,2.051227,-6.552626,6.105216,-2.267452,0.441895,-0.434476
50289,2.103798,-8.033401,5.758673,-2.088927,0.396263,-0.372421
50290,2.310769,-8.625350,5.656862,-1.650441,0.335923,-0.381016
50291,2.788684,-7.940595,5.699611,-1.152420,0.269882,-0.463639
50292,3.377627,-6.623454,5.525272,-0.844155,0.274356,-0.570621
50293,3.478653,-5.745654,5.964549,-0.862103,0.323446,-0.633857
50294,2.962341,-6.758821,6.349821,-1.103500,0.338155,-0.619101
50295,2.469471,-8.119018,5.714257,-1.025453,0.256247,-0.561480
50296,2.590540,-8.671299,5.155802,-0.886909,0.211789,-0.465477
50297,2.751652,-9.264676,4.557978,-0.808891,0.196290,-0.421761
50298,2.953627,-8.888098,3.901990,-0.685421,0.158619,-0.440934
50299,3.200395,-7.999657,4.011972,-0.706365,0.152182,-0.484691
50300,3.215712,-7.883429,4.879513,-0.882109,0.232284,-0.506429
50301,2.878619,-8.457409,4.891717,-0.983735,0.281010,-0.471602
50302,2.833988,-8.870459,4.628824,-0.964555,0.282618,-0.381873
50303,3.004701,-9.311551,4.751369,-0.946951,0.288987,-0.306477
50304,3.165551,-9.331355,4.832351,-0.765409,0.246643,-0.289085
50305,3.425105,-8.628140,4.885237,-0.550488,0.175343,-0.310876
50306,3.489037,-7.648658,5.932345,-0.315551,0.071902,-0.356148
50307,3.488575,-7.190113,7.361623,0.015076,-0.017402,-0.334635
50308,3.237458,-7.797513,7.794418,0.426672,-0.101045,-0.236252
50309,2.897519,-9.068224,6.469986,0.987122,-0.321667,-0.121205
50310,2.747915,-10.067191,4.791188,1.739699,-0.628716,-0.093097
50311,3.085145,-9.546470,2.519524,2.634803,-0.791737,-0.253401
50312,3.245585,-7.068518,1.147347,3.144963,-0.802253,-0.449800
50313,3.626731,-5.390778,1.919800,2.721178,-0.592790,-0.613328
50314,3.094954,-5.233987,2.691932,2.126862,-0.367038,-0.723099
50315,2.599228,-4.216735,3.187636,1.557296,-0.341060,-0.730700
50316,2.718394,-3.665500,3.408792,0.568701,-0.325822,-0.652593
50317,3.271631,-4.961850,3.941140,-0.652745,-0.202267,-0.551147
50318,3.499517,-7.181770,4.701893,-1.551554,-0.012945,-0.488703
50319,3.508887,-8.694788,5.506458,-1.835113,0.102433,-0.457534
50320,3.663483,-8.813953,6.214883,-1.788291,0.160059,-0.454929
50321,3.843082,-8.594861,6.659727,-1.695562,0.196712,-0.492702
50322,3.866826,-8.554453,6.756764,-1.417807,0.180143,-0.528266
50323,4.008385,-8.628907,6.491860,-0.982686,0.111582,-0.546384
50324,4.274263,-8.502837,6.022428,-0.482048,0.033546,-0.565245
50325,4.640608,-8.105628,5.360206,-0.054405,-0.027902,-0.609457
50326,4.805308,-7.604703,4.649023,0.242608,-0.077159,-0.662439
50327,4.892877,-7.040194,4.321681,0.375771,-0.112500,-0.732552
50328,4.871755,-6.452725,4.107404,0.361437,-0.117586,-0.798709
50329,4.793745,-5.596227,3.987665,0.209578,-0.102865,-0.865534
50330,4.820881,-5.128883,3.877505,-0.144982,-0.055394,-0.918800
50331,4.910083,-5.099816,3.494632,-0.538085,0.027147,-0.958575
50332,5.119765,-5.332044,3.454003,-0.949288,0.110614,-0.992526
50333,5.374485,-6.209282,3.779144,-1.316028,0.206364,-0.989348
50334,5.319964,-7.346959,4.528812,-1.557356,0.254658,-0.934156
50335,5.223121,-8.528743,5.575906,-1.666293,0.279820,-0.856449
50336,5.066259,-9.264061,6.544608,-1.443293,0.261064,-0.747825
50337,4.820469,-9.273036,6.577466,-0.964732,0.178649,-0.644700
50338,4.544236,-8.387335,5.416025,-0.310687,-0.054259,-0.638408
50339,4.827524,-7.160023,3.981266,0.321998,-0.326652,-0.735107
50340,5.089494,-6.858159,3.064423,0.707925,-0.446976,-0.858964
50341,4.704505,-7.096392,2.558124,1.043133,-0.457277,-0.947192
50342,4.411756,-6.826015,2.602278,1.299497,-0.487627,-0.972211
50343,4.496301,-6.636294,2.944475,1.297842,-0.482927,-0.934939
50344,4.597624,-6.665135,3.093155,1.083820,-0.473249,-0.876521
50345,4.844442,-6.775033,3.115280,0.693307,-0.453992,-0.807899
50346,5.058283,-6.769616,3.229970,0.190894,-0.410244,-0.755965
50347,5.169297,-6.693824,3.575160,-0.306942,-0.345242,-0.756397
50348,5.507542,-6.788767,4.384960,-0.757116,-0.233425,-0.775045
50349,5.695239,-7.614341,5.151154,-1.160860,-0.055604,-0.752752
50350,5.411694,-8.752775,5.436486,-1.284848,0.064329,-0.679888
50351,5.284722,-9.166768,5.650829,-1.159780,0.060376,-0.582449
50352,5.558860,-9.220797,5.982102,-0.924381,0.003576,-0.508721
50353,5.837907,-8.997561,6.168658,-0.556571,-0.076931,-0.494579
50354,6.028312,-8.521907,6.053468,-0.095628,-0.159730,-0.526382
50355,6.192274,-8.104112,5.653150,0.324743,-0.221461,-0.560835
50356,6.057620,-7.541086,4.725945,0.750646,-0.280577,-0.593517
50357,5.920725,-6.765523,3.799025,1.007966,-0.351339,-0.632909
50358,5.950133,-6.071044,3.271797,1.029861,-0.371538,-0.667041
50359,5.927537,-5.475816,3.084934,0.933278,-0.357960,-0.729687
50360,6.365886,-5.355380,3.001739,0.686553,-0.256775,-0.766373
50361,6.600603,-5.785789,2.831249,0.377536,-0.092662,-0.723738
50362,6.666805,-6.113832,3.154007,-0.023153,-0.000350,-0.684693
50363,6.686141,-6.545429,4.059034,-0.416819,0.038286,-0.660055
50364,6.749293,-7.005887,4.701380,-0.720608,0.084933,-0.613387
50365,6.603497,-7.425590,5.267054,-0.919763,0.132600,-0.574795
50366,6.300791,-8.139941,6.041132,-0.985629,0.151927,-0.561082
50367,5.762956,-8.308313,5.791423,-0.678889,0.128909,-0.543360
50368,5.615004,-7.685917,5.237658,-0.233776,0.027220,-0.522417
50369,5.816614,-7.071471,4.837155,0.168600,-0.081579,-0.525388
50370,6.311927,-6.393607,4.700104,0.585597,-0.198107,-0.544188
50371,6.762449,-5.819730,4.321762,0.983705,-0.251188,-0.592170
50372,6.670307,-5.127893,2.860996,1.397658,-0.295460,-0.684293
50373,6.720806,-3.979763,1.693785,1.511651,-0.327302,-0.790211
50374,6.819526,-3.409868,1.719235,1.229966,-0.291502,-0.885174
50375,6.798268,-3.181175,2.139755,0.894250,-0.236969,-0.958938
50376,6.716820,-3.028183,2.691082,0.430483,-0.189202,-0.974694
50377,6.797160,-3.605265,3.115228,-0.154451,-0.125025,-0.920974
50378,6.902582,-4.827957,3.769198,-0.702974,-0.028353,-0.831234
50379,7.006324,-6.094832,4.580067,-1.006146,0.004285,-0.775157
50380,7.185953,-6.593030,5.311819,-0.993411,0.000786,-0.760601
50381,7.256430,-6.534174,5.611096,-0.865772,-0.012601,-0.762399
50382,7.188629,-6.514383,5.644789,-0.650505,-0.031650,-0.776624
50383,7.081935,-6.651537,5.351878,-0.277885,-0.077835,-0.796084
50384,7.200639,-6.783066,4.800057,0.136780,-0.156157,-0.792229
50385,7.525031,-6.618378,4.246897,0.534003,-0.242498,-0.798603
50386,7.741637,-5.941761,3.793695,0.855221,-0.325350,-0.827133
50387,7.933994,-4.970484,3.432677,1.017570,-0.386508,-0.869615
50388,7.896167,-4.162786,3.425468,0.991109,-0.397235,-0.929411
50389,7.742703,-3.572973,3.718270,0.821644,-0.371182,-0.977090
50390,7.692996,-3.171231,4.318189,0.521602,-0.302573,-0.988722
50391,7.696278,-3.278357,4.955253,0.134846,-0.177172,-0.970922
50392,7.499130,-3.548086,5.077953,-0.203040,-0.067184,-0.927462
50393,7.458017,-3.960650,4.788285,-0.478629,-0.019133,-0.898918
50394,7.628893,-4.464371,4.233721,-0.591814,0.031171,-0.912625
50395,7.724222,-5.469210,3.617099,-0.630237,0.130959,-0.908113
50396,7.821606,-7.124881,3.171499,-0.582507,0.148629,-0.816839
50397,8.015944,-8.514595,3.455361,-0.374913,0.078989,-0.703204
50398,8.180847,-8.469497,4.374358,0.089788,-0.006821,-0.608570
50399,8.199867,-6.831710,5.503826,0.490668,-0.082287,-0.559165
50400,8.340962,-5.271761,6.151279,0.620214,-0.143502,-0.526738
50401,8.304946,-4.420553,6.321981,0.616022,-0.147457,-0.509169
50402,8.008766,-4.100663,5.806072,0.655989,-0.137670,-0.514324
50403,7.765522,-3.792581,4.510931,0.817077,-0.159408,-0.584473
50404,7.597621,-3.293695,2.490454,1.009479,-0.211503,-0.698957
50405,7.276312,-2.618821,0.576674,0.985166,-0.298510,-0.772315
50406,7.339351,-2.759816,0.322894,0.826897,-0.429473,-0.855682
50407,7.628068,-2.882290,1.068349,0.922999,-0.454521,-0.912043
50408,7.753211,-1.655070,2.059762,0.906954,-0.396118,-0.951032
50409,8.000558,-1.058224,2.816870,0.522914,-0.325681,-0.939884
50410,8.323139,-1.841700,2.991366,-0.020150,-0.265893,-0.861700
50411,8.518751,-3.242817,3.138436,-0.512354,-0.232052,-0.757464
50412,8.665532,-4.336850,3.616015,-0.775897,-0.220676,-0.688516
50413,8.618870,-4.393429,4.262092,-0.829689,-0.204373,-0.690566
50414,8.640624,-3.826537,4.675558,-0.767584,-0.207129,-0.720789
50415,8.680511,-3.331870,5.116366,-0.673784,-0.174685,-0.755495
50416,8.768799,-3.346090,5.953331,-0.500909,-0.160310,-0.748476
50417,8.790882,-3.921022,6.275933,-0.213286,-0.170126,-0.710890
50418,8.629801,-4.198893,5.047562,0.216210,-0.225603,-0.682422
50419,8.485686,-3.579342,2.787700,0.560094,-0.353209,-0.687353
50420,8.772731,-2.678795,1.239330,0.718973,-0.491156,-0.734500
50421,9.161360,-2.239589,1.037827,0.684646,-0.557526,-0.783448
50422,9.177668,-2.007378,1.442712,0.616616,-0.562442,-0.843016
50423,9.038680,-1.347916,1.804833,0.423166,-0.534878,-0.857632
50424,8.961448,-0.880580,2.158319,-0.014959,-0.465849,-0.825056
50425,8.915252,-1.454294,2.770024,-0.528550,-0.404142,-0.771064
50426,9.083793,-2.491509,3.478581,-0.912663,-0.331685,-0.708330
50427,9.183440,-3.254470,4.271719,-1.123060,-0.262808,-0.651077
50428,9.020708,-3.824483,5.002962,-1.221239,-0.212451,-0.610366
50429,8.883500,-4.263498,5.203692,-1.039273,-0.195254,-0.594312
50430,8.852442,-4.121000,5.162316,-0.682059,-0.179124,-0.578496
50431,8.889931,-3.683481,5.275145,-0.377511,-0.195056,-0.581602
50432,8.976813,-3.242368,5.157588,-0.086742,-0.213001,-0.587783
50433,9.128461,-2.777895,4.425456,0.146616,-0.213676,-0.588785
50434,9.150822,-2.253050,3.404591,0.266390,-0.192827,-0.609527
50435,9.195954,-1.855015,2.700487,0.265804,-0.195291,-0.632645
50436,9.231825,-1.804181,2.373569,0.167160,-0.178243,-0.634560
50437,9.285590,-1.647002,2.510223,0.026574,-0.151740,-0.627137
50438,9.284232,-1.525985,2.799122,-0.248038,-0.097632,-0.611055
50439,9.205255,-1.700712,2.934966,-0.547211,-0.020072,-0.599938
50440,8.972351,-2.179757,2.789194,-0.737003,0.028910,-0.582203
50441,8.640857,-2.787890,2.546018,-0.807435,-0.032404,-0.549951
50442,8.762101,-3.567953,2.636308,-0.709931,-0.130631,-0.504877
50443,8.968054,-3.885203,3.079272,-0.459509,-0.160859,-0.454010
50444,9.144965,-3.386628,3.907361,-0.190672,-0.150230,-0.437071
50445,9.494457,-2.775589,4.571535,-0.000397,-0.123075,-0.435849
50446,9.728887,-2.040443,4.927583,0.132454,-0.074099,-0.443287
50447,9.879369,-1.416632,5.042885,0.156251,-0.043184,-0.469265
50448,9.897945,-1.291520,4.754775,0.123301,-0.029651,-0.508003
50449,9.742053,-1.326380,3.919685,0.187314,-0.047812,-0.543668
50450,9.419446,-1.143674,2.798863,0.246770,-0.092032,-0.591098
50451,9.176395,-1.024971,1.943865,0.303784,-0.157878,-0.636862
50452,9.063200,-1.089518,1.599332,0.357836,-0.223017,-0.653291
50453,9.190632,-1.133667,1.931825,0.416814,-0.270171,-0.628157
50454,9.325659,-1.548808,2.301938,0.282610,-0.275820,-0.568846
50455,9.480910,-1.714523,2.164221,0.130105,-0.254105,-0.517817
50456,9.326884,-1.943560,1.954738,-0.124163,-0.205263,-0.472459
50457,8.818294,-2.526259,1.917480,-0.265663,-0.184125,-0.412919
50458,8.479534,-2.922383,2.457653,-0.276564,-0.169267,-0.349900
50459,8.290851,-3.007185,3.193452,-0.237189,-0.158708,-0.285626
50460,8.668005,-2.466730,4.037048,-0.112700,-0.141795,-0.213367
50461,9.075397,-2.217273,4.412532,-0.016191,-0.074819,-0.164851
50462,9.309066,-1.728334,4.151559,0.139354,-0.032073,-0.137262
50463,9.587373,-0.937234,3.981515,0.182765,-0.057551,-0.166048
50464,9.945489,-0.760080,3.707383,0.143551,-0.079514,-0.189388
50465,10.060534,-0.938671,3.203396,0.183319,-0.040510,-0.206374
50466,9.704647,-1.052878,2.586295,0.225814,-0.020305,-0.205144
50467,9.266935,-1.152498,1.973083,0.236110,-0.083709,-0.189825
50468,9.102080,-1.147970,1.376415,0.256622,-0.161651,-0.193199
50469,9.138936,-0.745398,1.198621,0.244466,-0.176988,-0.206773
50470,8.965812,-0.658084,1.129272,0.041739,-0.151012,-0.199290
50471,8.745376,-1.048130,1.058600,-0.143147,-0.170711,-0.160449
50472,8.682439,-1.428082,1.554254,-0.190518,-0.196522,-0.111843
50473,8.673649,-1.718998,2.281221,-0.233684,-0.225158,-0.063503
50474,8.909505,-1.742368,2.904604,-0.181756,-0.273496,-0.003561
50475,9.174842,-1.650444,3.329390,-0.044905,-0.300344,0.034018
50476,9.462957,-1.155281,3.627526,0.103051,-0.306212,0.022813
50477,9.706878,-0.544872,3.592128,0.157084,-0.291358,-0.021145
50478,9.757966,-0.189953,3.326989,0.134773,-0.251915,-0.071979
50479,9.659786,-0.152889,3.017506,0.132799,-0.213451,-0.117008
50480,9.514103,-0.268007,2.904487,0.093609,-0.202207,-0.133939
50481,9.445404,-0.530029,2.543372,0.074166,-0.226922,-0.124875
50482,9.388485,-0.467907,2.182062,0.089288,-0.264715,-0.122609
50483,9.638514,-0.248503,1.814639,0.094044,-0.294438,-0.130790
50484,9.849326,-0.073053,1.458877,0.065705,-0.296769,-0.139254
50485,9.864633,0.049675,1.458782,-0.000075,-0.289848,-0.159104
50486,9.805324,-0.124994,1.623932,-0.130839,-0.265899,-0.156041
50487,9.594926,-0.559747,1.808129,-0.306873,-0.251897,-0.131908
50488,9.380402,-1.107025,2.135647,-0.422356,-0.250288,-0.102821
50489,9.324027,-1.533985,2.583900,-0.447298,-0.246360,-0.076817
50490,9.271179,-1.762631,2.934313,-0.403330,-0.216447,-0.041972
50491,9.286904,-1.699034,2.987331,-0.327204,-0.194007,-0.022880
50492,9.418956,-1.565640,2.937571,-0.240923,-0.174343,-0.013585
50493,9.545746,-1.453379,3.010566,-0.162428,-0.162111,-0.011436
50494,9.749957,-1.387529,3.089418,-0.096919,-0.144581,-0.005407
50495,9.859863,-1.240584,3.103377,-0.049640,-0.118901,-0.011153
50496,9.892691,-1.186286,3.009691,-0.041607,-0.089624,-0.008313
50497,9.890137,-1.133021,2.992117,-0.020915,-0.065259,-0.005480
50498,9.894207,-1.060474,2.891197,-0.005936,-0.047151,-0.006562
50499,9.834093,-0.930113,2.771418,0.003363,-0.031997,-0.010027
50500,9.861142,-0.954324,2.675411,0.004364,-0.013866,-0.011606
50501,9.811975,-1.064686,2.576672,0.019627,-0.000370,0.001326
50502,9.769997,-1.063497,2.476573,0.051543,0.007614,0.000630
50503,9.724050,-1.084862,2.497270,0.086826,0.014164,-0.002114
50504,9.676283,-1.149037,2.460024,0.134870,0.007548,-0.004524
50505,9.643705,-0.988917,2.416795,0.196540,0.002177,0.000190
50506,9.561197,-0.676765,2.310861,0.231030,0.001787,-0.003656
50507,9.613982,-0.451572,2.265953,0.234958,-0.001715,-0.006351
50508,9.633389,-0.284568,2.163082,0.236527,-0.003842,-0.012856
50509,9.661735,-0.054702,2.031969,0.206557,0.009098,-0.030379
50510,9.704195,-0.105367,2.004631,0.125047,0.022196,-0.039307
50511,9.775170,-0.223445,1.967465,0.053687,0.033846,-0.043120
50512,9.724822,-0.451439,1.947520,-0.006408,0.044816,-0.045210
50513,9.562883,-0.717690,2.022001,-0.041568,0.050628,-0.039025
50514,9.514634,-1.091884,1.895917,-0.067081,0.027816,-0.019867
50515,9.514976,-1.270862,1.840180,-0.051444,0.019561,0.005367
50516,9.447422,-1.417090,1.881926,-0.020845,0.005061,0.034540
50517,9.468105,-1.600224,1.874720,-0.013730,-0.004748,0.067535
50518,9.488229,-1.786020,1.866826,0.026017,-0.016900,0.099481
50519,9.434912,-1.885829,1.947284,0.091130,-0.022268,0.139214
50520,9.367788,-1.807477,2.208189,0.169075,-0.058271,0.155628
50521,9.370948,-1.633144,2.402237,0.266124,-0.084339,0.160197
50522,9.295767,-1.453193,2.533537,0.337704,-0.092327,0.164382
50523,9.321592,-1.342552,2.541091,0.427582,-0.097741,0.165410
50524,9.373970,-1.174671,2.429583,0.506292,-0.103531,0.180614
50525,9.486375,-1.060771,2.304873,0.558945,-0.106984,0.182250
50526,9.534937,-0.863460,2.333561,0.574987,-0.104323,0.187777
50527,9.636615,-0.713025,2.280397,0.573524,-0.104952,0.178535
50528,9.708942,-0.592885,2.156230,0.542055,-0.098620,0.174338
50529,9.781301,-0.474761,2.031182,0.493516,-0.088318,0.170224
50530,9.772643,-0.408920,2.049534,0.436702,-0.076775,0.162689
50531,9.727943,-0.486611,2.043375,0.409109,-0.074457,0.146896
50532,9.646725,-0.422734,2.069241,0.383757,-0.074351,0.132501
50533,9.630147,-0.482720,2.026901,0.356809,-0.075172,0.113298
50534,9.599174,-0.498679,2.024393,0.351426,-0.066990,0.098110
50535,9.599998,-0.449424,2.040346,0.345671,-0.064017,0.076688
50536,9.595742,-0.479217,2.052382,0.332866,-0.054960,0.062228
50537,9.624805,-0.361524,2.051920,0.327577,-0.055135,0.047531
50538,9.721540,-0.269890,2.059499,0.295224,-0.047586,0.036255
50539,9.745407,-0.180755,2.075339,0.252499,-0.033334,0.021403
50540,9.745894,-0.229049,2.053089,0.184641,-0.025996,0.018297
50541,9.763864,-0.323551,2.028143,0.122103,-0.006830,0.010925
50542,9.661540,-0.479578,1.858458,0.052398,-0.004725,0.009111
50543,9.592430,-0.586044,1.861197,0.022348,-0.005219,0.008583
50544,9.546655,-0.555162,1.901899,0.013706,-0.008288,0.001583
50545,9.613036,-0.613156,1.960772,-0.023010,-0.006680,-0.007468
50546,9.653716,-0.724801,1.916098,-0.042811,0.001638,-0.008322
50547,9.598610,-0.824147,1.900447,-0.052247,0.005658,-0.006711
50548,9.575512,-0.809526,1.921516,-0.059135,0.012774,0.002628
50549,9.628799,-0.794291,1.969479,-0.069205,0.018942,0.004971
50550,9.618190,-0.754032,2.043618,-0.078863,0.024474,0.003181
50551,9.589176,-0.873559,2.043120,-0.110154,0.029327,0.026448
50552,9.587685,-1.134197,1.945238,-0.135097,0.021962,0.054171
50553,9.558123,-1.259153,1.942759,-0.133163,0.014129,0.075409
50554,9.598283,-1.395114,2.053115,-0.082263,0.006918,0.093166
50555,9.559763,-1.397899,2.091951,-0.056957,0.004077,0.105329
50556,9.545958,-1.333205,2.079793,-0.006644,0.003748,0.101791
50557,9.558147,-1.214575,2.172368,0.051382,-0.001535,0.101872
50558,9.521595,-1.182492,2.161650,0.071194,0.000732,0.091021
50559,9.486919,-1.117603,2.100007,0.090657,-0.009502,0.087070
50560,9.492049,-1.042773,2.103813,0.108683,-0.005695,0.080477
50561,9.487524,-1.046243,2.070391,0.114658,-0.000855,0.077751
50562,9.478676,-0.977553,2.093119,0.113777,-0.005420,0.075811
50563,9.473680,-1.031472,2.039776,0.116979,-0.004533,0.072920
50564,9.511315,-0.942339,2.040569,0.134186,-0.007782,0.065383
50565,9.523289,-0.969729,2.073421,0.135724,-0.007835,0.057787
50566,9.565721,-0.829021,2.127857,0.169182,-0.005776,0.047889
50567,9.575486,-0.750442,2.165843,0.167389,-0.001822,0.041195
50568,9.591191,-0.712547,2.097191,0.151037,0.000084,0.030548
50569,9.637236,-0.692971,2.076595,0.143213,0.001654,0.025570
50570,9.670668,-0.577599,2.113148,0.125541,0.004465,0.014946
50571,9.714941,-0.587952,2.143790,0.093639,0.007105,0.005130
50572,9.730685,-0.548336,2.075544,0.070964,0.017799,-0.011524
50573,9.735126,-0.567680,2.041920,0.029428,0.026114,-0.013296
50574,9.736942,-0.669101,2.040788,-0.006595,0.028136,-0.024315
50575,9.704829,-0.813631,2.094113,-0.032501,0.033243,-0.025950
50576,9.658433,-0.902661,2.029629,-0.051447,0.040456,-0.025242
50577,9.571291,-0.981825,1.970183,-0.070943,0.044964,-0.021715
50578,9.531034,-1.054134,2.044885,-0.070038,0.044710,-0.017605
50579,9.529642,-1.105251,2.029127,-0.073870,0.043589,-0.012873
50580,9.573257,-1.117478,2.061992,-0.070118,0.042417,-0.006513
50581,9.611836,-1.108331,2.131136,-0.061422,0.045365,-0.009422
50582,9.618861,-1.059990,2.222883,-0.043937,0.046390,-0.013176
50583,9.675507,-0.980879,2.171919,-0.035964,0.048115,-0.016731
50584,9.702268,-0.894744,2.228942,-0.028905,0.050111,-0.024365
50585,9.710625,-0.864056,2.251076,-0.026298,0.049640,-0.037929
50586,9.718967,-0.832402,2.273492,-0.025223,0.055077,-0.043502
50587,9.712450,-0.858138,2.295600,-0.033818,0.060273,-0.051268
50588,9.678584,-0.968403,2.265000,-0.037366,0.057541,-0.053098
50589,9.611021,-1.109988,2.131849,-0.033535,0.051488,-0.044674
50590,9.618657,-1.180846,2.115193,-0.034097,0.052247,-0.030518
50591,9.532172,-1.258728,2.055742,-0.014146,0.050600,-0.026811
50592,9.419684,-1.268466,2.001440,-0.000341,0.043198,-0.022749
50593,9.437172,-1.209809,2.040755,0.023814,0.039707,-0.016866
50594,9.410049,-1.190537,2.030986,0.026567,0.043666,-0.016672
50595,9.404072,-1.166975,2.071500,0.035361,0.041761,-0.017490
50596,9.412379,-1.136313,2.093575,0.049171,0.042614,-0.014112
50597,9.436750,-1.169753,2.007075,0.051234,0.034666,-0.012823
50598,9.427658,-1.093859,2.032160,0.061024,0.035872,-0.008183
50599,9.509066,-1.009940,2.066164,0.073917,0.037004,-0.008861
50600,9.541785,-0.976194,2.172431,0.067677,0.036118,-0.010566
50601,9.578726,-0.931874,2.157132,0.050842,0.038721,-0.007254
50602,9.584596,-0.932821,2.229995,0.042806,0.039419,-0.004756
50603,9.566100,-0.936937,2.218249,0.040589,0.038179,-0.007719
50604,9.576442,-0.927133,2.169279,0.026063,0.036088,-0.011762
50605,9.602186,-0.942534,2.187248,0.026779,0.037317,-0.011107
50606,9.569459,-0.953206,2.193605,0.026507,0.035427,-0.015893
50607,9.600765,-0.989758,2.175458,0.023842,0.034849,-0.014716
50608,9.612242,-1.011398,2.211650,0.034440,0.031359,-0.019708
50609,9.578912,-0.938118,2.151240,0.041241,0.032545,-0.019702
50610,9.604823,-0.952212,2.169085,0.035557,0.034360,-0.024222
50611,9.583434,-0.953686,2.122542,0.036270,0.035592,-0.023563
50612,9.565274,-0.956874,2.110173,0.025803,0.031781,-0.015463
50613,9.535921,-0.968316,2.150423,0.022064,0.032944,-0.021802
50614,9.547366,-1.091907,2.148676,0.026156,0.035986,-0.021662
50615,9.490856,-1.156973,2.050957,0.028675,0.028452,-0.012137
50616,9.458299,-1.116775,2.075707,0.051505,0.029356,-0.004657
50617,9.460833,-1.013730,2.151549,0.069113,0.031398,-0.005844
50618,9.492214,-0.999659,2.152616,0.055298,0.031597,0.003080
50619,9.468274,-1.034459,2.157009,0.059831,0.026813,0.012169
50620,9.487674,-0.997800,2.124855,0.081619,0.027034,0.013218
50621,9.536568,-0.876335,2.179189,0.079408,0.025784,0.010260
50622,9.553315,-0.870057,2.198936,0.072866,0.040581,0.014646
50623,9.586917,-0.877960,2.131045,0.068572,0.047276,0.010371
50624,9.565039,-0.779938,2.123568,0.062509,0.053144,0.011330
50625,9.569927,-0.832962,2.179335,0.045518,0.057207,0.011068
50626,9.656421,-0.906638,2.227481,0.036771,0.056673,0.012853
50627,9.725361,-1.037907,2.240957,0.012325,0.055879,0.012924
50628,9.802477,-1.078325,2.100224,-0.019390,0.064136,0.002955
50629,9.841939,-1.037712,2.121065,-0.051850,0.065344,-0.007980
50630,9.864484,-1.239169,2.136473,-0.083464,0.060493,-0.015141
50631,9.738274,-1.372820,2.252465,-0.064766,0.059701,-0.021074
50632,9.606105,-1.452834,2.318212,-0.019591,0.052867,-0.013380
50633,9.488262,-1.475009,2.384397,0.031551,0.049539,0.005036
50634,9.349602,-1.400071,2.437643,0.098567,0.036740,0.029355
