// Start Time: Unknown
// Update Rate: 100.0Hz
// Filter Profile: human (46.1)
// Firmware Version: 4.3.5
PacketCounter,Acc_X,Acc_Y,Acc_Z,Gyr_X,Gyr_Y,Gyr_Z
36485,8.869291,-4.256980,-1.141913,-0.003501,0.007078,-0.015405
36486,8.864193,-4.300934,-1.171184,0.003214,0.008617,-0.014094
36487,8.864423,-4.275266,-1.166975,-0.002013,0.009280,-0.019845
36488,8.832572,-4.282927,-1.106058,0.002899,0.008801,-0.016222
36489,8.826922,-4.302653,-1.131957,0.004199,0.002987,-0.015713
36490,8.819385,-4.249862,-1.148069,-0.003454,0.003285,-0.015670
36491,8.757010,-4.256165,-1.103965,-0.002589,0.007144,-0.016627
36492,8.727326,-4.253259,-1.120106,-0.006484,0.001386,-0.014264
36493,8.751880,-4.274626,-1.130767,-0.010404,-0.002474,-0.011768
36494,8.783338,-4.299303,-1.118191,-0.006794,0.002862,-0.008653
36495,8.824109,-4.316394,-1.158656,-0.004603,-0.000993,-0.009234
36496,8.784892,-4.321580,-1.121654,0.001118,0.004891,-0.014041
36497,8.802459,-4.340114,-1.154469,0.005092,0.006248,-0.009063
36498,8.802931,-4.339374,-1.153655,0.007233,0.006191,-0.009379
36499,8.825490,-4.288703,-1.152951,0.007258,0.004293,-0.009511
36500,8.825966,-4.287893,-1.152322,0.008197,0.002457,-0.010866
36501,8.826411,-4.287067,-1.151986,0.005192,-0.001344,-0.009593
36502,8.819029,-4.259297,-1.171664,0.002741,0.000186,-0.003666
36503,8.773146,-4.286267,-1.161077,0.004542,0.002210,-0.005978
36504,8.804328,-4.311602,-1.148167,0.000990,-0.005633,-0.001619
36505,8.796737,-4.284150,-1.168248,0.004933,-0.003668,-0.004247
36506,8.797555,-4.307948,-1.171761,0.008014,-0.005561,-0.005917
36507,8.768008,-4.330334,-1.191272,0.016843,-0.002173,-0.004789
36508,8.727137,-4.288010,-1.147071,0.016843,-0.002172,-0.004789
36509,8.720353,-4.284631,-1.169757,0.023004,-0.005956,-0.008129
36510,8.766682,-4.256882,-1.179761,0.017807,-0.005903,-0.006274
36511,8.806602,-4.250313,-1.216521,0.017833,-0.007800,-0.006406
36512,8.798070,-4.281893,-1.166487,0.018122,-0.006081,-0.004146
36513,8.783443,-4.251558,-1.209326,0.019375,-0.008096,-0.003372
36514,8.844304,-4.254293,-1.176603,0.022456,-0.009986,-0.005041
36515,8.813983,-4.252738,-1.192821,0.023684,-0.010101,-0.004135
36516,8.789999,-4.230016,-1.182718,0.020366,-0.013722,-0.004985
36517,8.813445,-4.228134,-1.190071,0.013627,-0.013375,-0.006163
36518,8.820586,-4.230630,-1.167903,0.013441,-0.022683,-0.008942
36519,8.796595,-4.207617,-1.158910,0.016161,-0.019298,-0.004743
36520,8.813581,-4.226872,-1.193538,0.013756,-0.022857,-0.006813
36521,8.811502,-4.236809,-1.118353,0.017379,-0.020708,-0.011574
36522,8.812415,-4.260216,-1.122697,0.016440,-0.018870,-0.010222
36523,8.812037,-4.235225,-1.120134,0.022520,-0.016952,-0.013174
36524,8.835827,-4.232632,-1.127422,0.022150,-0.012976,-0.015043
36525,8.836403,-4.231363,-1.127671,0.019374,-0.012563,-0.018981
36526,8.844114,-4.232937,-1.104684,0.011960,-0.006773,-0.016416
36527,8.845498,-4.255709,-1.107818,0.015870,-0.002904,-0.018923
36528,8.846362,-4.254011,-1.107437,0.017403,-0.004494,-0.023626
36529,8.862062,-4.282415,-1.063999,0.023576,-0.006963,-0.019231
36530,8.848741,-4.274943,-1.109816,0.026282,-0.004873,-0.022772
36531,8.872248,-4.247570,-1.112635,0.025633,-0.001316,-0.019165
36532,8.870283,-4.232235,-1.031946,0.019777,0.000977,-0.021433
36533,8.850665,-4.245988,-1.103837,0.011158,0.004975,-0.019903
36534,8.805567,-4.271798,-1.092457,0.009045,0.003131,-0.019712
36535,8.836938,-4.271342,-1.075411,0.010839,0.005157,-0.022031
36536,8.815399,-4.295270,-1.070408,0.010378,0.014822,-0.023523
36537,8.855340,-4.263206,-1.102301,0.017753,0.014144,-0.018094
36538,8.803264,-4.286343,-1.112787,0.018635,0.016109,-0.019190
36539,8.826897,-4.258973,-1.114217,0.019547,0.016177,-0.020412
36540,8.797578,-4.256070,-1.128152,0.019200,0.018256,-0.022414
36541,8.822918,-4.276700,-1.135934,0.015512,0.018598,-0.025130
36542,8.807034,-4.255244,-1.100196,0.021656,0.018041,-0.020602
36543,8.794019,-4.247845,-1.144250,0.012776,0.018410,-0.021462
36544,8.795989,-4.270198,-1.145140,0.016710,0.020396,-0.024098
36545,8.789344,-4.241368,-1.162637,0.016114,0.020158,-0.020747
36546,8.806842,-4.235049,-1.190328,0.016740,0.018507,-0.024223
36547,8.808799,-4.257443,-1.191349,0.014034,0.016415,-0.020681
36548,8.803713,-4.277050,-1.215506,0.015796,0.020347,-0.022875
36549,8.818238,-4.256616,-1.163422,0.015479,0.020529,-0.025003
36550,8.813342,-4.275896,-1.187464,0.014282,0.018746,-0.026035
36551,8.755604,-4.319809,-1.224193,0.018248,0.018840,-0.028794
36552,8.818603,-4.344098,-1.192232,0.027507,0.014520,-0.026046
36553,8.765364,-4.318451,-1.196064,0.031506,0.012718,-0.028929
36554,8.790949,-4.338801,-1.203718,0.034940,0.008776,-0.028584
36555,8.791434,-4.312561,-1.198155,0.040449,0.008591,-0.028306
36556,8.762295,-4.309590,-1.212275,0.036548,0.004709,-0.025795
36557,8.770450,-4.310582,-1.187128,0.037809,0.002709,-0.025011
36558,8.795766,-4.331344,-1.195358,0.036929,0.000749,-0.023912
36559,8.749972,-4.333337,-1.180066,0.037593,-0.001493,-0.019776
36560,8.786142,-4.395686,-1.248249,0.037661,-0.005285,-0.020020
36561,8.787662,-4.418908,-1.250341,0.046394,-0.013620,-0.014155
36562,8.787034,-4.394454,-1.246301,0.063971,-0.020376,-0.007298
36563,8.744609,-4.328374,-1.199241,0.076705,-0.030491,-0.004308
36564,8.789240,-4.277182,-1.206717,0.065507,-0.036217,0.000259
36565,8.773348,-4.306501,-1.180513,0.045960,-0.037594,0.000850
36566,8.768335,-4.377283,-1.214439,0.033750,-0.037706,0.007002
36567,8.761304,-4.399941,-1.242847,0.034204,-0.045457,0.008658
36568,8.762172,-4.449547,-1.250967,0.049149,-0.043800,0.006560
36569,8.744920,-4.455437,-1.222221,0.069747,-0.048576,0.011988
36570,8.749086,-4.411644,-1.194159,0.082093,-0.054686,0.013085
36571,8.799019,-4.340382,-1.177139,0.081179,-0.054715,0.014309
36572,8.743910,-4.343340,-1.188196,0.060724,-0.056163,0.016158
36573,8.660639,-4.475725,-1.154294,0.035538,-0.049805,0.016981
36574,8.613223,-4.696188,-1.192812,0.030650,-0.051286,0.013249
36575,8.665684,-4.887862,-1.232430,0.063912,-0.051331,0.001739
36576,8.768777,-4.981986,-1.248987,0.112189,-0.048913,0.003426
36577,8.752791,-5.012217,-1.219048,0.147793,-0.040169,0.001884
36578,8.598581,-5.043765,-1.221472,0.164269,-0.035422,0.010613
36579,8.508137,-5.174983,-1.202078,0.170893,-0.042168,0.024546
36580,8.429065,-5.340697,-1.318273,0.181924,-0.056519,0.037408
36581,8.389560,-5.449771,-1.286487,0.212549,-0.069865,0.057224
36582,8.276171,-5.651650,-1.343906,0.229718,-0.100033,0.079276
36583,8.299775,-5.822419,-1.441532,0.266144,-0.132224,0.098335
36584,8.450234,-5.945275,-1.523023,0.324810,-0.171427,0.133351
36585,8.600976,-5.954469,-1.567235,0.385575,-0.177357,0.187161
36586,8.644614,-5.907635,-1.521011,0.384710,-0.185595,0.244812
36587,8.555228,-5.916099,-1.491633,0.334626,-0.188755,0.302660
36588,8.402591,-5.999101,-1.504447,0.260214,-0.200495,0.357407
36589,8.265349,-6.300516,-1.570758,0.219701,-0.218055,0.404508
36590,8.191250,-6.584129,-1.581180,0.231671,-0.240014,0.444319
36591,8.258000,-6.770754,-1.604283,0.279365,-0.269995,0.481426
36592,8.296824,-6.835229,-1.685278,0.325877,-0.286688,0.525795
36593,8.369758,-6.841549,-1.644600,0.333257,-0.298676,0.585371
36594,8.391736,-6.927464,-1.595189,0.310902,-0.292530,0.650489
36595,8.332803,-6.944484,-1.541341,0.264781,-0.270287,0.723425
36596,8.227881,-7.054303,-1.612062,0.176052,-0.247789,0.795815
36597,8.283616,-7.273387,-1.649334,0.059320,-0.221428,0.863273
36598,8.270958,-7.635214,-1.786483,-0.045389,-0.196219,0.916795
36599,8.241985,-8.092460,-2.012235,-0.103792,-0.185394,0.973095
36600,8.370475,-8.572419,-2.120548,-0.101713,-0.197490,1.027164
36601,8.331652,-9.026404,-2.222928,-0.014522,-0.208492,1.098646
36602,8.248309,-9.367392,-2.270167,0.107064,-0.240062,1.183150
36603,8.058063,-9.466725,-2.250321,0.246929,-0.285377,1.269426
36604,7.946478,-9.413686,-2.159461,0.330102,-0.323788,1.357027
36605,7.995223,-9.335112,-2.122486,0.346814,-0.350114,1.444734
36606,8.048302,-9.365919,-2.104206,0.306975,-0.375645,1.536035
36607,8.105212,-9.551038,-2.218030,0.242230,-0.389243,1.638057
36608,8.080079,-9.737165,-2.312131,0.204752,-0.394374,1.729360
36609,8.089604,-9.893572,-2.370838,0.174371,-0.402106,1.818590
36610,8.227021,-9.989856,-2.449165,0.171377,-0.412839,1.908674
36611,8.356649,-10.006655,-2.440852,0.151554,-0.410097,2.001801
36612,8.301820,-9.861879,-2.582519,0.130497,-0.409589,2.083474
36613,8.281819,-9.737854,-2.638268,0.083187,-0.419405,2.150283
36614,8.285111,-9.754032,-2.755862,0.012151,-0.427090,2.220114
36615,8.225024,-9.919456,-2.722795,-0.047951,-0.422137,2.280286
36616,8.126404,-10.106841,-2.686589,-0.078003,-0.435569,2.338946
36617,8.039203,-10.177975,-2.640938,-0.088080,-0.461588,2.403844
36618,7.879530,-10.066126,-2.721483,-0.076599,-0.479595,2.464565
36619,7.801256,-9.724212,-2.786566,-0.096242,-0.507944,2.499120
36620,7.894648,-9.520068,-2.651875,-0.183834,-0.510659,2.546354
36621,7.752319,-9.361281,-2.759304,-0.256631,-0.517828,2.584512
36622,7.439661,-9.327622,-2.862173,-0.339815,-0.548032,2.601570
36623,7.125945,-9.566786,-2.799014,-0.407425,-0.569043,2.609924
36624,6.899028,-9.963544,-2.846055,-0.377397,-0.602349,2.601578
36625,6.992134,-10.195459,-2.863899,-0.245759,-0.641757,2.584454
36626,7.005541,-9.924704,-2.800783,-0.079825,-0.651644,2.583883
36627,6.807002,-9.351154,-2.704948,0.017795,-0.649189,2.584711
36628,6.530861,-8.690601,-2.561885,-0.017186,-0.639933,2.574720
36629,6.344745,-8.398257,-2.537219,-0.157276,-0.616962,2.546161
36630,6.260618,-8.292518,-2.479780,-0.296969,-0.583095,2.520137
36631,6.043577,-8.285194,-2.355605,-0.412857,-0.549475,2.501999
36632,5.650323,-8.064468,-2.339095,-0.501022,-0.514561,2.489827
36633,5.350991,-7.767124,-2.245848,-0.620360,-0.489101,2.469446
36634,4.919447,-7.400906,-2.325552,-0.764478,-0.460191,2.438303
36635,4.590675,-7.311677,-2.421685,-0.940653,-0.443307,2.380710
36636,4.281968,-7.544050,-2.564733,-1.054287,-0.440230,2.310596
36637,4.002667,-7.839812,-2.622694,-1.078922,-0.443185,2.224620
36638,3.801965,-8.228979,-2.649417,-1.002261,-0.456241,2.134799
36639,3.697322,-8.310580,-2.669884,-0.821404,-0.463432,2.060167
36640,3.570868,-7.949917,-2.664071,-0.610595,-0.468786,1.977727
36641,3.253440,-7.339742,-2.518857,-0.493463,-0.462748,1.903762
36642,2.916436,-6.898837,-2.498088,-0.477681,-0.457556,1.819122
36643,2.663751,-6.625618,-2.504468,-0.497775,-0.459136,1.723371
36644,2.489138,-6.624942,-2.456323,-0.529178,-0.447829,1.626899
36645,2.281377,-6.691174,-2.436705,-0.517306,-0.437453,1.539495
36646,2.180552,-6.683142,-2.464282,-0.442624,-0.447153,1.456769
36647,2.083282,-6.529466,-2.366701,-0.353956,-0.442365,1.395966
36648,1.850246,-6.161737,-2.290726,-0.289515,-0.426895,1.327903
36649,1.529273,-5.906020,-2.219760,-0.289571,-0.407998,1.259843
36650,1.326412,-5.737538,-2.210340,-0.328203,-0.399251,1.175957
36651,1.190363,-5.785702,-2.182830,-0.373583,-0.387828,1.095314
36652,1.124999,-5.907636,-2.227927,-0.381784,-0.378029,1.013725
36653,0.980805,-5.974236,-2.181383,-0.351952,-0.358535,0.931755
36654,0.673390,-6.026365,-2.163345,-0.311608,-0.342694,0.855425
36655,0.476615,-6.073700,-2.081718,-0.268978,-0.328251,0.788015
36656,0.371664,-6.074329,-2.083643,-0.221448,-0.308721,0.716670
36657,0.258320,-5.983934,-2.077836,-0.218932,-0.272107,0.647211
36658,0.041304,-5.944958,-2.106195,-0.237450,-0.233950,0.572442
36659,-0.108849,-5.983728,-2.087722,-0.280985,-0.202629,0.489215
36660,-0.349231,-6.170438,-2.180719,-0.313100,-0.161327,0.416346
36661,-0.525415,-6.373633,-2.183192,-0.312299,-0.125817,0.342938
36662,-0.615167,-6.583903,-2.215327,-0.268267,-0.088130,0.271275
36663,-0.669540,-6.807179,-2.294693,-0.209561,-0.052054,0.213061
36664,-0.794441,-7.108034,-2.435258,-0.124859,-0.009206,0.160906
36665,-0.914413,-7.285939,-2.480099,-0.055235,0.036610,0.118679
36666,-0.983946,-7.322415,-2.429909,-0.010396,0.082076,0.080840
36667,-0.890721,-7.101701,-2.484897,-0.015138,0.124647,0.044446
36668,-0.924290,-6.883774,-2.445142,-0.108061,0.171901,0.002668
36669,-1.008402,-6.850540,-2.536330,-0.250428,0.222628,-0.037493
36670,-1.083201,-7.083407,-2.714854,-0.377202,0.258434,-0.067013
36671,-1.139988,-7.413513,-2.859375,-0.491159,0.287430,-0.085647
36672,-1.125018,-7.522294,-2.995300,-0.566911,0.320421,-0.088528
36673,-1.058883,-7.491294,-3.113876,-0.698817,0.332234,-0.093125
36674,-0.971493,-7.182917,-3.226207,-0.835522,0.365086,-0.095380
36675,-0.834389,-6.532446,-3.381746,-1.060608,0.399670,-0.092446
36676,-0.631052,-5.342865,-3.391850,-1.456633,0.439990,-0.066375
36677,-0.303850,-3.919160,-3.443288,-2.156164,0.526203,-0.001249
36678,-0.179854,-2.631149,-3.688070,-3.275839,0.647267,0.052663
36679,-0.323065,-2.131061,-4.816428,-4.492272,0.791743,0.099497
36680,-0.758550,-2.118837,-6.017170,-5.764390,0.872988,0.162543
36681,-0.891270,-2.787898,-7.357113,-6.849946,0.913778,0.208352
36682,-0.666705,-3.586032,-9.004614,-7.742955,0.962916,0.307824
36683,-0.762664,-4.289698,-10.068961,-8.391974,1.043966,0.414287
36684,-1.123957,-5.014159,-10.920023,-8.748123,1.046695,0.447667
36685,-1.370321,-5.517624,-12.233720,-8.603218,1.033685,0.491951
36686,-1.458276,-5.524905,-12.334735,-8.244351,0.978697,0.484919
36687,-1.284060,-5.645185,-12.358173,-7.898429,0.926527,0.456572
36688,-1.139354,-5.524747,-11.717134,-7.379994,0.921059,0.453908
36689,-1.228172,-5.576264,-11.544036,-6.787574,0.914426,0.421531
36690,-1.479030,-5.326670,-11.313572,-6.050677,0.822182,0.367546
36691,-1.245782,-4.859130,-10.420979,-5.372329,0.659263,0.274629
36692,-0.970831,-4.377591,-10.153435,-4.653448,0.598860,0.305481
36693,-0.818292,-3.437736,-9.934694,-3.862795,0.547267,0.324934
36694,-0.508085,-1.603155,-9.512917,-3.156323,0.546866,0.305805
36695,-0.347289,-0.059374,-9.586480,-2.985833,0.528246,0.258115
36696,-0.380022,0.442350,-9.903034,-2.888447,0.498208,0.196123
36697,-0.608554,0.190388,-10.123758,-2.675359,0.459885,0.153867
36698,-0.685790,0.253011,-10.482978,-2.240186,0.379830,0.172515
36699,-0.332206,1.149740,-10.221706,-1.938582,0.328573,0.203094
36700,-0.208277,1.764997,-9.949745,-1.906711,0.301206,0.177018
36701,-0.198003,1.853304,-9.940053,-1.840857,0.290734,0.158983
36702,-0.306826,1.511600,-9.887250,-1.797718,0.266466,0.115901
36703,-0.301009,1.021086,-10.150120,-1.507268,0.244679,0.111159
36704,-0.300331,0.988347,-9.864424,-1.179627,0.238330,0.095377
36705,-0.388784,1.096882,-10.162669,-0.778311,0.209479,0.082350
36706,-0.311901,1.612425,-9.955346,-0.415738,0.182792,0.068929
36707,-0.331380,1.956048,-9.814171,-0.231443,0.145038,0.045275
36708,-0.271347,1.843733,-9.877934,-0.047737,0.074061,0.016070
36709,-0.178512,1.705244,-9.862617,0.195764,0.045037,-0.001559
36710,-0.190805,1.575085,-9.708879,0.459787,0.007165,-0.019525
36711,-0.278121,1.348999,-9.852940,0.770989,-0.035363,-0.044645
36712,-0.312217,1.282241,-9.807762,1.107465,-0.065845,-0.052029
36713,-0.284879,1.421468,-9.738656,1.384174,-0.108665,-0.065550
36714,-0.157921,1.454074,-9.626237,1.556273,-0.135302,-0.065938
36715,-0.156137,0.977784,-9.626600,1.686373,-0.164207,-0.068678
36716,-0.142280,-0.037605,-9.761807,1.976228,-0.191980,-0.061061
36717,-0.288543,-1.191310,-10.191251,2.542673,-0.213193,-0.063398
36718,-0.475815,-2.019845,-10.604961,3.388914,-0.229441,-0.059623
36719,-0.729648,-2.341051,-10.761053,4.297954,-0.292744,-0.092097
36720,-0.729284,-2.436805,-10.910126,5.120043,-0.387234,-0.132441
36721,-0.555141,-2.295551,-11.055790,5.851796,-0.446256,-0.200549
36722,-0.531692,-2.148124,-11.185123,6.388761,-0.464751,-0.259045
36723,-0.528675,-2.256342,-11.083293,6.722367,-0.504851,-0.312633
36724,-0.429232,-2.783352,-11.152962,6.943771,-0.527800,-0.379535
36725,-0.469323,-3.289829,-11.102891,7.205859,-0.547955,-0.428268
36726,-0.713195,-3.681452,-10.898092,7.411492,-0.609026,-0.457370
36727,-0.640988,-3.922201,-10.451937,7.526071,-0.705632,-0.489550
36728,-0.434902,-4.193077,-9.916326,7.495829,-0.723301,-0.438600
36729,-0.681740,-4.354944,-9.616582,7.459889,-0.721006,-0.423787
36730,-0.990925,-4.484859,-8.940775,7.363270,-0.819725,-0.493517
36731,-0.671867,-5.017038,-7.878523,7.087795,-0.940254,-0.534084
36732,-0.432476,-5.484770,-6.932498,6.955548,-0.871848,-0.548398
36733,-0.633041,-6.339674,-5.992102,6.681879,-0.832282,-0.454587
36734,-0.992578,-7.332044,-5.625933,6.582047,-0.746229,-0.301696
36735,-1.343491,-8.444752,-5.632117,6.482248,-0.772365,-0.295312
36736,-1.305245,-9.690213,-5.822274,6.569212,-0.800551,-0.429002
36737,-0.696468,-10.662325,-5.769274,6.747353,-0.833191,-0.451744
36738,-0.251366,-11.160557,-6.001161,7.018187,-0.756121,-0.295550
36739,-0.394807,-10.479681,-5.507181,7.183817,-0.708839,-0.232560
36740,-0.454180,-9.149037,-4.638955,7.059489,-0.665270,-0.251985
36741,-0.582477,-7.543512,-3.387619,6.640174,-0.587617,-0.239488
36742,-0.730280,-7.380836,-2.478610,5.857876,-0.527626,-0.278663
36743,-0.782298,-8.076198,-1.445830,5.228658,-0.466106,-0.265945
36744,-0.843765,-9.453823,-1.170326,4.999749,-0.442652,-0.313744
36745,-0.984552,-10.087142,-0.807074,5.169420,-0.473999,-0.222852
36746,-0.922556,-9.657480,-0.328806,5.424899,-0.571597,-0.164333
36747,-0.663601,-8.469189,0.438633,5.393479,-0.628821,-0.156360
36748,-0.525986,-7.334796,1.406967,5.075333,-0.597157,-0.148240
36749,-0.847933,-7.513153,1.911158,4.471288,-0.610136,-0.086942
36750,-0.871007,-9.081785,2.527130,3.938296,-0.672678,0.024506
36751,-0.133173,-9.738830,3.177584,4.275687,-0.664125,0.078609
36752,-0.449074,-8.063392,3.205788,4.527544,-0.772218,0.108008
36753,0.031575,-6.584768,4.300687,3.910237,-0.685628,0.103508
36754,-0.051982,-6.415306,4.866118,3.314138,-0.559467,0.101694
36755,-0.163509,-6.562537,5.050815,2.871459,-0.557450,0.153113
36756,0.151766,-6.813985,5.459155,2.559356,-0.531231,0.129873
36757,0.267848,-6.241806,5.797486,2.275957,-0.428034,0.080444
36758,0.028948,-5.935176,6.024722,1.741504,-0.364871,0.048021
36759,-0.051708,-6.518535,6.312713,1.253902,-0.301600,0.043377
36760,-0.068586,-6.963512,6.266136,1.008253,-0.260412,0.045479
36761,-0.068508,-6.970786,6.221389,0.821337,-0.234486,0.058416
36762,-0.103638,-6.689142,6.203979,0.613215,-0.208370,0.071929
36763,-0.144373,-6.551367,6.203414,0.354870,-0.178516,0.092663
36764,-0.150651,-6.696632,6.071583,0.157337,-0.166746,0.116898
36765,0.005883,-6.673583,6.003911,0.024147,-0.155942,0.130476
36766,0.080138,-6.521802,5.949832,-0.147942,-0.125480,0.122188
36767,-0.094693,-6.614495,5.839720,-0.399146,-0.103673,0.102742
36768,-0.242322,-7.510356,5.795564,-0.576816,-0.084223,0.090964
36769,-0.293747,-8.493412,5.771328,-0.420014,-0.108666,0.086417
36770,-0.237695,-8.419994,5.685593,-0.076790,-0.147096,0.060889
36771,-0.242513,-7.544681,5.681858,0.092177,-0.170591,0.036634
36772,-0.206669,-7.103037,5.639545,0.004563,-0.172400,0.008390
36773,-0.215165,-7.298705,5.563743,-0.059840,-0.180368,0.005118
36774,-0.145646,-7.475533,5.532267,0.004771,-0.199544,0.009913
36775,-0.127644,-7.039203,5.501944,0.106702,-0.231462,0.014249
36776,-0.019615,-6.349343,5.545995,0.055568,-0.245873,0.019352
36777,-0.052220,-6.020228,5.520956,-0.156739,-0.245171,0.025878
36778,-0.049566,-6.281901,5.422357,-0.374845,-0.253585,0.034242
36779,-0.033781,-6.948423,5.346066,-0.490770,-0.280485,0.038709
36780,0.037131,-7.415193,5.203645,-0.397395,-0.305225,0.045865
36781,-0.003922,-7.345921,5.077181,-0.256504,-0.362390,0.049386
36782,0.170444,-7.208552,5.154578,-0.143015,-0.393682,0.046471
36783,0.184932,-6.869094,5.108335,-0.024690,-0.428860,0.041060
36784,0.335334,-6.382700,4.968542,0.029855,-0.462295,0.050130
36785,0.580760,-5.716123,4.728407,-0.021725,-0.504314,0.062806
36786,0.824247,-5.029276,4.585857,-0.204466,-0.519115,0.071285
36787,1.067847,-4.334711,4.394003,-0.495254,-0.521831,0.083229
36788,1.119583,-3.739881,4.178849,-0.876960,-0.539992,0.098249
36789,1.185344,-3.472594,4.115577,-1.401999,-0.560343,0.071090
36790,1.351802,-3.772396,4.072286,-1.983405,-0.570060,0.027557
36791,1.354167,-4.385230,3.963862,-2.453845,-0.557297,-0.038837
36792,1.408375,-5.112751,3.879542,-2.815086,-0.556663,-0.114782
36793,1.472818,-5.816045,3.529567,-3.015042,-0.549827,-0.204318
36794,1.421928,-6.172221,2.951343,-3.098718,-0.594272,-0.311172
36795,1.510483,-6.582676,2.753262,-3.218737,-0.647948,-0.438780
36796,1.600887,-7.147532,2.987246,-3.321018,-0.653034,-0.561177
36797,1.360864,-8.105623,3.131744,-3.344113,-0.653509,-0.681866
36798,1.340184,-9.314676,3.250217,-3.146262,-0.639477,-0.784596
36799,1.358241,-10.128157,3.180384,-2.641151,-0.627149,-0.846830
36800,1.705713,-10.344506,2.714972,-2.052669,-0.634133,-0.883420
36801,1.892193,-9.768763,2.021489,-1.382110,-0.627083,-0.963348
36802,1.823619,-8.520203,1.627528,-0.895877,-0.664759,-1.139284
36803,1.912947,-7.537532,1.809657,-0.760863,-0.678712,-1.302246
36804,2.047509,-7.602856,2.208690,-0.912259,-0.621768,-1.412362
36805,2.203088,-8.611592,2.334342,-0.999321,-0.552568,-1.490184
36806,2.506888,-9.730585,2.336160,-0.844104,-0.518429,-1.521173
36807,2.874457,-10.107268,2.272043,-0.484269,-0.476577,-1.557542
36808,3.076919,-9.537661,2.058757,-0.117700,-0.451140,-1.583730
36809,3.041180,-8.444971,1.736763,0.091805,-0.470443,-1.647423
36810,3.114492,-7.694405,1.729367,0.035189,-0.491051,-1.717529
36811,3.160554,-7.784510,2.013389,-0.221202,-0.489362,-1.761663
36812,3.305810,-8.864285,2.410944,-0.445150,-0.474849,-1.763035
36813,3.488457,-10.112528,2.475317,-0.438819,-0.449125,-1.729345
36814,3.720088,-10.638363,2.152845,-0.210069,-0.441745,-1.678957
36815,4.029854,-10.035475,1.923073,0.006558,-0.451676,-1.652748
36816,4.296900,-8.983767,1.805993,0.065790,-0.440821,-1.643013
36817,4.510365,-8.104659,1.674668,-0.059891,-0.436531,-1.672596
36818,4.748517,-7.804297,1.505339,-0.303832,-0.438091,-1.709147
36819,4.890806,-8.143679,1.482787,-0.552687,-0.441162,-1.732520
36820,4.993441,-9.015682,1.534215,-0.685629,-0.452578,-1.743354
36821,5.075104,-10.050162,1.580039,-0.653326,-0.457916,-1.731958
36822,5.347995,-10.736249,1.593863,-0.442765,-0.448833,-1.696051
36823,5.642620,-10.640725,1.612946,-0.193164,-0.429363,-1.648908
36824,5.865627,-9.806023,1.422036,-0.043233,-0.405653,-1.620283
36825,5.920962,-8.683638,1.278783,-0.086983,-0.400775,-1.613156
36826,5.859055,-8.117687,1.209372,-0.307178,-0.391930,-1.618149
36827,5.657074,-8.290699,1.285587,-0.567164,-0.390717,-1.632972
36828,5.687772,-9.137268,1.361168,-0.707520,-0.406181,-1.634550
36829,6.118225,-9.935455,1.266752,-0.621849,-0.430954,-1.629564
36830,6.504321,-10.180758,1.178428,-0.414653,-0.450234,-1.600403
36831,6.727571,-9.776124,1.257533,-0.223675,-0.446823,-1.565880
36832,6.972469,-9.186465,1.272102,-0.166891,-0.441892,-1.523141
36833,7.177698,-8.672912,1.294875,-0.232592,-0.422027,-1.489305
36834,7.249746,-8.295742,1.250236,-0.357598,-0.394095,-1.472152
36835,7.120255,-8.194655,1.314732,-0.538089,-0.367776,-1.456243
36836,7.029963,-8.469653,1.431988,-0.696694,-0.356802,-1.427092
36837,6.852172,-8.980249,1.490679,-0.764802,-0.357813,-1.393110
36838,6.804304,-9.566301,1.550716,-0.711888,-0.364123,-1.362464
36839,6.972047,-9.826810,1.439007,-0.544658,-0.362121,-1.325210
36840,7.282433,-9.689317,1.302811,-0.346060,-0.349669,-1.289265
36841,7.555064,-9.231240,1.276404,-0.182959,-0.312458,-1.251338
36842,7.859262,-8.698623,1.152643,-0.087984,-0.274555,-1.221241
36843,8.155341,-8.010602,0.949714,-0.061368,-0.222573,-1.201579
36844,8.300278,-7.300661,0.825958,-0.118641,-0.166274,-1.196764
36845,8.129367,-6.810892,0.785358,-0.281172,-0.097157,-1.192919
36846,7.744851,-6.704430,0.732568,-0.475291,-0.065957,-1.192873
36847,7.208572,-7.017749,0.732907,-0.650378,-0.059857,-1.197942
36848,7.008025,-7.678066,0.738690,-0.719277,-0.065794,-1.221882
36849,7.422348,-8.309525,0.636936,-0.642571,-0.072305,-1.240078
36850,7.728629,-8.486147,0.447019,-0.456556,-0.044861,-1.235933
36851,7.842123,-8.128944,0.279790,-0.281216,-0.019062,-1.230044
36852,7.959508,-7.518815,0.143694,-0.200888,0.005855,-1.228391
36853,8.132256,-6.987645,-0.082163,-0.216338,0.046628,-1.234321
36854,8.204740,-6.548968,-0.245615,-0.277744,0.106624,-1.245793
36855,7.992734,-6.308336,-0.264075,-0.390845,0.152769,-1.252573
36856,7.497485,-6.366358,-0.223460,-0.513735,0.183660,-1.265486
36857,7.330781,-6.756762,-0.123553,-0.564077,0.185165,-1.281551
36858,7.383153,-7.217127,-0.144623,-0.530487,0.174242,-1.297536
36859,7.562249,-7.592963,-0.140405,-0.398875,0.176798,-1.304559
36860,7.764354,-7.609601,-0.100147,-0.237029,0.177792,-1.300969
36861,8.030343,-7.399316,-0.141295,-0.117059,0.183184,-1.293193
36862,8.246740,-7.021017,-0.101357,-0.071612,0.214892,-1.271777
36863,8.467947,-6.606438,-0.164575,-0.096200,0.259197,-1.247751
36864,8.621836,-6.237005,-0.149372,-0.174162,0.304824,-1.219433
36865,8.790957,-5.869274,-0.202221,-0.279564,0.368082,-1.184606
36866,8.899206,-5.431091,-0.144607,-0.432726,0.428248,-1.139551
36867,8.977637,-5.035390,-0.119584,-0.631062,0.489122,-1.094832
36868,8.976406,-4.754250,-0.104685,-0.876031,0.546764,-1.041817
36869,8.963838,-4.600697,-0.071130,-1.144790,0.590181,-0.990000
36870,8.985155,-4.606842,-0.113212,-1.419973,0.625583,-0.933026
36871,8.925348,-4.719038,-0.150837,-1.664617,0.648655,-0.888455
36872,8.867732,-4.859036,-0.195903,-1.865363,0.660393,-0.826569
36873,8.758806,-5.031525,-0.255414,-2.038215,0.655780,-0.791343
36874,8.819157,-5.181154,-0.375895,-2.166569,0.633577,-0.752256
36875,8.754577,-5.306234,-0.580611,-2.245068,0.604732,-0.727301
36876,8.566022,-5.384994,-0.794633,-2.271897,0.542463,-0.714049
36877,8.448049,-5.424817,-0.896681,-2.300333,0.453010,-0.708093
36878,8.461598,-5.612148,-0.943724,-2.353880,0.355151,-0.703898
36879,8.631643,-6.024922,-0.962521,-2.374087,0.268679,-0.675664
36880,8.668085,-6.472905,-0.958605,-2.297600,0.192506,-0.629485
36881,8.734148,-6.833683,-1.025272,-2.110049,0.109906,-0.559039
36882,8.678686,-6.917917,-1.077495,-1.821354,0.027944,-0.482698
36883,8.714572,-6.781859,-1.152925,-1.501369,-0.047928,-0.411767
36884,8.782894,-6.475803,-1.191878,-1.211442,-0.116722,-0.340162
36885,8.810912,-6.159473,-1.230089,-0.982052,-0.169919,-0.278937
36886,8.713814,-5.890382,-1.238428,-0.796278,-0.198798,-0.228690
36887,8.488477,-4.977167,-0.741607,-0.726584,-0.191573,-0.257342
36888,8.291091,-4.703934,-0.061437,-0.958984,-0.154269,-0.216492
36889,8.533384,-6.492494,0.442578,-1.058852,-0.260920,-0.045280
36890,9.404834,-8.255193,0.098211,-0.661636,-0.269848,0.083433
36891,9.465976,-8.002410,0.443844,-0.143405,-0.153445,0.108493
36892,9.231216,-6.803944,1.021466,0.046472,-0.062623,0.129570
36893,9.317718,-6.018014,0.839106,-0.017202,-0.020893,0.153068
36894,9.534627,-5.495045,0.323171,-0.070615,0.040897,0.215107
36895,9.381625,-4.902544,-0.099785,-0.103170,0.121408,0.277921
36896,9.090810,-4.380010,-0.495708,-0.143216,0.162858,0.318488
36897,9.113894,-3.619422,-0.719255,-0.289245,0.194458,0.341780
36898,9.219940,-2.970223,-0.986665,-0.604153,0.246210,0.327314
36899,9.139517,-2.803974,-1.148227,-0.984512,0.296675,0.319212
36900,8.800465,-3.693295,-1.234969,-1.250221,0.287091,0.321925
36901,8.602006,-4.857927,-1.313310,-1.081789,0.233772,0.338858
36902,8.606338,-5.432962,-1.498132,-0.750102,0.187411,0.340496
36903,8.556281,-5.241528,-1.373524,-0.328068,0.158775,0.332679
36904,8.679255,-4.566422,-1.329851,-0.064949,0.128335,0.313508
36905,8.781556,-3.943729,-1.296891,-0.004795,0.122269,0.297020
36906,8.813369,-3.552022,-1.167974,-0.085933,0.124666,0.280375
36907,8.816814,-3.595660,-1.217155,-0.201991,0.116368,0.267471
36908,8.787411,-3.714854,-1.236705,-0.276876,0.109723,0.252968
36909,8.741609,-3.834310,-1.229457,-0.305982,0.097489,0.228514
36910,8.741371,-3.849689,-1.209835,-0.306635,0.084538,0.196700
36911,8.791425,-3.810092,-1.179022,-0.316127,0.070979,0.171564
36912,8.790804,-3.796919,-1.160791,-0.331578,0.060845,0.151679
36913,8.789955,-3.854049,-1.171963,-0.349852,0.044903,0.133127
36914,8.790680,-4.005522,-1.213994,-0.334317,0.039422,0.110054
36915,8.836753,-4.126289,-1.268224,-0.284495,0.024780,0.087394
36916,8.870653,-4.129803,-1.236624,-0.218014,0.013807,0.067958
36917,8.858400,-4.137286,-1.189869,-0.151365,0.006339,0.050784
36918,8.834373,-4.070150,-1.159596,-0.094409,-0.003299,0.033812
36919,8.861470,-4.046239,-1.144624,-0.054703,-0.009537,0.019350
36920,8.855792,-4.028349,-1.068716,-0.030343,-0.014059,0.004899
36921,8.817446,-4.058123,-1.036158,-0.017361,-0.017119,-0.004646
36922,8.824394,-4.058266,-1.015065,-0.008816,-0.023947,-0.015870
36923,8.821879,-4.062136,-0.940618,-0.010340,-0.023263,-0.026546
36924,8.801408,-4.085797,-0.938663,-0.020198,-0.028474,-0.036237
36925,8.843447,-4.130721,-0.905449,-0.030964,-0.026273,-0.042297
36926,8.852612,-4.223655,-0.916347,-0.034557,-0.028027,-0.045122
36927,8.818103,-4.273845,-0.886772,-0.028062,-0.022295,-0.043673
36928,8.851930,-4.292757,-0.874726,-0.017678,-0.021921,-0.047305
36929,8.846912,-4.287390,-0.900653,-0.008512,-0.022009,-0.044233
36930,8.904120,-4.304176,-0.894119,0.000958,-0.014235,-0.044232
36931,8.909784,-4.348871,-0.898726,0.007603,-0.012322,-0.042926
36932,8.953341,-4.322089,-0.833790,0.006380,-0.004779,-0.041426
36933,8.943342,-4.340636,-0.882292,0.004855,0.002387,-0.034440
36934,8.973154,-4.311933,-0.863026,0.001792,0.010253,-0.038127
36935,8.908608,-4.364607,-0.845808,-0.008055,0.011503,-0.030153
36936,8.931440,-4.335089,-0.849835,-0.012873,0.017274,-0.031476
36937,8.862741,-4.339749,-0.828563,-0.012266,0.024484,-0.024789
36938,8.879766,-4.405672,-0.885583,-0.004094,0.026214,-0.020429
36939,8.870065,-4.354189,-0.903083,0.006983,0.024414,-0.019860
36940,8.887579,-4.349295,-0.930286,0.017825,0.027818,-0.011456
36941,8.879461,-4.323295,-0.948142,0.026979,0.035229,-0.005963
36942,8.861357,-4.302460,-0.912055,0.025146,0.035045,-0.003529
36943,8.872344,-4.226100,-0.932327,0.020856,0.042445,-0.000519
36944,8.882576,-4.221712,-0.981047,0.014812,0.047748,0.004853
36945,8.862126,-4.177364,-0.942541,0.006019,0.053284,0.006249
36946,8.895707,-4.170774,-0.997783,-0.005975,0.054999,0.006881
36947,8.895900,-4.171443,-0.993254,-0.018663,0.058390,0.010929
36948,8.889325,-4.171033,-1.012547,-0.030578,0.058202,0.011484
36949,8.882778,-4.170476,-1.032364,-0.035001,0.054439,0.009797
36950,8.884902,-4.195337,-1.030854,-0.030264,0.050589,0.011204
36951,8.873785,-4.217708,-1.076246,-0.022232,0.049169,0.005689
36952,8.886632,-4.292214,-1.054832,-0.001604,0.037718,0.009037
36953,8.847998,-4.268752,-1.089986,0.026600,0.028796,0.004882
36954,8.876116,-4.244044,-1.067265,0.046310,0.025276,0.004249
36955,8.872220,-4.196261,-1.059590,0.061379,0.016210,-0.000280
36956,8.874912,-4.149645,-1.028643,0.062976,0.014127,0.002709
36957,8.866342,-4.125031,-1.046682,0.058476,0.012269,0.001086
36958,8.849599,-4.129234,-1.013531,0.044422,0.012023,0.001912
36959,8.842986,-4.128850,-1.034092,0.033787,0.017378,0.005708
36960,8.826097,-4.133127,-1.001701,0.018673,0.013340,0.005475
36961,8.802589,-4.136165,-0.993374,0.006600,0.016958,0.006142
36962,8.800488,-4.112467,-0.990070,-0.005393,0.018663,0.006740
36963,8.827802,-4.159170,-0.998777,-0.020446,0.020225,0.008842
36964,8.827649,-4.159662,-0.998075,-0.031440,0.020116,0.008157
36965,8.808120,-4.210962,-0.994602,-0.034877,0.022030,0.007592
36966,8.795099,-4.263479,-0.967837,-0.026629,0.014345,0.009509
36967,8.813817,-4.284589,-0.999135,-0.016527,0.014873,0.003788
36968,8.811727,-4.260652,-0.996738,0.001497,0.007334,0.005470
36969,8.832981,-4.234531,-1.000650,0.004855,0.007338,0.006104
36970,8.858820,-4.185227,-0.979430,0.004715,0.003649,0.003831
36971,8.863268,-4.162442,-0.953801,-0.000782,0.003596,0.003486
36972,8.835144,-4.188274,-0.972415,-0.009418,0.005314,0.004712
36973,8.858417,-4.186214,-0.978863,-0.013697,0.005217,0.005290
36974,8.860268,-4.210724,-0.980897,-0.018194,0.003345,0.003664
36975,8.866687,-4.212032,-0.958021,-0.024612,0.003201,0.004531
36976,8.866516,-4.212292,-0.958466,-0.018055,0.007037,0.005938
36977,8.857773,-4.187159,-0.980650,-0.021177,0.001293,0.005096
36978,8.866175,-4.212748,-0.959617,-0.021552,0.003349,0.003029
36979,8.857533,-4.187371,-0.981908,-0.023770,0.005218,0.003387
36980,8.855547,-4.162930,-0.980817,-0.027642,0.003586,-0.001590
36981,8.866305,-4.212005,-0.961671,-0.029532,0.005832,-0.006717
36982,8.836638,-4.212376,-0.979446,-0.028314,0.005788,-0.005793
36983,8.837142,-4.211201,-0.979950,-0.025299,0.008367,-0.014845
36984,8.837243,-4.281401,-1.008957,-0.007432,0.004634,-0.013023
36985,8.784633,-4.283443,-1.019257,0.007658,0.003574,-0.022736
36986,8.760310,-4.259562,-1.009929,0.028758,0.004198,-0.027758
36987,8.793642,-4.280291,-0.992770,0.044440,0.002867,-0.033197
36988,8.835616,-4.271433,-1.026603,0.061668,0.001881,-0.043197
36989,8.888557,-4.311708,-1.039807,0.076050,0.002539,-0.049490
