// Start Time: Unknown
// Update Rate: 100.0Hz
// Filter Profile: human (46.1)
// Firmware Version: 4.3.5
PacketCounter,Acc_X,Acc_Y,Acc_Z,Gyr_X,Gyr_Y,Gyr_Z
01426,9.737951,-1.407796,0.357541,-0.019390,0.014192,0.006754
01427,9.722582,-1.460570,0.353196,-0.022809,0.013296,0.004646
01428,9.722444,-1.461281,0.354060,-0.015329,0.010204,0.008590
01429,9.718648,-1.424594,0.335410,-0.010537,0.009684,0.004724
01430,9.720915,-1.428448,0.359958,-0.002428,0.001713,0.008392
01431,9.737330,-1.411216,0.360960,-0.002644,0.004222,0.006203
01432,9.751347,-1.390951,0.337907,-0.000817,0.002089,0.011775
01433,9.768795,-1.343268,0.367738,-0.007740,0.005857,0.013630
01434,9.752042,-1.362674,0.367377,-0.015949,0.005482,0.015387
01435,9.753044,-1.398599,0.363141,-0.026597,0.009470,0.018694
01436,9.755131,-1.403625,0.387793,-0.027451,0.009907,0.016457
01437,9.791696,-1.471932,0.376366,-0.037985,0.022240,0.014345
01438,9.774832,-1.491580,0.377081,-0.028589,0.018402,0.018112
01439,9.774542,-1.493088,0.378624,-0.022202,0.020911,0.010788
01440,9.756505,-1.478033,0.384156,-0.013673,0.017515,0.012315
01441,9.753907,-1.476073,0.361580,-0.009085,0.016852,0.013105
01442,9.773743,-1.497155,0.383164,-0.007260,0.014711,0.018677
01443,9.793507,-1.518625,0.404750,-0.005754,0.016337,0.020968
01444,9.756482,-1.518803,0.385516,-0.000532,0.020401,0.014968
01445,9.752615,-1.482973,0.368130,0.004913,0.019293,0.017998
01446,9.773504,-1.473176,0.419069,0.005974,0.018996,0.015583
01447,9.718753,-1.456713,0.404179,0.002582,0.025053,0.013803
01448,9.719671,-1.492105,0.401921,0.003644,0.024755,0.011388
01449,9.737156,-1.509514,0.400871,-0.000154,0.033176,0.012077
01450,9.738124,-1.610022,0.366166,0.006381,0.038713,0.013031
01451,9.776716,-1.681606,0.382238,0.019353,0.048385,0.020689
01452,9.753804,-1.661135,0.343234,0.030385,0.051847,0.028195
01453,9.660953,-1.610207,0.315097,0.029448,0.050878,0.031711
01454,9.666661,-1.548710,0.229538,0.016266,0.050882,0.041971
01455,9.627913,-1.387047,0.284682,-0.023504,0.046261,0.050433
01456,9.668981,-1.164480,0.290051,-0.086216,0.038046,0.054556
01457,9.735741,-1.003120,0.357603,-0.177433,0.024519,0.062813
01458,9.893470,-0.927987,0.429549,-0.275160,0.038155,0.067166
01459,9.925613,-0.976007,0.596721,-0.373940,0.074765,0.062481
01460,9.969665,-1.064651,0.685119,-0.431636,0.108654,0.046744
01461,10.010499,-1.226912,0.913460,-0.461887,0.138245,0.040572
01462,10.166001,-1.279653,1.349034,-0.465353,0.172618,0.031682
01463,10.341405,-1.358339,1.833194,-0.457326,0.227176,0.000034
01464,10.514223,-1.609492,1.999835,-0.419847,0.334658,-0.055781
01465,10.511073,-1.877800,1.667909,-0.311726,0.471896,-0.115471
01466,9.949744,-2.231386,1.175132,-0.100159,0.550185,-0.156880
01467,9.314890,-2.401825,0.644021,0.169149,0.498838,-0.159596
01468,9.096718,-2.457251,0.122356,0.397315,0.351793,-0.123872
01469,9.121505,-2.354213,-0.298121,0.549333,0.197438,-0.072641
01470,9.181506,-1.896156,-0.699509,0.621153,0.080932,-0.033002
01471,9.119212,-1.343478,-1.019400,0.557417,-0.022596,-0.008495
01472,9.161118,-0.884343,-1.078462,0.380457,-0.117407,0.023115
01473,9.375495,-0.477097,-0.872300,0.069392,-0.193396,0.068156
01474,9.733539,-0.411120,-0.581425,-0.354378,-0.177894,0.132451
01475,9.879853,-0.496428,-0.196379,-0.782199,-0.081741,0.196149
01476,9.817259,-0.689505,0.094706,-1.151182,0.032926,0.246981
01477,9.727954,-0.919899,0.535713,-1.412612,0.128628,0.281981
01478,9.789429,-1.117849,1.299452,-1.595954,0.194999,0.313256
01479,10.167419,-1.434182,2.200383,-1.728419,0.279148,0.322474
01480,10.661270,-1.760716,2.852123,-1.798441,0.434233,0.307920
01481,10.655522,-2.499481,2.666024,-1.691262,0.631356,0.251800
01482,9.965797,-3.460449,2.041573,-1.326117,0.741887,0.178397
01483,9.258580,-4.714835,1.418241,-0.724655,0.701476,0.168196
01484,8.733739,-5.461883,0.919586,0.000076,0.543701,0.217920
01485,8.572802,-5.582728,0.419819,0.669164,0.323846,0.262382
01486,8.602378,-5.036447,-0.169463,1.238922,0.102401,0.301587
01487,8.745913,-4.008334,-0.694241,1.626894,-0.070427,0.320571
01488,8.770317,-2.797225,-1.155353,1.819562,-0.224250,0.343138
01489,8.929988,-1.755830,-1.205905,1.765410,-0.371539,0.374062
01490,9.404208,-0.921273,-0.708136,1.430925,-0.472641,0.427604
01491,10.065336,-0.271385,-0.160916,0.873139,-0.438449,0.511906
01492,10.408463,0.260195,0.343714,0.237139,-0.262364,0.576822
01493,10.341477,0.628836,0.778318,-0.404617,-0.032617,0.602335
01494,10.202320,0.829909,1.637170,-1.020556,0.158744,0.600711
01495,10.518852,0.472929,2.580503,-1.623032,0.320405,0.595545
01496,11.094552,-0.159804,3.009154,-2.130963,0.561792,0.580418
01497,11.004380,-1.188074,2.690268,-2.427615,0.839831,0.510553
01498,10.405095,-2.587865,2.017023,-2.382778,1.012716,0.424460
01499,9.583052,-4.416728,1.349465,-1.990912,1.025685,0.398856
01500,8.833315,-6.063276,0.966622,-1.321046,0.880542,0.431979
01501,8.313846,-7.044768,0.436798,-0.497890,0.631736,0.495096
01502,7.968553,-7.237608,-0.150719,0.357278,0.335915,0.536819
01503,7.867147,-6.497700,-0.787053,1.148021,0.027968,0.564299
01504,8.053578,-5.310255,-1.167937,1.740781,-0.270515,0.590908
01505,8.559614,-4.005679,-1.133801,2.046747,-0.542849,0.629029
01506,9.212076,-2.722520,-0.892080,2.018311,-0.717875,0.676117
01507,9.669079,-1.492002,-0.441762,1.717684,-0.757231,0.710364
01508,9.985668,-0.349907,0.055975,1.210023,-0.675458,0.719763
01509,10.251078,0.555484,0.630400,0.541327,-0.504508,0.714868
01510,10.305246,1.066293,1.432042,-0.235038,-0.283301,0.711422
01511,10.563497,1.242252,2.753136,-1.069370,-0.029581,0.681040
01512,11.350635,0.756143,3.789810,-1.904668,0.307901,0.632523
01513,11.894284,-0.231400,3.920420,-2.558977,0.752364,0.533485
01514,11.224651,-1.664933,2.861014,-2.890128,1.145461,0.376369
01515,9.647772,-3.665535,1.396106,-2.709976,1.305366,0.215856
01516,8.186144,-6.032576,0.560202,-2.038812,1.165537,0.142711
01517,7.351274,-8.110991,0.072452,-1.073414,0.829424,0.203437
01518,6.768481,-9.319900,-0.528239,0.014247,0.400514,0.312461
01519,6.564861,-9.088946,-1.062635,1.085190,-0.032410,0.407134
01520,6.881944,-7.743537,-1.578626,1.972071,-0.421685,0.482042
01521,7.682138,-6.118483,-1.619751,2.589679,-0.756970,0.561653
01522,8.734062,-4.414989,-1.119354,2.833910,-0.987054,0.650131
01523,9.597918,-2.805744,-0.456060,2.659161,-1.064232,0.704382
01524,10.192780,-1.308167,0.250296,2.165400,-0.976610,0.704272
01525,10.414799,0.081568,0.818151,1.449101,-0.761753,0.652498
01526,10.270214,1.160767,1.464997,0.581934,-0.480785,0.573005
01527,10.215620,1.705630,2.438303,-0.401482,-0.185503,0.488335
01528,10.646555,1.449410,3.476808,-1.405919,0.161794,0.438144
01529,11.141073,0.392599,3.555147,-2.270703,0.608369,0.407611
01530,10.743023,-1.088600,2.545788,-2.818303,1.022625,0.352190
01531,9.489171,-3.291863,1.235480,-2.883842,1.208083,0.271189
01532,8.383319,-5.756492,0.691062,-2.466749,1.145037,0.231689
01533,7.783451,-8.075417,0.596971,-1.760196,0.903936,0.291253
01534,7.270460,-9.586881,0.250620,-0.882424,0.601208,0.389209
01535,6.657745,-9.996633,-0.595224,0.121329,0.259728,0.474647
01536,6.287153,-9.345155,-1.310878,1.136286,-0.115443,0.560581
01537,6.680465,-8.122923,-1.342504,1.949354,-0.503766,0.668924
01538,7.900562,-6.753583,-0.957136,2.366079,-0.823952,0.813767
01539,9.121938,-5.232601,-0.536510,2.413889,-0.967636,0.926007
01540,9.774345,-3.612699,-0.018869,2.140823,-0.931686,0.953840
01541,10.007441,-2.026953,0.541714,1.620174,-0.790848,0.905536
01542,10.177873,-0.657907,1.220296,0.881145,-0.585636,0.838585
01543,10.329619,0.212501,1.658858,-0.041825,-0.327408,0.800352
01544,10.366175,0.367575,1.969815,-1.015156,-0.047650,0.781857
01545,10.373402,-0.311994,2.785753,-1.932687,0.277752,0.754286
01546,10.483959,-1.751964,3.268149,-2.734768,0.692397,0.718250
01547,9.928152,-3.685073,2.815985,-3.215385,1.155508,0.692975
01548,8.418678,-5.604677,2.132564,-3.235881,1.415769,0.656237
01549,7.238598,-7.469313,1.717095,-2.855356,1.404179,0.674633
01550,6.602123,-9.297040,1.385312,-2.176230,1.225446,0.763872
01551,6.511681,-10.769017,0.872443,-1.259808,0.927477,0.899884
01552,6.628414,-11.428796,0.185719,-0.221203,0.577670,1.022092
01553,7.041668,-11.044080,-0.412068,0.775038,0.213363,1.113174
01554,7.548553,-9.917518,-0.994442,1.602492,-0.106512,1.192133
01555,8.107401,-8.507053,-1.072829,2.155294,-0.390877,1.267213
01556,8.661947,-7.161882,-0.801951,2.341020,-0.577971,1.350221
01557,9.003819,-5.742752,-0.162144,2.200791,-0.660382,1.387214
01558,9.261187,-3.944924,0.959357,1.764090,-0.625873,1.364494
01559,9.618730,-2.149789,2.510957,1.051667,-0.447845,1.267490
01560,9.957952,-0.964858,3.501741,0.162286,-0.084766,1.137856
01561,9.806826,-0.927841,3.835893,-0.706185,0.380432,0.994765
01562,9.338243,-2.009066,3.292374,-1.399486,0.784202,0.895540
01563,8.744879,-4.050192,2.390430,-1.712732,1.063145,0.855033
01564,8.078207,-6.101978,1.920957,-1.635026,1.215214,0.860094
01565,7.454835,-8.010359,1.574887,-1.322595,1.224660,0.898405
01566,6.754180,-9.520128,0.885156,-0.785172,1.095308,0.940399
01567,5.942283,-10.372196,-0.140491,-0.066398,0.843823,0.966180
01568,5.190857,-10.506953,-1.111405,0.775604,0.489330,0.976773
01569,5.037165,-9.958938,-1.332363,1.485416,0.072031,1.018808
01570,5.441383,-9.202342,-1.158155,1.901701,-0.299859,1.129051
01571,6.170952,-8.269954,-0.841104,2.085131,-0.558546,1.270276
01572,6.849241,-6.983224,-0.301650,2.018875,-0.678251,1.353214
01573,7.431411,-5.567862,0.589631,1.748081,-0.697672,1.345019
01574,8.091548,-4.056034,1.786814,1.260506,-0.577292,1.248168
01575,8.391487,-2.818853,3.029669,0.558252,-0.327094,1.116538
01576,8.419838,-2.432402,4.240754,-0.300804,0.028132,0.977023
01577,8.329924,-3.170517,4.549060,-1.139135,0.425823,0.898818
01578,7.921277,-4.641645,3.688577,-1.644359,0.766184,0.879745
01579,7.213781,-6.373736,2.650909,-1.718964,0.964271,0.885606
01580,6.603084,-8.079296,2.107488,-1.511054,1.018931,0.898004
01581,6.155270,-9.735006,1.745762,-1.129695,0.954338,0.935912
01582,5.660637,-11.017557,0.957329,-0.600158,0.802536,0.956654
01583,4.728239,-11.710238,-0.506995,0.158309,0.566428,0.951839
01584,3.660047,-11.760732,-1.080333,1.085806,0.228618,0.936087
01585,3.321967,-11.096571,-0.882545,1.855198,-0.188030,0.974358
01586,3.859146,-10.049068,-0.421698,2.314303,-0.563610,1.088815
01587,4.853359,-8.687578,0.069377,2.474216,-0.801314,1.222261
01588,5.691940,-7.192070,0.535356,2.360712,-0.877054,1.281429
01589,6.432665,-5.620562,1.248752,2.051005,-0.857027,1.232465
01590,7.037993,-3.920903,2.457803,1.457808,-0.719450,1.107668
01591,7.496627,-2.641542,4.092884,0.570849,-0.460156,0.957860
01592,7.863326,-2.175806,5.724151,-0.537070,-0.043191,0.811353
01593,8.126471,-2.951261,6.265819,-1.636716,0.492058,0.711107
01594,7.484479,-4.988708,4.612580,-2.283277,0.984412,0.669681
01595,5.877962,-7.425832,2.754982,-2.213122,1.234907,0.608096
01596,4.593843,-9.831027,2.333277,-1.776472,1.236912,0.604307
01597,3.905009,-12.129954,2.229163,-1.160048,1.044373,0.712348
01598,3.591980,-13.618015,1.176619,-0.319766,0.734036,0.820427
01599,3.062806,-13.846758,-0.029342,0.756076,0.396775,0.841106
01600,2.499408,-13.193938,-0.760180,1.838087,-0.013355,0.837768
01601,2.469824,-12.151174,-1.156084,2.762118,-0.439445,0.857400
01602,2.968889,-10.706288,-0.914508,3.403861,-0.797285,0.909059
01603,3.737479,-9.101202,-0.259436,3.638388,-1.045126,0.985345
01604,4.697090,-7.317599,0.878209,3.473066,-1.137126,1.059041
01605,5.754644,-5.151117,2.767664,2.876388,-1.025902,1.075752
01606,6.498849,-2.878632,4.665893,1.833926,-0.711400,1.025564
01607,6.943529,-1.387490,6.192803,0.535162,-0.226037,0.902269
01608,6.928745,-1.227852,6.636276,-0.815146,0.329857,0.747037
01609,6.372547,-2.804505,5.581299,-1.846459,0.809142,0.627967
01610,5.503637,-5.184043,4.473386,-2.368787,1.131009,0.560673
01611,4.577829,-7.826353,3.904451,-2.515634,1.285686,0.573065
01612,3.728876,-10.672824,3.723977,-2.331806,1.293588,0.679937
01613,2.958581,-13.188227,2.908435,-1.800346,1.152137,0.793395
01614,2.123972,-14.928683,1.176944,-0.752513,0.902227,0.859998
01615,1.006751,-15.402670,-0.476776,0.707540,0.529920,0.870538
01616,0.184257,-14.603841,-1.104980,2.125289,-0.001144,0.854612
01617,0.590998,-12.803320,-0.761446,3.140375,-0.571855,0.881455
01618,1.925591,-10.710950,-0.017996,3.567193,-0.979069,0.980863
01619,3.337467,-8.578337,0.892748,3.504560,-1.129328,1.125601
01620,4.243657,-6.148553,2.145372,3.011260,-1.063776,1.226501
01621,4.891405,-3.386592,3.865096,1.999489,-0.859706,1.263815
01622,5.320553,-0.858928,5.540334,0.491950,-0.544609,1.225892
01623,5.624875,0.545238,6.447375,-1.332821,-0.163769,1.138824
01624,5.932871,0.165533,6.617571,-3.142740,0.321338,1.023897
01625,5.823357,-1.942586,5.840607,-4.665568,0.861222,0.920378
01626,5.113712,-5.348631,4.256148,-5.564282,1.331112,0.900078
01627,3.696111,-9.210480,2.995147,-5.690747,1.607795,0.921028
01628,2.090924,-13.107669,2.368331,-5.188997,1.638222,1.005260
01629,0.633695,-16.984781,1.861920,-4.077960,1.384163,1.107434
01630,-0.302766,-19.900357,0.760723,-2.325823,0.908756,1.144364
01631,-0.582370,-20.810446,-0.508303,-0.022432,0.289939,1.096080
01632,-0.310055,-19.521329,-1.605962,2.346721,-0.337967,1.001481
01633,0.217097,-16.517119,-2.281159,4.290496,-0.881428,0.922961
01634,0.977488,-13.336347,-2.324138,5.586942,-1.254319,0.908228
01635,1.681434,-10.396362,-1.537773,6.172879,-1.434547,0.957819
01636,2.526187,-7.654838,-0.133212,6.095568,-1.443414,1.075038
01637,3.136801,-4.747057,1.970533,5.374228,-1.273282,1.181266
01638,3.368137,-1.484559,4.102590,4.046441,-0.964574,1.213135
01639,3.362749,1.132653,5.906815,2.144140,-0.566302,1.135531
01640,3.554588,2.050469,6.434680,0.033633,-0.121156,0.974387
01641,3.698304,0.852663,6.060112,-1.847559,0.382053,0.798884
01642,3.662561,-1.863527,5.130549,-3.241263,0.873728,0.690916
01643,3.215937,-5.136757,4.548430,-4.094501,1.289067,0.691542
01644,2.118867,-8.640983,4.475545,-4.468490,1.576175,0.784831
01645,0.305857,-12.699336,4.481446,-4.315461,1.658849,0.914518
01646,-1.477675,-17.473104,3.953642,-3.283643,1.467930,1.034933
01647,-2.460950,-21.148476,2.350025,-1.182462,0.995921,1.093442
01648,-2.371158,-22.091891,0.165073,1.563333,0.313292,1.098483
01649,-1.408841,-20.044734,-1.343044,4.277439,-0.363496,1.007147
01650,-0.232492,-15.674682,-1.493555,6.304877,-0.868066,0.823333
01651,0.771819,-11.120509,-0.681981,7.294575,-1.157440,0.691390
01652,1.756315,-7.510159,0.395662,7.416798,-1.214843,0.712383
01653,2.056562,-4.576736,1.806861,6.867411,-1.078774,0.804636
01654,1.805744,-2.043583,3.440403,5.817561,-0.833386,0.885129
01655,1.289560,0.573329,5.270846,4.254735,-0.542466,0.892616
01656,0.931233,2.866536,6.798515,2.230119,-0.287420,0.866958
01657,1.101272,4.073761,7.735321,-0.127150,-0.010081,0.804486
01658,1.835060,3.466240,7.717433,-2.508576,0.345769,0.719272
01659,2.459548,0.714537,7.249769,-4.528721,0.844080,0.633061
01660,2.308864,-3.448597,5.878665,-5.716966,1.337516,0.616222
01661,1.209747,-8.894371,4.834525,-5.716956,1.676481,0.666017
01662,-1.051002,-14.078191,4.124513,-4.479316,1.682466,0.803149
01663,-3.266634,-17.762571,3.708223,-2.388321,1.248413,0.947577
01664,-3.928072,-20.326149,3.810704,0.156805,0.491345,1.011838
01665,-3.350735,-21.347998,3.044627,2.710395,-0.332870,1.010172
01666,-1.967266,-19.226586,1.081581,4.766730,-1.027772,0.890222
01667,-0.586082,-14.995246,-0.765245,5.994414,-1.380681,0.646789
01668,0.096503,-9.828528,-0.991367,6.524059,-1.390406,0.478002
01669,0.199429,-3.497645,1.381697,6.051687,-1.132806,0.433466
01670,-0.021455,3.186261,5.868886,4.224845,-0.697934,0.491015
01671,-0.371355,8.161769,8.988267,1.310854,-0.241533,0.588476
01672,-0.737450,9.443800,8.237290,-1.742917,0.057696,0.678079
01673,-0.137751,8.661245,7.302502,-4.397056,0.196049,0.668646
01674,1.672316,5.712369,6.503112,-6.743625,0.436108,0.576888
01675,3.407446,0.356178,5.656167,-8.362028,1.046302,0.664329
01676,1.829381,-6.906124,3.704528,-8.769234,1.721039,0.799034
01677,-1.859899,-14.966757,1.727300,-7.714846,1.901072,0.969026
01678,-5.076419,-21.752841,1.394648,-5.614775,1.371593,1.120017
01679,-5.967328,-26.284521,1.447187,-2.819830,0.467614,0.973643
01680,-4.224041,-27.002760,1.147207,0.471782,-0.343686,0.555984
01681,-1.868702,-22.616868,0.447809,3.640363,-0.899711,0.147290
01682,-0.714523,-15.949013,-0.205420,5.806822,-1.150455,-0.114996
01683,-0.428690,-9.539840,-0.214162,6.711566,-1.147447,-0.251680
01684,-0.477235,-3.705989,1.143728,6.477402,-0.981101,-0.253681
01685,-0.873113,1.217645,3.664073,5.224289,-0.707300,-0.141603
01686,-1.351190,5.026787,6.056931,3.123312,-0.403921,-0.015046
01687,-1.497376,7.421232,7.033655,0.504646,-0.158656,0.094642
01688,-0.744600,7.901170,6.459797,-2.259380,0.011561,0.181462
01689,0.347118,5.914267,4.672082,-4.789537,0.207412,0.208923
01690,1.162522,1.882351,2.283325,-6.738272,0.489086,0.215371
01691,0.910556,-2.833655,0.026226,-7.929500,0.817265,0.234875
01692,-0.304347,-7.193771,-1.577857,-8.393763,1.027397,0.262763
01693,-1.703728,-10.902425,-2.220787,-8.237326,1.024059,0.262860
01694,-2.995828,-14.020158,-1.856643,-7.571040,0.822747,0.186983
01695,-3.603293,-16.626390,-1.274398,-6.449191,0.479279,0.046247
01696,-3.484783,-18.108584,-0.689057,-4.917491,0.131767,-0.114196
01697,-3.308280,-18.392028,-0.228659,-3.243454,-0.145503,-0.264613
01698,-3.079090,-17.556104,-0.010175,-1.646660,-0.370504,-0.340542
01699,-2.728973,-16.005391,0.251331,-0.332609,-0.529953,-0.341644
01700,-2.292210,-14.033681,0.453287,0.544280,-0.577129,-0.294999
01701,-1.642658,-11.807856,0.674837,0.956178,-0.545685,-0.228900
01702,-0.975960,-9.465295,1.316323,0.888399,-0.393568,-0.135509
01703,-0.754861,-7.197245,1.723336,0.441034,-0.201540,-0.066469
01704,-0.465663,-5.367348,2.244994,-0.264510,-0.083450,-0.029766
01705,0.215692,-4.895685,2.283107,-1.083667,0.031200,-0.077836
01706,0.858461,-5.760733,1.916484,-1.717059,0.171691,-0.177495
01707,1.183706,-7.938988,1.574521,-2.056250,0.379737,-0.254808
01708,0.353972,-10.752817,0.790461,-1.894913,0.534936,-0.276414
01709,-0.945142,-13.621440,-0.074782,-1.262964,0.550054,-0.288717
01710,-2.214449,-15.366637,-0.560681,-0.371621,0.450788,-0.284706
01711,-3.047391,-15.591688,-0.956985,0.567553,0.280050,-0.258961
01712,-2.727308,-14.173237,-0.549761,1.349425,0.057427,-0.147535
01713,-1.372215,-12.498369,-0.274100,1.745024,-0.089337,0.040512
01714,-0.460975,-11.030257,-0.619488,1.860805,-0.091780,0.187529
01715,-0.219068,-9.336362,-0.605850,1.642029,-0.029321,0.245803
01716,-0.237846,-7.592396,0.108023,1.012281,0.056563,0.269483
01717,-0.535191,-5.626815,0.913184,0.026317,0.170497,0.242923
01718,-0.758922,-4.444311,1.147692,-1.089032,0.254800,0.203054
01719,-1.044216,-4.499253,0.664280,-2.019577,0.314003,0.179047
01720,-1.270349,-5.832501,0.056432,-2.694900,0.350918,0.208121
01721,-1.471281,-7.725529,-0.461744,-3.039776,0.401114,0.270824
01722,-1.838500,-9.566275,-0.842105,-3.061893,0.450975,0.330520
01723,-2.133510,-11.205976,-1.211642,-2.780541,0.440051,0.361448
01724,-2.341690,-12.287225,-1.505203,-2.217049,0.383118,0.318893
01725,-2.218157,-12.844050,-1.804530,-1.531378,0.307089,0.256929
01726,-2.097175,-12.592786,-1.961884,-0.767308,0.243260,0.206343
01727,-1.900704,-11.677801,-2.020975,-0.140322,0.200077,0.176030
01728,-1.731427,-10.185701,-1.803244,0.251075,0.180955,0.134812
01729,-1.514335,-8.793658,-1.521175,0.358313,0.147760,0.077556
01730,-1.142462,-8.020670,-1.525934,0.321279,0.106304,0.030390
01731,-0.974869,-7.764044,-1.677459,0.238676,0.084122,-0.009754
01732,-0.928164,-8.115413,-1.676779,0.162952,0.067202,-0.078100
01733,-1.016889,-8.757971,-1.687487,0.160157,0.069965,-0.144672
01734,-1.223701,-9.464239,-1.694849,0.278054,0.093048,-0.207952
01735,-1.476943,-9.891546,-1.531855,0.479452,0.081247,-0.246971
01736,-1.575393,-9.987705,-1.641027,0.685174,0.049419,-0.264779
01737,-1.767801,-9.997077,-1.608944,0.896758,0.022798,-0.304881
01738,-1.919006,-9.948640,-1.398104,1.122814,-0.017435,-0.372545
01739,-1.949586,-10.344408,-1.081881,1.349118,-0.059181,-0.437090
01740,-1.977050,-10.851938,-0.905709,1.666511,-0.083601,-0.508356
01741,-1.940144,-11.148846,-0.647618,2.068044,-0.123057,-0.567469
01742,-1.784593,-11.466304,-0.324750,2.494916,-0.175577,-0.619409
01743,-1.362259,-11.899204,-0.409008,2.957760,-0.201347,-0.652299
01744,-1.264983,-11.745783,-0.600463,3.351203,-0.182031,-0.630734
01745,-1.451261,-10.596413,-0.340640,3.538146,-0.147401,-0.586504
01746,-1.719207,-9.127823,0.495385,3.449977,-0.175442,-0.560557
01747,-1.460632,-9.011755,0.918691,3.282632,-0.223443,-0.583447
01748,-0.917543,-9.398405,1.104229,3.305126,-0.221434,-0.613676
01749,-0.146123,-9.251413,1.598935,3.309253,-0.144415,-0.614686
01750,0.357984,-9.491578,1.813572,3.243720,0.004979,-0.539401
01751,-0.073719,-9.474499,1.895352,3.089283,0.157206,-0.476028
01752,-1.004323,-9.079681,2.566996,2.837540,0.257454,-0.486574
01753,-1.627619,-9.375812,3.477710,2.602425,0.244559,-0.532502
01754,-1.603805,-10.410878,3.953171,2.562815,0.176465,-0.554264
01755,-1.097665,-11.690104,3.870124,2.752977,0.157018,-0.462196
01756,-1.095177,-11.811706,3.805677,3.036489,0.164812,-0.299842
01757,-1.406051,-11.198616,3.451400,3.207234,0.145432,-0.150810
01758,-1.447326,-10.034381,3.106527,3.231608,0.036237,-0.057509
01759,-1.069103,-8.489054,2.782581,3.011987,-0.097373,-0.036635
01760,-0.258225,-7.054637,2.494841,2.538386,-0.222528,-0.038529
01761,0.468331,-5.730232,2.601907,1.887818,-0.294561,-0.027122
01762,0.654899,-4.522614,3.512640,1.092222,-0.247070,-0.037588
01763,0.308784,-3.625052,5.018272,0.275941,-0.101069,-0.092656
01764,-0.092820,-4.204170,6.489776,-0.456745,0.093478,-0.132772
01765,-0.685730,-6.261827,6.831993,-0.745313,0.284640,-0.163919
01766,-1.165410,-8.454496,7.042343,-0.554034,0.353468,-0.149702
01767,-1.071563,-10.751211,6.852232,0.044383,0.287746,-0.042034
01768,-0.687633,-12.552656,6.263957,0.948980,0.158833,0.093274
01769,-0.309685,-13.306375,5.170161,1.966198,0.023145,0.147951
01770,-0.429882,-12.734407,4.399210,2.873134,-0.148780,0.044391
01771,-0.565022,-11.622174,3.881007,3.494102,-0.357264,-0.124212
01772,-0.413832,-10.466406,3.560524,3.902144,-0.530758,-0.199509
01773,-0.388601,-8.845914,3.701589,4.013194,-0.627350,-0.209308
01774,-0.266316,-6.834067,4.506693,3.829354,-0.647345,-0.199705
01775,0.099280,-4.629991,5.882157,3.407767,-0.571367,-0.178269
01776,0.282483,-3.082144,7.280645,2.774711,-0.412210,-0.141290
01777,0.077397,-3.040451,8.103496,2.134292,-0.253605,-0.088915
01778,-0.163678,-4.376012,8.057637,1.687872,-0.181158,-0.015142
01779,-0.140661,-5.857857,7.722640,1.574675,-0.148992,0.062961
01780,-0.017697,-6.892974,7.648065,1.655044,-0.099889,0.093208
01781,-0.081921,-7.515247,7.833416,1.941019,-0.031725,0.021511
01782,-0.258490,-8.445663,8.253734,2.371128,-0.044255,-0.110660
01783,-0.243625,-9.654136,8.758815,3.071886,-0.169641,-0.304119
01784,0.103708,-10.687405,9.198622,3.983796,-0.367230,-0.533451
01785,-0.003374,-10.880279,9.187407,4.989445,-0.593978,-0.799536
01786,-0.144866,-9.033867,8.969688,5.931321,-0.830052,-1.109156
01787,0.111906,-5.452526,8.687231,6.464133,-0.980299,-1.310182
01788,0.313932,-1.690243,8.003887,6.298645,-0.999111,-1.266177
01789,0.408124,0.926017,7.314419,5.431192,-0.926528,-1.075974
01790,0.336107,2.069648,6.151597,4.154900,-0.730979,-0.874128
01791,-0.071062,2.094823,5.213816,2.916729,-0.546383,-0.658764
01792,-0.320840,2.306825,5.107135,1.746895,-0.474614,-0.404736
01793,-0.561451,3.128168,5.288058,0.477823,-0.484533,-0.191240
01794,-0.081361,4.340765,6.071134,-0.880725,-0.504908,-0.052950
01795,1.134480,5.098319,7.373572,-2.317832,-0.407326,0.062939
01796,2.486727,4.754197,9.299505,-3.670373,-0.076639,0.179583
01797,2.480345,2.928265,10.177048,-4.884803,0.407985,0.302271
01798,1.423539,-0.737961,10.301087,-5.481997,0.802947,0.376186
01799,0.165146,-5.732677,10.036606,-5.293835,0.963087,0.440714
01800,-0.730702,-11.469374,8.914846,-4.302038,0.791368,0.500513
01801,-0.925588,-16.005096,7.786575,-2.409409,0.391862,0.408774
01802,-0.639453,-16.424897,6.984639,0.059926,-0.141662,0.173935
01803,-0.176584,-12.126829,6.879870,2.308835,-0.618204,-0.086284
01804,0.149599,-6.708628,6.597092,3.589797,-0.921762,-0.252939
01805,0.667761,-2.664688,6.453416,3.923499,-1.035316,-0.313968
01806,1.229987,0.168509,6.399850,3.566129,-0.956257,-0.293820
01807,1.524387,2.281212,6.950027,2.698359,-0.757769,-0.190012
01808,1.475428,3.937710,8.131653,1.369235,-0.510117,-0.029581
01809,1.093107,5.198188,9.017050,-0.445153,-0.300951,0.178499
01810,0.627527,5.601148,8.789751,-2.522942,-0.131377,0.350571
01811,0.572142,5.208498,7.899947,-4.646225,0.001508,0.462914
01812,1.162974,4.297994,7.015247,-6.597169,0.155788,0.518460
01813,2.391414,2.664595,7.211210,-8.153027,0.424883,0.540785
01814,2.494654,-0.490539,6.517690,-9.332734,0.763618,0.596794
01815,1.152886,-5.939700,4.514665,-9.784087,0.947891,0.684061
01816,-0.438552,-12.212500,2.851767,-9.127917,0.921277,0.687063
01817,-0.679109,-16.832287,2.858330,-7.648877,0.685390,0.589844
01818,0.526209,-19.271699,5.477707,-5.821823,0.528399,0.412574
01819,0.478182,-21.371553,8.165149,-3.747309,0.445327,0.303527
01820,-1.925987,-23.372303,5.650544,-1.271091,0.034791,0.266093
01821,-2.916429,-21.759353,2.708795,1.700748,-0.581682,0.085798
01822,-1.364057,-16.671766,2.775208,3.985686,-0.972290,-0.048236
01823,0.254112,-11.217290,3.899148,5.191524,-1.005911,-0.048221
01824,1.116906,-6.377772,4.840588,5.463020,-0.813779,0.015314
01825,1.419028,-2.294193,5.598945,4.934710,-0.563402,0.084722
01826,1.343032,1.351802,6.699693,3.706534,-0.321698,0.132069
01827,1.428455,4.268496,8.056759,1.797706,-0.131854,0.168003
01828,1.874535,6.201504,8.833053,-0.667502,0.062479,0.182622
01829,2.415663,7.049242,8.412129,-3.482536,0.348084,0.178551
01830,2.686689,6.499272,6.321819,-6.262410,0.707383,0.177338
01831,2.692031,4.076729,3.460700,-8.589034,1.030232,0.215732
01832,2.718596,-0.112748,0.729594,-10.164736,1.289682,0.291713
01833,2.339090,-5.194953,-1.147584,-10.798222,1.519780,0.384103
01834,1.558122,-10.376186,-1.473588,-10.545691,1.698631,0.395592
01835,0.455194,-15.504862,-0.416496,-9.468907,1.794680,0.203106
01836,-0.675372,-21.856142,1.814990,-7.496590,1.765563,-0.050676
01837,-2.812859,-29.620376,2.302604,-4.213871,1.423592,-0.241507
01838,-4.735618,-33.108592,-0.296413,0.443996,0.573931,-0.357931
01839,-3.728431,-28.505626,-2.432021,5.105438,-0.386669,-0.556415
01840,-1.307085,-20.010758,-3.163965,8.250950,-0.954291,-0.769652
01841,0.282358,-12.845288,-3.236221,9.702129,-1.147920,-0.839988
01842,0.980609,-7.020524,-2.895934,9.918303,-1.171684,-0.787610
01843,1.262180,-1.629041,-1.643066,9.162675,-1.143177,-0.698703
01844,1.079810,3.009220,0.997991,7.438260,-1.029036,-0.632307
01845,0.579118,6.331271,3.760782,4.914185,-0.884962,-0.613260
01846,0.415664,8.889422,5.592116,1.894622,-0.734835,-0.653050
01847,1.341492,9.936726,6.079519,-1.420472,-0.561391,-0.704621
01848,3.209999,8.458647,5.171718,-4.590035,-0.311422,-0.775563
01849,4.883743,4.755428,2.956550,-7.110529,0.097125,-0.846082
01850,5.581354,0.261656,0.470305,-8.738776,0.661132,-0.916500
01851,5.819220,-4.263872,-1.094711,-9.593833,1.258180,-0.955422
01852,5.432865,-8.718210,-1.302969,-9.830116,1.861542,-0.934617
01853,3.888020,-13.676235,-0.843788,-9.478253,2.398218,-0.921457
01854,0.959107,-19.380984,-0.589200,-8.131126,2.625247,-1.006742
01855,-2.259805,-24.139735,-0.729047,-5.479492,2.331989,-1.203770
01856,-4.553448,-25.756969,-1.085913,-1.947685,1.414927,-1.353613
01857,-4.249424,-23.409797,-1.361368,1.504834,0.246901,-1.448200
01858,-1.774018,-19.263585,-1.748796,4.086569,-0.621478,-1.451249
01859,0.564486,-15.483091,-2.285118,5.723407,-1.080939,-1.324278
01860,1.835723,-12.477533,-2.888380,6.708860,-1.330368,-1.145102
01861,2.216620,-9.649152,-2.329928,7.122830,-1.531116,-1.061355
01862,2.483907,-6.817335,-0.744115,6.878394,-1.701481,-1.075941
01863,2.968374,-3.662063,1.448075,5.864403,-1.765519,-1.139235
01864,3.574838,-0.175754,3.475704,4.215659,-1.651597,-1.240777
01865,4.414860,2.766963,5.066965,2.165829,-1.381273,-1.393932
01866,5.674095,3.715610,6.045538,-0.064946,-0.941039,-1.526775
01867,6.741043,2.028280,6.190242,-2.188663,-0.279554,-1.577116
01868,6.930568,-1.126942,5.226082,-3.803276,0.454426,-1.566453
01869,6.486025,-4.514765,3.971085,-4.829524,1.100441,-1.528594
01870,5.781815,-7.795831,3.015672,-5.328274,1.538786,-1.490384
01871,4.872579,-11.065039,1.682755,-5.337612,1.739307,-1.458508
01872,3.577296,-14.139778,0.423195,-4.692945,1.687553,-1.490952
01873,2.149737,-16.368115,-0.313619,-3.489455,1.356799,-1.535941
01874,0.977927,-17.568689,-0.825484,-1.945777,0.803664,-1.527920
01875,0.508754,-17.394381,-1.185580,-0.249533,0.159991,-1.459420
01876,0.917941,-16.220863,-1.286220,1.312593,-0.461271,-1.336486
01877,2.019080,-14.284469,-0.782697,2.507522,-0.978931,-1.207196
01878,3.451050,-11.822863,0.233034,3.289643,-1.293028,-1.115984
01879,4.917868,-9.026823,2.014190,3.585430,-1.406503,-1.099023
01880,6.559472,-6.222041,4.077198,3.345139,-1.312410,-1.130504
01881,7.562000,-3.995602,5.393877,2.709126,-0.963207,-1.231025
01882,7.253078,-3.189648,5.062099,1.990250,-0.524707,-1.374014
01883,5.894605,-3.942698,3.726095,1.502912,-0.186550,-1.490556
01884,4.586966,-5.262016,3.058508,1.218791,-0.051711,-1.498984
01885,4.004484,-6.582607,3.018163,0.862848,-0.069919,-1.373479
01886,4.321385,-7.698332,2.941816,0.423241,-0.137411,-1.171343
01887,5.168516,-8.258246,2.447879,0.012988,-0.149703,-0.960909
01888,5.900909,-8.359907,1.418317,-0.282097,-0.100392,-0.836990
01889,5.940154,-8.279137,0.418693,-0.354772,-0.090295,-0.838281
01890,5.641182,-8.030246,0.254515,-0.324647,-0.213586,-0.919673
01891,5.655053,-7.590802,1.070047,-0.384013,-0.411453,-1.002617
01892,6.153408,-6.582841,2.506825,-0.655835,-0.539532,-1.055235
01893,6.975106,-5.369972,4.091948,-1.177978,-0.494306,-1.083447
01894,7.627405,-4.618725,4.705233,-1.760420,-0.254769,-1.086579
01895,7.550500,-4.669758,4.482574,-2.150845,0.038911,-1.133109
01896,7.226635,-5.801554,4.048668,-2.235560,0.231477,-1.183213
01897,7.197557,-7.559506,3.868370,-2.076349,0.338441,-1.182299
01898,7.167628,-9.316554,3.677850,-1.770599,0.409548,-1.140521
01899,6.707027,-10.802640,2.885747,-1.257819,0.440229,-1.113016
01900,5.571065,-11.854142,1.203530,-0.382114,0.371132,-1.109341
01901,4.188747,-12.158919,0.238596,0.761109,0.144734,-1.132676
01902,3.669349,-11.694523,0.113805,1.782245,-0.240456,-1.093390
01903,4.142825,-10.525190,0.095302,2.467681,-0.629138,-0.964091
01904,5.044188,-8.728204,0.163309,2.843411,-0.894867,-0.829786
01905,6.032583,-6.824774,0.612584,2.890162,-1.057336,-0.726612
01906,7.237167,-5.051954,1.310677,2.631026,-1.142207,-0.667813
01907,8.419259,-3.386773,2.239656,2.076382,-1.105308,-0.678185
01908,9.271335,-1.885410,3.699915,1.254772,-0.956852,-0.774255
01909,10.060810,-0.822258,5.605792,0.154927,-0.710542,-0.897333
01910,10.779610,-0.650982,7.141153,-1.097767,-0.265309,-1.011893
01911,11.221262,-1.573749,6.602082,-2.218112,0.322793,-1.108372
01912,10.388496,-3.726509,4.600583,-2.768193,0.886965,-1.199907
01913,9.494579,-6.473190,3.793379,-2.592697,1.158318,-1.283532
01914,9.185016,-9.503720,3.754037,-2.101344,1.259581,-1.265253
01915,8.205500,-11.820453,3.297834,-1.262851,1.224148,-1.209616
01916,6.833555,-12.656028,2.203933,-0.064542,1.027988,-1.193142
01917,5.180578,-12.652516,0.170469,1.409233,0.698175,-1.191522
01918,3.347031,-11.852867,-1.653990,3.011203,0.221206,-1.179036
01919,2.379109,-10.338900,-2.212016,4.310650,-0.431884,-1.114659
01920,3.171644,-8.604299,-1.974870,4.972324,-1.171333,-0.903138
01921,5.192371,-6.727856,-1.470157,5.055842,-1.689290,-0.595993
01922,7.159245,-4.559249,-0.722705,4.735724,-1.891565,-0.329730
01923,8.606999,-2.228105,0.545703,4.122038,-1.881244,-0.196605
01924,9.864859,0.131778,2.219557,3.198059,-1.722588,-0.179036
01925,10.647753,2.313011,3.853269,1.954344,-1.418519,-0.273087
01926,11.077096,3.849199,5.817614,0.482809,-1.010473,-0.441099
01927,11.618496,4.258731,7.451125,-1.221275,-0.487529,-0.613556
01928,11.984207,3.171600,7.043403,-2.859469,0.186121,-0.769270
01929,11.184471,1.135771,4.872823,-3.909229,0.812879,-0.933204
01930,10.187065,-1.560516,3.325360,-4.261515,1.172940,-1.078869
01931,9.765902,-4.836633,2.752478,-4.113297,1.331027,-1.085778
01932,9.123824,-7.841559,2.356550,-3.549353,1.345039,-0.984616
01933,7.814752,-9.777212,1.159805,-2.616381,1.218965,-0.948101
01934,5.767877,-10.592834,-0.352306,-1.338582,0.877998,-0.999164
01935,4.105177,-10.225143,-1.638950,0.107913,0.252691,-1.073717
01936,3.812054,-8.928770,-1.997511,1.341875,-0.573280,-1.050687
01937,4.882127,-7.337359,-1.668450,2.080675,-1.354538,-0.890261
01938,6.435357,-5.699709,-1.251940,2.336958,-1.895125,-0.622701
01939,7.928137,-3.922190,-0.583796,2.248714,-2.120376,-0.366295
01940,9.137014,-1.749780,0.364860,1.900641,-2.116600,-0.221706
01941,10.169664,0.512849,1.422873,1.258983,-1.978543,-0.207052
01942,10.855260,2.082873,3.034615,0.269440,-1.705858,-0.312026
01943,11.368042,2.859183,5.366511,-0.963590,-1.338515,-0.481581
01944,12.297077,2.491146,6.657375,-2.370411,-0.775844,-0.646137
01945,12.664707,1.168215,5.692779,-3.523852,-0.027113,-0.792402
01946,11.605487,-0.812620,3.441043,-3.973115,0.585933,-0.978713
01947,10.508261,-3.200325,1.933344,-3.859969,0.904487,-1.080121
01948,9.799005,-5.676833,1.237332,-3.464192,0.980294,-1.052487
01949,9.118550,-7.609340,0.595342,-2.934669,0.894041,-1.001873
01950,8.113564,-8.736252,-0.217293,-2.203203,0.681367,-0.993055
01951,7.238044,-9.256505,-0.890674,-1.299374,0.346705,-1.016438
01952,6.823133,-9.193313,-1.289663,-0.316935,-0.087925,-0.985352
01953,6.914916,-8.409939,-1.295942,0.586899,-0.562691,-0.887184
01954,7.510340,-6.965279,-1.019684,1.278543,-1.018782,-0.743636
01955,8.441132,-5.223557,-0.459802,1.662110,-1.389318,-0.595090
01956,9.574386,-3.304514,0.800721,1.773540,-1.598762,-0.501481
01957,10.852007,-1.495153,2.828727,1.548567,-1.572290,-0.510163
01958,12.321983,-0.076741,5.215226,1.012749,-1.252851,-0.593835
01959,13.329963,0.565960,6.355581,0.300282,-0.622532,-0.744131
01960,12.734452,0.067234,5.267964,-0.200543,0.115902,-0.917613
01961,11.020426,-1.502190,3.506318,-0.207078,0.606364,-1.040935
01962,9.961287,-3.368821,2.484166,0.109862,0.769091,-1.006554
01963,9.431562,-5.262739,1.872437,0.527296,0.733588,-0.878678
01964,8.528350,-6.259433,0.699796,1.067186,0.560415,-0.787451
01965,7.301211,-6.302287,-0.975441,1.714850,0.280117,-0.769755
01966,6.335829,-5.685119,-2.273291,2.403011,-0.150176,-0.759109
01967,6.449899,-4.830139,-2.739990,2.873147,-0.683500,-0.684357
01968,7.547326,-3.984389,-2.630758,2.978412,-1.176246,-0.516955
01969,8.754316,-2.765812,-2.250231,2.793213,-1.480525,-0.342235
01970,9.745279,-1.196452,-1.445919,2.382044,-1.572541,-0.252966
01971,10.625913,0.519273,-0.261834,1.797269,-1.488979,-0.236603
01972,11.356077,1.976608,1.194841,0.968423,-1.243482,-0.218742
01973,11.783429,2.892144,2.582828,-0.008870,-0.897867,-0.206300
01974,12.214666,3.254507,3.757481,-0.996124,-0.480803,-0.229272
01975,12.654191,2.919434,4.239916,-1.908033,0.001675,-0.301338
01976,12.418627,2.026811,3.490124,-2.595495,0.546806,-0.404489
01977,11.110360,0.467861,2.114993,-2.899061,0.969546,-0.531910
01978,9.728943,-1.892693,1.154238,-2.748131,1.091101,-0.593329
01979,8.908098,-4.477154,0.823643,-2.197769,0.984019,-0.567927
01980,8.171659,-6.367727,0.168698,-1.377310,0.749493,-0.522554
01981,7.001302,-6.949473,-0.722843,-0.359387,0.421292,-0.504630
01982,6.194278,-6.454519,-1.548432,0.730955,-0.075953,-0.505546
01983,6.626534,-5.270620,-2.080894,1.594336,-0.667416,-0.462055
01984,7.893988,-4.010114,-2.025529,2.084585,-1.173380,-0.336188
01985,9.046019,-2.428801,-1.637790,2.171759,-1.473170,-0.222600
01986,10.207041,-0.647103,-0.933871,1.900863,-1.527889,-0.150038
01987,11.164251,1.047286,0.018403,1.337738,-1.339610,-0.094028
01988,11.590662,2.591581,1.009081,0.531897,-0.977489,-0.052299
01989,11.587621,3.455050,2.029475,-0.432550,-0.553428,-0.014291
01990,11.644680,3.315412,2.938955,-1.394894,-0.172691,0.014648
01991,12.056999,2.384345,3.385415,-2.248335,0.235217,0.043292
01992,12.051617,0.918316,3.338441,-2.871927,0.699740,0.003158
01993,11.124246,-0.921478,2.246476,-3.085460,1.059251,-0.141277
01994,9.940687,-3.353022,1.150060,-2.767406,1.194292,-0.279319
01995,8.589990,-5.794365,0.484376,-1.952538,1.080510,-0.352231
01996,7.668709,-7.309193,0.022144,-0.815874,0.733734,-0.367207
01997,7.479065,-7.367417,-0.394433,0.382810,0.268267,-0.348577
01998,7.551747,-6.182958,-0.930201,1.404650,-0.158269,-0.312783
01999,7.870870,-4.096729,-1.451957,2.153202,-0.546867,-0.292218
02000,8.651075,-2.001590,-1.780907,2.495714,-0.902502,-0.275386
02001,9.715084,-0.488574,-1.647134,2.414800,-1.112939,-0.213300
02002,10.436760,1.003052,-0.987532,1.936832,-1.104327,-0.137584
02003,10.965522,2.241785,-0.275018,1.162340,-0.898925,-0.071833
02004,11.249379,3.043202,0.472764,0.250076,-0.563156,-0.005829
02005,11.185406,3.223094,1.097818,-0.652687,-0.217390,0.054245
02006,11.195368,2.506177,1.859555,-1.441945,0.079734,0.075158
02007,11.563640,1.180599,2.673026,-1.981434,0.349911,0.042658
02008,11.897573,-0.293347,2.845129,-2.277630,0.697147,-0.042523
02009,11.145070,-1.657406,2.513980,-2.256584,1.080326,-0.196446
02010,9.442277,-3.344047,1.675374,-1.777594,1.232796,-0.334550
02011,8.068288,-4.974684,0.780048,-0.847849,1.014975,-0.383680
02012,7.975933,-6.279000,0.331196,0.247899,0.595402,-0.341534
02013,8.386744,-6.577504,-0.163255,1.290143,0.214681,-0.298589
02014,8.338607,-5.582632,-0.931412,2.199050,-0.074985,-0.306308
02015,8.029418,-3.729272,-1.942848,2.935319,-0.378948,-0.348272
02016,8.048399,-1.702419,-2.676297,3.319795,-0.770459,-0.362538
02017,8.851843,0.239699,-3.142605,3.281251,-1.139682,-0.326507
02018,10.062969,1.848928,-2.912278,2.784277,-1.310936,-0.238506
02019,10.934576,3.175328,-2.019994,1.909370,-1.212452,-0.138667
02020,11.121405,4.019768,-0.953089,0.821837,-0.926157,-0.064291
02021,10.648860,4.220479,-0.192843,-0.307153,-0.592478,0.001892
02022,10.027011,3.946469,0.409599,-1.324347,-0.300609,0.012440
02023,9.959636,3.214086,0.997591,-2.122261,-0.069339,0.007473
02024,10.594096,1.871109,1.394654,-2.643694,0.186517,0.043243
02025,11.301648,0.404863,1.921854,-2.972080,0.551996,0.106368
02026,10.928549,-1.322422,1.635632,-3.052584,0.892020,0.102592
02027,9.846389,-3.360464,0.751966,-2.698675,1.020651,0.058178
02028,8.535981,-5.499148,0.024337,-1.880860,0.859843,0.039291
02029,7.611050,-6.742915,-0.627704,-0.764555,0.415751,0.015635
02030,7.896039,-6.468492,-0.795675,0.311610,-0.156346,-0.013402
02031,8.973386,-5.091120,-0.636347,1.060402,-0.583166,-0.015264
02032,9.709019,-3.238931,-0.579375,1.466686,-0.769837,-0.004372
02033,9.987990,-1.574449,-0.830510,1.581759,-0.819577,0.023731
02034,10.062915,-0.088037,-1.393992,1.413247,-0.817556,0.094387
02035,10.148792,0.978283,-1.656330,0.977867,-0.775592,0.205792
02036,10.285538,1.788143,-1.371678,0.346919,-0.696816,0.339674
02037,11.033670,2.225655,-0.263020,-0.402310,-0.509776,0.479934
02038,11.411024,2.308725,1.108245,-1.149701,-0.165568,0.529274
02039,11.223846,2.080774,2.034607,-1.723521,0.196529,0.472666
02040,10.954304,1.411871,2.311279,-2.056564,0.446747,0.364585
02041,10.622413,0.337471,2.110576,-2.142911,0.567783,0.246460
02042,10.252101,-0.895034,2.033374,-1.970157,0.551604,0.123988
02043,10.237882,-2.462582,1.787538,-1.584012,0.449665,0.010054
02044,10.380388,-3.493195,1.686189,-1.036233,0.390259,-0.108526
02045,10.265440,-3.799107,1.328531,-0.458658,0.417248,-0.231482
02046,9.887507,-3.600424,0.731306,0.089828,0.423007,-0.300474
02047,9.570693,-3.310181,0.114555,0.560985,0.374260,-0.288961
02048,9.393913,-2.839603,-0.260536,0.942372,0.301207,-0.236828
02049,9.595482,-2.289031,-0.370557,1.192255,0.233225,-0.181388
02050,9.803692,-1.830681,-0.586833,1.286580,0.210560,-0.137307
02051,9.591030,-1.288861,-0.941513,1.270935,0.224778,-0.105774
02052,8.973339,-0.668507,-1.519331,1.156101,0.167238,-0.076933
02053,8.810647,0.024803,-1.688221,0.929502,0.010939,-0.031797
02054,9.353748,0.563099,-1.280943,0.528924,-0.084393,0.049721
02055,10.122959,0.855548,-0.514233,0.026995,-0.035475,0.139556
02056,10.364808,1.014642,0.079231,-0.478720,0.131283,0.172321
02057,10.045635,0.928766,0.138302,-0.907513,0.264155,0.152246
02058,9.708250,0.326645,0.031914,-1.223769,0.292821,0.124284
02059,9.735078,-0.710881,0.123553,-1.360587,0.258252,0.120982
02060,10.035498,-1.779436,0.715693,-1.285740,0.241670,0.122401
02061,10.373572,-2.515957,1.592119,-1.014850,0.293423,0.102940
02062,10.369088,-2.893812,2.098389,-0.673237,0.390300,0.075272
02063,9.707292,-3.379793,1.710955,-0.271405,0.438546,0.038296
02064,8.910039,-3.856701,0.704331,0.306300,0.327081,-0.007824
02065,8.878316,-4.131899,-0.021331,1.035507,0.087698,-0.041001
02066,9.381977,-4.103225,-0.152609,1.712245,-0.099391,-0.060415
02067,9.626786,-3.599285,-0.264209,2.254042,-0.154847,-0.092776
02068,9.245635,-2.545863,-0.883225,2.641800,-0.177379,-0.131605
02069,8.879206,-0.932582,-1.512674,2.813286,-0.263291,-0.123319
02070,9.075631,1.015191,-1.649272,2.663159,-0.373124,-0.108509
02071,9.847907,2.521770,-0.979777,2.120623,-0.419941,-0.039865
02072,10.410688,3.171658,-0.198829,1.243554,-0.321290,0.050207
02073,10.455967,3.141209,0.288883,0.286176,-0.131927,0.111535
02074,10.188519,2.623575,0.435805,-0.547316,0.032582,0.137608
02075,10.015726,1.824499,0.311857,-1.171932,0.129426,0.169166
02076,9.964843,0.797859,0.330868,-1.607015,0.195292,0.207723
02077,9.940859,-0.297600,0.465159,-1.801804,0.247031,0.224611
02078,9.838647,-1.372477,0.571570,-1.803360,0.272894,0.206658
02079,9.668313,-2.366786,0.632851,-1.579535,0.258422,0.200424
02080,9.484588,-3.159120,0.626701,-1.172714,0.205413,0.185206
02081,9.333544,-3.538430,0.629764,-0.672627,0.110442,0.155077
02082,9.333747,-3.736928,0.562116,-0.137909,-0.010724,0.118115
02083,9.494696,-3.415240,0.415717,0.402999,-0.104435,0.080349
02084,9.671660,-2.641605,0.351227,0.821748,-0.181509,0.037092
02085,9.784248,-1.752598,0.297919,1.084776,-0.227156,0.005285
02086,9.961172,-0.946761,0.259940,1.172269,-0.232513,-0.024476
02087,10.025565,-0.188732,0.325917,1.118129,-0.204497,-0.033806
02088,10.113938,0.391414,0.428438,0.921560,-0.159315,-0.028236
02089,10.076359,0.728275,0.527640,0.619139,-0.107586,-0.018655
02090,10.079091,0.726504,0.564694,0.288164,-0.052682,-0.010925
02091,10.008070,0.471099,0.584723,-0.020198,0.006986,-0.001045
02092,9.873446,-0.007962,0.490305,-0.251766,0.051362,0.016083
02093,9.758974,-0.506444,0.419013,-0.379475,0.086747,0.024907
02094,9.641944,-0.999222,0.297018,-0.412255,0.088725,0.026771
02095,9.573899,-1.421137,0.349937,-0.346428,0.080927,0.027058
02096,9.533132,-1.646144,0.399211,-0.221210,0.052138,0.017611
02097,9.558380,-1.703002,0.440929,-0.066804,0.015735,0.006241
02098,9.598234,-1.608659,0.426708,0.077946,-0.020992,-0.001333
02099,9.659724,-1.428584,0.322387,0.187065,-0.056204,-0.001429
02100,9.748316,-1.179381,0.247880,0.251267,-0.081666,-0.002265
02101,9.847511,-1.003783,0.210140,0.256472,-0.093033,-0.015580
02102,9.877968,-0.963364,0.206486,0.233595,-0.096549,-0.016893
02103,9.930537,-0.968708,0.171219,0.172289,-0.086743,-0.020355
02104,9.947910,-0.928242,0.291498,0.097630,-0.071891,-0.010416
02105,9.932710,-0.921375,0.361181,0.011195,-0.053019,0.000243
02106,9.877774,-0.883532,0.413124,-0.080868,-0.037020,0.015603
02107,9.852964,-0.961711,0.426080,-0.158555,-0.020390,0.033813
02108,9.851172,-1.090651,0.432502,-0.207797,-0.006497,0.048335
02109,9.766769,-1.251827,0.464772,-0.228077,0.012402,0.060666
02110,9.707131,-1.363436,0.403517,-0.215969,0.007890,0.066802
02111,9.648302,-1.453568,0.443209,-0.160921,0.004691,0.070921
02112,9.719779,-1.486479,0.434437,-0.101646,0.000288,0.070147
02113,9.703629,-1.512620,0.431498,-0.034111,-0.004671,0.068909
02114,9.752018,-1.495906,0.431434,0.029415,-0.005869,0.065775
02115,9.740449,-1.403333,0.469557,0.078368,-0.010279,0.066605
02116,9.798976,-1.329823,0.452383,0.107221,-0.010920,0.062909
02117,9.870216,-1.231392,0.388680,0.114060,-0.008135,0.073066
02118,9.873017,-1.141623,0.327589,0.091980,-0.002457,0.067594
02119,9.884929,-1.122901,0.281904,0.079113,0.004252,0.068595
02120,9.901947,-1.141352,0.256406,0.052592,0.012433,0.066880
