// Start Time: Unknown
// Update Rate: 100.0Hz
// Filter Profile: human (46.1)
// Firmware Version: 4.3.5
PacketCounter,Acc_X,Acc_Y,Acc_Z,Gyr_X,Gyr_Y,Gyr_Z
19637,9.414747,-1.740549,2.777130,0.052904,0.014606,-0.037324
19638,9.386605,-1.715839,2.755149,0.051067,0.015743,-0.035802
19639,9.343282,-1.721552,2.726161,0.046540,0.015044,-0.036157
19640,9.353805,-1.735551,2.701200,0.046539,0.015045,-0.036160
19641,9.367218,-1.781091,2.720881,0.044622,0.016048,-0.033101
19642,9.354727,-1.802899,2.692276,0.049488,0.013473,-0.029883
19643,9.357373,-1.794579,2.670506,0.054182,0.012539,-0.028099
19644,9.355092,-1.794825,2.696399,0.048320,0.009961,-0.027134
19645,9.349905,-1.764047,2.677382,0.048412,0.008190,-0.024162
19646,9.357915,-1.783714,2.675882,0.044578,0.010198,-0.018043
19647,9.345375,-1.807076,2.646738,0.046429,0.007159,-0.015054
19648,9.358287,-1.819159,2.597216,0.046271,0.006895,-0.011980
19649,9.361252,-1.848036,2.643418,0.050965,0.005966,-0.010194
19650,9.361241,-1.845939,2.644922,0.052234,0.005808,-0.005464
19651,9.361196,-1.844299,2.646223,0.054178,0.001005,0.000505
19652,9.376169,-1.812690,2.654236,0.059798,0.003195,0.004144
19653,9.386395,-1.830460,2.628453,0.056875,0.000957,0.006886
19654,9.352921,-1.818453,2.652707,0.060577,-0.005110,0.012876
19655,9.404168,-1.830078,2.681552,0.068363,-0.005432,0.013355
19656,9.381111,-1.836879,2.678642,0.085788,-0.009110,0.017312
19657,9.388670,-1.817759,2.758037,0.109069,-0.010208,0.020285
19658,9.410917,-1.732944,2.775336,0.120117,-0.011561,0.020888
19659,9.435437,-1.602590,2.850159,0.119439,-0.006913,0.019623
19660,9.406247,-1.505651,2.839393,0.099845,-0.000710,0.018804
19661,9.454157,-1.444589,2.905508,0.056881,0.008348,0.012033
19662,9.415659,-1.524052,2.815917,0.009841,0.020951,0.011469
19663,9.353492,-1.885964,2.628500,0.017481,0.018499,0.019548
19664,9.184886,-2.733973,2.301731,0.144827,-0.007038,0.035231
19665,8.800417,-4.325101,1.742429,0.551734,-0.063826,0.078981
19666,8.482417,-5.738955,1.925986,1.353932,-0.188652,0.126784
19667,8.690847,-5.873968,2.529653,2.380245,-0.357536,0.157828
19668,9.615569,-4.927965,2.886533,3.333443,-0.475823,0.183112
19669,10.126036,-3.020366,2.860697,3.969053,-0.472522,0.233686
19670,10.262456,-1.213356,2.962370,4.187376,-0.399794,0.253191
19671,10.308708,0.171938,3.321275,4.070242,-0.280398,0.243051
19672,10.409005,1.570779,3.639511,3.642222,-0.149934,0.222514
19673,10.301552,3.342781,4.082506,2.896351,0.031184,0.171463
19674,9.942566,4.716051,4.280908,1.780580,0.195299,0.114350
19675,9.558062,4.980326,4.143318,0.458624,0.303588,0.046051
19676,9.415503,4.220818,3.947302,-0.849521,0.384651,-0.043979
19677,9.355778,2.477712,3.660813,-1.897294,0.448327,-0.117432
19678,9.326026,0.304213,3.450640,-2.518390,0.484317,-0.142873
19679,9.334499,-1.862910,3.070887,-2.624145,0.503608,-0.166113
19680,9.083402,-3.917964,2.137997,-2.317199,0.512397,-0.152246
19681,8.503853,-5.705063,1.998984,-1.551557,0.431636,-0.100105
19682,8.428862,-6.693252,2.488414,-0.448825,0.305220,-0.089544
19683,8.799299,-6.709929,3.202190,0.802287,0.154643,-0.061423
19684,9.442167,-5.361559,3.890952,1.975385,0.060929,-0.037781
19685,9.910914,-3.452697,3.869100,2.743484,0.048916,0.007250
19686,10.000116,-1.538489,3.676315,3.054553,0.098964,0.066446
19687,9.901544,0.244930,3.914413,2.919369,0.152725,0.101896
19688,9.837105,1.745255,4.178533,2.416170,0.246644,0.076401
19689,9.823322,2.876331,4.606654,1.652310,0.351908,0.016719
19690,9.807341,3.632505,4.822246,0.678141,0.480755,-0.078168
19691,9.760143,3.488982,4.145618,-0.429783,0.599133,-0.126085
19692,9.396801,2.719841,3.561961,-1.456986,0.681505,-0.168960
19693,9.252877,1.551397,3.741551,-2.210754,0.729415,-0.220345
19694,9.545415,-0.070493,3.876981,-2.617016,0.768760,-0.269367
19695,9.924687,-1.836035,3.694408,-2.610512,0.832773,-0.299293
19696,9.773264,-3.309457,3.302650,-2.319247,0.879123,-0.286037
19697,9.202508,-5.036200,2.268510,-1.799756,0.849781,-0.172099
19698,8.792399,-6.056646,2.621626,-0.931608,0.740542,-0.106377
19699,8.822233,-6.432592,3.245260,0.109129,0.599040,-0.055736
19700,9.099061,-5.919844,3.928214,1.223733,0.456795,0.022330
19701,9.524922,-4.347102,4.463188,2.160369,0.392851,0.096115
19702,9.719774,-1.976098,4.765980,2.749363,0.421022,0.148183
19703,9.730001,0.317216,4.879625,2.839562,0.501668,0.164302
19704,9.349191,2.187314,5.125494,2.458217,0.634618,0.136748
19705,9.087859,3.438959,5.247260,1.628842,0.731200,0.067261
19706,8.826477,3.431834,4.448290,0.489157,0.806224,0.009580
19707,8.604504,3.138787,4.525524,-0.614450,0.864093,-0.119538
19708,8.505579,2.843373,4.713074,-1.604525,0.920869,-0.275089
19709,8.754843,2.163613,4.854317,-2.444162,0.932391,-0.324626
19710,8.990404,1.230232,4.826556,-3.124043,0.962015,-0.325236
19711,9.072420,-0.056780,4.607167,-3.560730,0.991144,-0.304288
19712,9.096796,-1.973510,4.126828,-3.653079,1.039015,-0.302954
19713,8.735907,-5.090138,2.924473,-3.362252,1.039929,-0.206771
19714,8.133476,-7.520333,3.046202,-2.457253,0.926935,-0.060730
19715,7.972919,-8.306560,4.076284,-1.137889,0.741644,0.027460
19716,8.235777,-8.078607,4.699930,0.325068,0.551056,0.152245
19717,8.636025,-6.608055,5.122233,1.698970,0.432579,0.264039
19718,8.902005,-4.253299,5.470451,2.711491,0.407855,0.342398
19719,8.959333,-2.005372,5.889706,3.207080,0.439324,0.381614
19720,8.855230,0.153425,6.412653,3.213031,0.509275,0.347875
19721,8.752302,1.966153,6.811308,2.730997,0.602674,0.265458
19722,8.723667,3.271314,6.797609,1.827681,0.726037,0.148866
19723,8.472578,3.925460,6.057832,0.603770,0.850483,0.008967
19724,8.081684,3.681627,5.476400,-0.696545,0.938414,-0.134648
19725,7.787728,2.847713,5.682117,-1.814916,0.966145,-0.251292
19726,8.197961,1.429265,6.212556,-2.620322,0.978613,-0.285507
19727,8.541520,-0.243695,6.273259,-3.131333,0.986796,-0.214432
19728,8.811836,-1.840758,6.022866,-3.291695,1.012764,-0.132777
19729,8.702892,-4.159484,5.360610,-3.063412,1.061423,-0.039166
19730,8.236009,-6.760170,4.584943,-2.409870,1.030825,0.095386
19731,7.528994,-8.844153,4.332176,-1.292710,0.897712,0.292541
19732,7.364446,-9.650897,4.893155,0.235886,0.670205,0.458675
19733,8.118830,-8.345629,6.237785,1.954332,0.471812,0.546259
19734,8.892963,-5.686536,6.671357,3.312880,0.433722,0.633704
19735,8.989571,-2.696243,6.925642,4.071754,0.497133,0.711065
19736,8.618821,0.372304,7.375369,4.129819,0.616215,0.664744
19737,8.129660,2.163700,7.508659,3.561737,0.774741,0.559555
19738,7.768077,3.055686,7.308281,2.535121,0.902228,0.386129
19739,7.290178,4.366527,7.477120,1.257425,0.998535,0.153313
19740,7.442382,5.423898,7.610867,-0.181414,1.085922,-0.105960
19741,7.726961,4.402476,7.336141,-1.622464,1.165741,-0.186762
19742,7.884061,2.253185,7.266262,-2.705642,1.216960,-0.168482
19743,8.069448,-0.074924,7.110263,-3.296292,1.244214,-0.112410
19744,8.141061,-2.410616,6.975511,-3.383519,1.293508,-0.059602
19745,8.033332,-4.765167,6.153984,-3.052133,1.300783,0.058181
19746,7.479883,-7.273428,5.246713,-2.303866,1.255323,0.291848
19747,6.722360,-8.864350,5.424397,-1.077590,1.126652,0.475643
19748,6.642970,-9.270046,5.983396,0.503358,0.904715,0.613710
19749,7.672956,-7.750118,7.002269,2.114176,0.718775,0.702153
19750,8.391514,-5.036908,7.117374,3.253487,0.709626,0.816656
19751,8.075206,-2.579648,6.675531,3.766901,0.777031,0.902219
19752,7.422187,-0.415136,6.980800,3.769058,0.841674,0.871455
19753,6.931066,1.424955,7.472789,3.344272,0.924742,0.720311
19754,6.631889,3.404246,8.189693,2.550495,1.012760,0.498730
19755,6.429984,4.865716,8.163456,1.308131,1.130681,0.270956
19756,6.216436,5.020707,7.790457,-0.141076,1.217836,0.102690
19757,6.084548,3.918329,7.348417,-1.489538,1.260845,-0.040568
19758,6.279847,1.644209,6.977343,-2.485837,1.253730,-0.078550
19759,6.620594,-0.681153,6.897584,-2.948737,1.236748,-0.048006
19760,6.738006,-3.209965,6.463469,-2.911410,1.243448,0.039605
19761,6.093305,-6.203363,5.681406,-2.370361,1.213130,0.223393
19762,5.095767,-8.359940,5.345456,-1.307508,1.017218,0.434292
19763,4.819136,-9.521483,5.775792,0.188003,0.733049,0.624156
19764,5.775526,-8.441363,7.258356,1.940250,0.454794,0.684923
19765,6.859298,-6.280851,7.418903,3.312818,0.337151,0.809453
19766,6.932859,-3.801167,7.143674,4.146073,0.358546,0.919527
19767,6.310534,-0.552521,7.789376,4.450438,0.416009,0.854994
19768,5.703927,2.483943,8.479794,4.134191,0.534178,0.655723
19769,5.005325,4.130179,8.335249,3.173543,0.678695,0.462058
19770,4.333261,5.590021,8.438313,1.873263,0.771962,0.210471
19771,4.321544,6.475629,8.751108,0.376951,0.819350,-0.058143
19772,4.967798,5.925150,9.007432,-1.111037,0.871504,-0.244175
19773,5.591191,3.565014,8.720575,-2.352273,0.933067,-0.289070
19774,5.921076,0.643649,8.306678,-3.060725,0.984846,-0.250342
19775,5.874792,-2.263527,7.628562,-3.188815,1.026446,-0.181274
19776,5.385282,-5.169413,6.764508,-2.786593,1.008467,-0.028098
19777,4.425007,-7.700958,6.381867,-1.853377,0.892979,0.182990
19778,3.806601,-9.293072,6.706967,-0.430647,0.652870,0.388883
19779,4.477183,-9.020804,7.911236,1.329283,0.351841,0.522640
19780,5.912970,-6.760470,8.491833,2.890507,0.203173,0.609863
19781,6.255665,-3.529638,8.504057,3.845564,0.231958,0.706938
19782,5.559466,-0.352466,8.717213,4.125909,0.321504,0.708867
19783,4.862485,2.212520,9.127443,3.802991,0.430086,0.583230
19784,4.189024,3.764876,9.100223,2.935113,0.545262,0.403242
19785,3.647002,5.404403,9.539890,1.729174,0.615130,0.184549
19786,3.669989,6.462380,10.119956,0.296091,0.694938,-0.053969
19787,4.109313,5.746734,10.246133,-1.138104,0.767434,-0.216072
19788,4.597094,3.658426,9.940968,-2.281305,0.847580,-0.290259
19789,4.706788,0.811216,9.397469,-2.979858,0.906699,-0.260565
19790,4.456472,-2.488129,8.587035,-3.132713,0.948227,-0.152193
19791,3.738286,-5.912584,7.914202,-2.647886,0.909771,0.035225
19792,3.310707,-8.234670,8.255252,-1.475321,0.748524,0.194020
19793,3.659581,-9.363147,8.578571,0.099048,0.531132,0.365120
19794,4.440892,-8.152129,9.399469,1.823557,0.351254,0.501148
19795,4.766849,-5.005927,9.898910,3.192976,0.335461,0.599942
19796,4.233183,-2.019788,10.121529,3.917072,0.399410,0.672997
19797,3.637138,0.025855,10.132597,4.062715,0.478551,0.703087
19798,3.207899,1.340932,10.473828,3.805925,0.547493,0.670299
19799,3.187204,2.921520,10.826871,3.259143,0.621316,0.517952
19800,3.600899,4.771406,11.221721,2.421005,0.712138,0.320878
19801,4.070856,6.035840,11.366274,1.303404,0.857393,0.142701
19802,4.053325,6.142044,11.377150,0.096950,1.024921,-0.001653
19803,3.711329,5.007845,11.354632,-0.981780,1.147730,-0.105555
19804,3.773851,3.192148,11.208282,-1.772249,1.215232,-0.151845
19805,3.975022,1.151420,10.808335,-2.223290,1.271193,-0.140879
19806,3.793797,-0.938350,10.126293,-2.315225,1.323421,-0.064480
19807,3.282013,-3.246803,9.307479,-2.050628,1.318079,0.070012
19808,2.748452,-5.699194,8.463840,-1.387267,1.232812,0.287143
19809,2.171113,-7.877983,8.115585,-0.244619,1.058444,0.534377
19810,2.270490,-8.137230,8.805612,1.332995,0.792449,0.693595
19811,3.514677,-5.992034,9.618963,2.901338,0.613672,0.730502
19812,4.359661,-2.744024,9.540867,3.916011,0.607559,0.799286
19813,4.002015,0.374194,9.421809,4.268164,0.715529,0.820732
19814,3.348880,2.447175,9.516132,4.014817,0.840243,0.759678
19815,2.608264,3.737318,9.730191,3.332734,0.936418,0.638268
19816,2.079545,5.179488,10.013755,2.390893,1.007148,0.442176
19817,1.980689,6.571382,10.328472,1.243630,1.068982,0.232592
19818,2.210923,6.947122,10.110305,-0.026219,1.148296,0.062373
19819,2.400982,6.647498,10.027348,-1.168456,1.239279,-0.109574
19820,2.616737,5.756698,9.609946,-2.195778,1.317432,-0.227471
19821,2.585284,4.313786,8.985135,-3.065154,1.379816,-0.245356
19822,2.081096,1.620268,7.732492,-3.679617,1.432570,-0.150023
19823,0.963497,-2.058739,6.887435,-3.703403,1.391830,0.070212
19824,0.050279,-5.412989,7.171661,-2.921461,1.208181,0.253567
19825,0.227758,-7.327854,8.157090,-1.429372,0.902595,0.366271
19826,1.469744,-6.977580,8.779886,0.346240,0.641799,0.417397
19827,2.247541,-4.947506,8.408132,1.873591,0.549205,0.507034
19828,1.758579,-2.239535,8.177223,2.881281,0.541039,0.588944
19829,1.143795,0.334787,8.563809,3.320540,0.543061,0.564588
19830,0.901625,2.289575,9.004912,3.258675,0.552695,0.493117
19831,0.896129,3.862519,9.308102,2.731775,0.590845,0.413061
19832,0.752066,5.554965,9.690958,1.864986,0.647943,0.304718
19833,0.771711,6.554880,9.664443,0.783186,0.721084,0.159121
19834,0.751239,6.952613,9.812513,-0.306254,0.784824,-0.003599
19835,0.846456,6.549855,9.668601,-1.362554,0.856160,-0.133882
19836,0.726248,4.605316,9.143329,-2.274496,0.927808,-0.118607
19837,0.218389,1.577448,8.684521,-2.721117,0.941006,-0.042752
19838,-0.228697,-1.732124,8.597498,-2.482354,0.870869,0.056873
19839,-0.131670,-4.161822,9.122909,-1.537141,0.710281,0.122460
19840,0.478383,-5.234595,9.072031,-0.241838,0.531788,0.214163
19841,0.413128,-6.200313,7.607623,1.114261,0.422422,0.460973
19842,-0.753424,-7.055339,7.139590,2.731636,0.273957,0.739254
19843,-0.710617,-6.819848,7.833419,4.649394,0.026412,0.853372
19844,1.012319,-4.464503,8.580736,6.465920,-0.131917,0.882657
19845,2.361199,0.554640,9.159552,7.620193,-0.080895,0.900579
19846,2.608463,6.143683,9.718575,7.591684,0.147086,0.856617
19847,1.399072,9.086549,8.932863,6.473994,0.495329,0.861250
19848,-0.552793,11.460180,9.095823,4.939765,0.664018,0.629279
19849,-0.740611,13.257938,9.564297,3.114104,0.722174,0.274790
19850,0.328760,13.473090,10.057387,1.228287,0.803373,0.040934
19851,1.080994,12.335571,10.173049,-0.385412,0.960145,-0.045051
19852,0.882850,10.926825,10.151626,-1.590734,1.082017,-0.153110
19853,0.880229,9.144768,9.365608,-2.503501,1.168456,-0.276194
19854,0.311529,6.000478,8.055356,-3.097033,1.282690,-0.279913
19855,-1.151403,1.887561,6.921174,-3.112672,1.276966,-0.161537
19856,-2.309389,-1.555234,7.283146,-2.253876,1.076597,-0.072657
19857,-1.750770,-3.252333,8.058684,-0.740309,0.733053,-0.037017
19858,-0.029576,-2.340764,8.386297,0.911887,0.498249,-0.001216
19859,0.594213,0.155437,7.688838,2.117562,0.444491,0.099089
19860,-0.111341,2.613683,7.167313,2.696549,0.477575,0.184382
19861,-1.212317,4.065034,7.370254,2.804915,0.463618,0.175577
19862,-1.282958,5.268831,7.854888,2.658075,0.415551,0.085760
19863,-1.120924,6.285478,8.066052,2.245415,0.408170,0.042137
19864,-0.930143,7.004098,7.948143,1.694911,0.431089,0.008852
19865,-0.864327,7.369759,7.671623,1.131691,0.461834,-0.048606
19866,-0.743930,7.465812,7.537976,0.609053,0.476729,-0.123860
19867,-0.596610,8.036632,7.918160,0.131822,0.489075,-0.218994
19868,-0.363409,8.993035,8.239461,-0.431909,0.544916,-0.318332
19869,-0.248463,9.686130,8.219996,-1.139995,0.637442,-0.424527
19870,-0.557533,10.003195,8.225639,-1.927513,0.741007,-0.535857
19871,-0.991193,10.007661,8.140160,-2.773450,0.794516,-0.672314
19872,-1.164231,9.691449,7.876260,-3.662014,0.809266,-0.814619
19873,-1.163716,9.386281,7.615616,-4.581774,0.810626,-0.935851
19874,-1.294476,8.212641,6.952127,-5.526105,0.821135,-0.980472
19875,-1.618419,6.382343,6.400304,-6.355206,0.787904,-0.958695
19876,-1.757559,3.449101,5.433362,-6.887764,0.744799,-0.852480
19877,-1.994047,-0.512873,5.068863,-6.823766,0.700264,-0.719783
19878,-2.373905,-4.149490,5.555320,-5.971649,0.568551,-0.597283
19879,-2.104837,-6.018895,6.821845,-4.495848,0.345893,-0.538894
19880,-1.723847,-5.095449,7.666272,-2.936137,0.162091,-0.494397
19881,-1.909821,-1.512720,8.618356,-1.851245,0.040849,-0.461911
19882,-1.995638,2.052073,8.795230,-1.644992,0.015598,-0.469700
19883,-2.063365,4.264503,8.670904,-2.159984,0.070270,-0.465152
19884,-1.937117,5.490789,8.596504,-3.139706,0.127776,-0.508352
19885,-1.234380,6.842361,8.762076,-4.438515,0.230289,-0.583650
19886,-0.412563,7.549952,7.549232,-6.057579,0.442666,-0.651356
19887,0.018838,7.419000,6.167273,-7.808946,0.700431,-0.684355
19888,0.035943,5.664196,4.456744,-9.508603,0.971721,-0.655542
19889,-0.124277,2.495841,2.815220,-10.841271,1.192959,-0.591036
19890,-0.854395,-1.218895,1.633409,-11.574059,1.367974,-0.508489
19891,-1.557539,-4.257664,1.362074,-11.721884,1.423829,-0.454179
19892,-1.861060,-6.428576,0.869883,-11.523513,1.419490,-0.395432
19893,-2.174164,-8.148835,-0.143694,-11.075705,1.408249,-0.325601
19894,-2.615499,-9.490684,-0.773080,-10.446787,1.347780,-0.280616
19895,-3.200318,-10.642677,-0.867072,-9.655033,1.263625,-0.230635
19896,-3.407277,-11.662186,-1.051546,-8.757591,1.100876,-0.191439
19897,-3.361132,-12.239368,-0.189421,-7.729668,0.978694,-0.163633
19898,-2.980046,-12.162599,-0.197163,-6.688049,0.917306,-0.168192
19899,-2.668069,-11.589406,0.042625,-5.773239,0.888655,-0.148728
19900,-2.336935,-10.619945,0.012725,-5.120468,0.898762,-0.127443
19901,-2.227767,-9.623230,-0.713340,-4.750153,0.962762,-0.071319
19902,-2.443012,-8.726850,-1.684861,-4.634076,0.991979,-0.006397
19903,-2.606486,-8.129950,-2.367755,-4.765545,0.948359,0.080708
19904,-2.347559,-8.093833,-2.673462,-4.999322,0.917633,0.212485
19905,-2.116976,-8.610440,-2.871389,-5.292382,0.939766,0.386141
19906,-1.995210,-9.299997,-2.872631,-5.422585,0.985419,0.587374
19907,-1.643836,-9.504231,-3.578463,-5.414637,1.025410,0.802217
19908,-1.609236,-9.353502,-4.594167,-5.323396,1.051876,0.992264
19909,-2.862927,-9.622329,-7.026160,-4.957729,1.059084,1.042314
19910,-5.564107,-10.680218,-7.478902,-4.332847,0.770911,0.893328
19911,-6.973567,-12.110847,-7.328709,-3.203886,0.314363,0.641536
19912,-6.919054,-13.201185,-6.207581,-1.699435,-0.136679,0.340587
19913,-5.071693,-12.480155,-4.841216,-0.029311,-0.460094,0.036181
19914,-3.360217,-10.190186,-3.911654,1.292048,-0.496463,-0.232866
19915,-2.613102,-8.065172,-2.073197,2.027119,-0.441636,-0.487717
19916,-1.810372,-7.043766,-0.499416,2.122284,-0.253392,-0.630715
19917,-1.357531,-6.526488,-0.178687,1.743364,0.097918,-0.658649
19918,-1.820630,-5.571599,-1.487565,1.084473,0.505426,-0.612034
19919,-2.587169,-4.426978,-3.015548,0.053193,0.743553,-0.517858
19920,-1.952659,-4.583614,-4.377301,-1.223041,0.896503,-0.347784
19921,-1.430827,-6.181549,-5.859587,-2.391622,1.152279,-0.123142
19922,-1.901167,-8.232695,-6.107618,-3.267837,1.301966,0.127859
19923,-2.635202,-8.769080,-6.340684,-3.822007,1.357532,0.357949
19924,-3.116701,-8.384009,-6.885541,-4.196571,1.288210,0.499074
19925,-3.384325,-7.960072,-7.965249,-4.273472,1.170523,0.516257
19926,-5.058628,-8.466377,-9.450938,-3.855631,1.048352,0.347993
19927,-6.647389,-10.331658,-9.888704,-2.849817,0.616711,0.052991
19928,-6.106443,-12.682153,-9.567887,-1.178075,0.061548,-0.249218
19929,-3.892726,-13.990551,-8.204671,0.924053,-0.408198,-0.462917
19930,-1.418461,-13.143518,-6.926552,2.920043,-0.556523,-0.531165
19931,-0.714057,-10.525589,-5.939441,4.256563,-0.486431,-0.525035
19932,-1.208318,-7.275452,-5.618303,4.696269,-0.366743,-0.405110
19933,-2.303702,-4.023263,-5.750770,4.227194,-0.249739,-0.231958
19934,-3.098624,-2.120236,-5.536128,2.989419,-0.211911,-0.080067
19935,-2.711798,-2.935941,-5.208659,1.409412,-0.166411,0.028275
19936,-1.895827,-5.565409,-4.810478,0.103253,-0.058448,0.134039
19937,-1.484433,-7.631417,-4.860837,-0.747361,0.092377,0.249781
19938,-2.069128,-8.203455,-5.897059,-1.154550,0.235795,0.297426
19939,-3.954830,-8.436851,-7.113099,-1.205166,0.271037,0.208861
19940,-5.423533,-9.407586,-7.523382,-0.887040,0.059596,0.040089
19941,-6.049229,-11.024143,-8.780088,0.007872,-0.160910,-0.191203
19942,-6.544040,-13.079190,-7.738177,1.448143,-0.593833,-0.487552
19943,-4.112421,-14.070081,-7.526675,3.279153,-0.972435,-0.687127
19944,-3.107533,-13.451590,-7.915294,5.207307,-1.133544,-0.833921
19945,-3.032412,-11.944038,-8.459646,6.897709,-1.422693,-0.956389
19946,-3.612222,-10.897271,-8.785752,8.306886,-1.676214,-1.037494
19947,-4.104523,-10.267392,-7.541028,9.350958,-2.011908,-1.012299
19948,-3.147825,-9.627269,-5.963151,10.032621,-2.228621,-0.875563
19949,-2.891121,-9.190233,-4.361422,10.464428,-2.210673,-0.735249
19950,-2.742988,-8.973499,-2.915357,10.709261,-2.208297,-0.594354
19951,-2.067160,-8.776548,-1.486831,10.734764,-2.188728,-0.427652
19952,-1.598911,-8.755808,-1.197315,10.712992,-2.097813,-0.292954
19953,-1.260466,-9.125795,-0.366929,10.673175,-2.135807,-0.199199
19954,-0.215724,-9.373688,1.511271,10.731889,-2.143125,-0.093450
19955,0.402070,-9.136775,2.425497,11.012979,-1.941034,-0.015884
19956,-0.027779,-8.613244,2.923218,11.393274,-1.721735,0.035630
19957,-0.981562,-8.161856,3.230912,12.009653,-1.512973,0.059315
19958,-1.317922,-7.269613,4.599686,12.993513,-1.339117,0.003194
19959,-0.443367,-5.095899,5.878866,14.201642,-1.053923,-0.129108
19960,-0.103353,-1.495611,3.932303,14.814151,-0.567865,-0.229577
19961,-1.779687,3.446801,5.972038,14.660068,-0.240759,-0.215304
19962,-3.133794,9.622952,8.324703,13.335164,-0.183842,-0.270007
19963,-2.833463,15.788224,10.096391,10.513833,-0.110876,-0.613326
19964,-1.410390,20.399989,11.378664,6.357278,0.148690,-0.949226
19965,-0.659695,21.218219,12.226438,1.447611,0.402980,-1.024233
19966,-1.026191,16.921628,11.308146,-3.112534,0.499351,-0.898848
19967,-1.506757,8.964682,9.384640,-6.181229,0.504876,-0.724229
19968,-1.341387,0.108031,8.303598,-7.005692,0.506501,-0.569108
19969,-0.154651,-8.258678,7.030844,-5.547903,0.675070,-0.556365
19970,-0.763422,-17.022904,4.942976,-2.159517,0.696317,-0.510823
19971,-1.897092,-20.285420,4.772824,2.520975,0.055750,-0.342652
19972,-0.426150,-14.357443,4.191610,6.733250,-0.598832,-0.111608
19973,0.109952,-5.316659,5.062873,9.123218,-0.708768,0.096285
19974,0.110271,0.735964,5.694486,9.748705,-0.510902,0.244223
19975,-0.615113,4.823276,5.873189,9.368235,-0.210125,0.397701
19976,-1.703489,7.572848,6.036595,8.391802,0.035080,0.409016
19977,-1.938392,9.357783,5.914575,6.905972,0.134325,0.369790
19978,-1.272250,9.925650,6.017339,5.153377,0.203391,0.336148
19979,-1.024953,9.160248,5.813934,3.566545,0.280541,0.317375
19980,-1.268944,7.859837,5.721640,2.556416,0.271708,0.310358
19981,-1.679207,5.555838,5.903975,2.191947,0.210675,0.329605
19982,-1.476906,3.870143,5.919537,2.431099,0.115840,0.316915
19983,-1.419068,2.109606,5.948499,3.107865,0.108415,0.379168
19984,-1.144480,0.967490,5.282271,4.185802,0.113604,0.418770
19985,-0.644313,-0.270226,4.707356,5.582532,0.159458,0.580549
19986,0.656815,1.587640,3.855244,6.976122,0.111429,0.718860
19987,1.391032,6.426003,2.897215,7.459193,0.211780,0.983309
19988,0.073975,11.784301,2.204180,6.877036,0.463697,1.126202
19989,-2.153351,14.148584,1.435867,5.489735,0.656658,1.089987
19990,-2.441625,13.933386,1.303394,3.946317,0.520540,1.013614
19991,-1.345196,13.989679,1.325507,2.736685,0.408339,0.886912
19992,-1.583094,15.042207,1.964969,1.780433,0.344627,0.725764
19993,-2.202421,16.650507,2.948022,0.768273,0.221932,0.480567
19994,-2.261707,17.161687,3.618187,-0.476089,0.098494,0.217731
19995,-2.047946,16.472733,4.269147,-1.739213,-0.027596,-0.049416
19996,-0.771264,15.279516,4.676442,-2.888482,-0.127086,-0.293121
19997,-0.165628,12.229790,4.292194,-3.823567,-0.105699,-0.392640
19998,-0.302667,8.049614,4.746969,-4.039515,-0.129661,-0.396613
19999,-0.034267,3.915566,5.782859,-3.355307,-0.094187,-0.253661
20000,0.847372,1.956426,6.105169,-1.967480,-0.023066,-0.110643
20001,0.594994,1.778732,4.826086,-0.351600,0.102741,0.071142
20002,-0.613486,3.430358,3.652388,1.151783,0.064248,0.174844
20003,-0.980433,4.938307,3.510905,2.147625,0.026223,0.294932
20004,-0.648860,6.282007,3.895115,2.653669,0.032551,0.410508
20005,-0.423996,8.022944,4.360031,2.714697,0.101562,0.480242
20006,-1.021566,10.628289,4.663712,2.357800,0.206005,0.453379
20007,-1.688875,13.337176,4.645372,1.552578,0.274952,0.352415
20008,-1.763585,14.740130,4.573093,0.364466,0.269717,0.198519
20009,-1.440907,14.700403,4.284505,-0.967251,0.226178,0.046363
20010,-1.193417,13.533674,4.091561,-2.170090,0.181396,-0.076522
20011,-1.215394,12.324778,4.355157,-3.058676,0.111681,-0.230382
20012,-0.676395,12.211483,4.590214,-3.788641,0.039041,-0.421771
20013,-0.105300,12.980739,4.198248,-4.741904,0.001088,-0.577825
20014,-0.026499,14.022803,3.548409,-6.128283,-0.023699,-0.716269
20015,0.181443,14.482677,2.763796,-7.934398,-0.039721,-0.854797
20016,0.457126,12.115429,1.703486,-9.844421,0.005800,-0.882251
20017,0.082672,7.165724,1.171609,-11.049781,0.054656,-0.789422
20018,-0.086632,1.817789,1.507189,-11.029003,0.122732,-0.655275
20019,-0.361998,-2.965036,2.502206,-9.871820,0.204742,-0.542063
20020,-0.687615,-7.789319,1.909246,-7.948219,0.160835,-0.314242
20021,-2.992349,-12.590739,1.946844,-5.111168,-0.008584,0.178993
20022,-3.929647,-13.529353,5.226058,-1.146501,-0.539557,0.340227
20023,-0.874029,-10.441639,6.182382,2.764335,-0.942377,0.491239
20024,0.413537,-5.209768,6.693658,5.651841,-1.001339,0.811523
20025,0.110161,0.206834,6.847371,7.215927,-0.930383,1.126873
20026,-0.855059,5.095855,6.645824,7.460349,-0.786620,1.220549
20027,-1.363107,8.923864,6.729791,6.627988,-0.710344,1.173587
20028,-0.456716,13.541871,7.968559,4.943344,-0.621058,0.873017
20029,0.727600,17.904831,9.907141,2.523938,-0.424497,0.524201
20030,1.263746,20.610555,11.343194,-0.463091,-0.192923,0.218272
20031,1.265410,20.293633,10.551437,-3.615381,0.000584,0.014054
20032,0.694622,17.234930,9.417971,-6.302719,0.124348,-0.139413
20033,0.411414,12.551476,8.002070,-8.209630,0.213867,-0.351941
20034,0.868243,7.974986,6.540859,-9.277922,0.268723,-0.539052
20035,1.382059,3.994464,4.974162,-9.820651,0.343997,-0.554508
20036,0.086881,-1.233574,2.241354,-9.914860,0.420682,-0.252438
20037,-2.823649,-6.485865,3.585384,-8.566991,0.408698,-0.069358
20038,-4.293174,-11.590540,6.595162,-5.700348,0.131274,-0.093105
20039,-1.451922,-13.606702,7.793085,-1.940065,-0.433456,-0.048252
20040,1.195929,-9.537012,7.187995,1.322580,-0.730126,0.152563
20041,0.976003,-3.404552,6.898995,3.269695,-0.822483,0.359179
20042,-0.368366,1.417545,7.088768,3.858368,-0.806511,0.425930
20043,-1.531300,3.318434,7.570406,3.442614,-0.810144,0.362566
20044,-1.790336,4.217644,8.430206,2.695311,-0.872646,0.205603
20045,-0.102145,5.701885,9.702573,1.693949,-0.940756,0.065543
20046,1.379534,7.771396,10.571830,0.351165,-0.825809,-0.033743
20047,1.937091,9.485180,10.808496,-1.349025,-0.613612,-0.147852
20048,2.446115,9.185146,9.952242,-3.223966,-0.449873,-0.244424
20049,3.092228,7.008685,8.746227,-4.903768,-0.283818,-0.256926
20050,2.496351,2.621151,6.681656,-6.066811,-0.127471,-0.159915
20051,0.585111,-2.088456,6.219454,-6.181933,-0.058551,-0.048788
20052,-0.764205,-5.786493,7.426973,-5.150822,-0.195665,-0.025063
20053,-0.915982,-8.821829,8.389883,-3.253005,-0.364372,-0.011744
20054,-0.518379,-10.113459,7.710087,-1.035043,-0.663689,0.112424
20055,-0.835059,-9.132647,6.922362,1.078112,-0.962971,0.342872
20056,-0.527059,-5.344549,8.548916,2.899683,-1.229376,0.381797
20057,0.872790,-0.865750,9.421482,3.863376,-1.297977,0.297806
20058,1.535855,2.618249,9.816708,3.867528,-1.201328,0.257816
20059,1.269215,5.132418,10.111701,3.129330,-1.040358,0.203626
20060,0.779711,6.977847,10.230883,1.822407,-0.897069,-0.003119
20061,0.527998,8.305107,10.447113,0.082426,-0.755159,-0.327074
20062,0.871724,8.178180,10.607107,-1.932706,-0.708243,-0.521149
20063,1.774918,7.090926,11.002217,-3.748062,-0.636001,-0.701979
20064,3.395444,4.422718,10.183112,-5.178574,-0.527907,-0.827875
20065,4.026217,-0.127558,6.731195,-6.172132,-0.385055,-0.793899
20066,1.659709,-5.796068,2.569999,-6.423761,-0.402278,-0.443559
20067,-1.932946,-9.549970,4.162052,-5.212699,-0.612030,-0.355548
20068,-1.970222,-12.719134,7.435712,-2.696107,-1.094891,-0.434670
20069,1.262980,-14.512054,8.944231,0.484069,-1.644658,-0.376445
20070,4.485258,-12.301780,8.351040,3.365027,-1.967033,-0.110088
20071,5.023971,-6.991380,8.446334,5.466561,-2.005022,0.114842
20072,4.067438,-1.095865,8.388372,6.477583,-1.886435,0.173401
20073,3.079523,3.236698,7.558302,6.339782,-1.724152,0.085779
20074,2.205191,6.550821,7.222159,5.336775,-1.583813,-0.058480
20075,2.094672,10.421511,8.665088,3.562638,-1.469738,-0.402889
20076,2.576287,13.121533,10.424413,0.947113,-1.380380,-0.711457
20077,3.633618,12.812061,11.507016,-2.011299,-1.334062,-0.873015
20078,4.789908,9.901836,11.364858,-4.624440,-1.246439,-0.997362
20079,6.338468,5.564100,9.871533,-6.538963,-1.154159,-1.095263
20080,6.571388,-0.868922,5.498426,-7.723835,-0.986028,-0.992529
20081,4.458297,-6.751618,2.912307,-7.577086,-0.949132,-0.821317
20082,2.160717,-10.316361,4.783006,-5.906876,-1.070693,-0.951208
20083,2.149122,-13.405396,7.524484,-3.227651,-1.347509,-1.116646
20084,4.173292,-14.885891,8.540969,-0.233256,-1.752321,-1.019918
20085,5.772077,-13.074146,8.510368,2.418232,-2.013060,-0.733547
20086,5.741868,-8.664128,8.352232,4.204129,-2.121549,-0.491208
20087,5.687082,-3.842631,8.656264,5.029565,-2.133976,-0.384192
20088,5.631052,0.838458,9.117868,4.940475,-1.995511,-0.417371
20089,5.322087,4.297705,10.112110,3.978475,-1.756737,-0.477951
20090,5.045972,6.575533,11.255899,2.275895,-1.505870,-0.587852
20091,5.240043,7.459503,11.985592,0.049618,-1.302313,-0.670307
20092,5.860193,6.816461,12.160499,-2.248441,-1.133721,-0.715463
20093,7.084248,4.834494,11.299935,-4.190821,-0.969422,-0.728243
20094,8.059115,1.458418,9.309825,-5.546653,-0.784921,-0.689520
20095,7.764691,-3.030683,7.033679,-6.120125,-0.633510,-0.603432
20096,6.280338,-7.974588,4.913402,-5.732224,-0.587595,-0.466869
20097,4.717674,-11.566040,5.210667,-4.257497,-0.706661,-0.427564
20098,3.620087,-13.694900,6.844443,-1.955236,-0.976108,-0.421598
20099,4.144398,-13.349268,8.700674,0.707847,-1.348357,-0.377866
20100,5.485022,-11.238549,8.652242,2.961471,-1.611391,-0.204236
20101,6.398430,-7.755176,8.193744,4.552853,-1.749752,-0.004996
20102,6.883046,-3.165783,8.889284,5.387961,-1.707800,0.045459
20103,6.665671,0.538946,9.094937,5.339443,-1.506524,-0.009760
20104,5.944896,3.168934,8.972064,4.571642,-1.307557,-0.063170
20105,5.475443,5.750455,9.594845,3.222486,-1.121683,-0.206093
20106,5.429708,7.685849,10.703715,1.327886,-0.935486,-0.410852
20107,6.108558,7.892699,11.000037,-0.928206,-0.804638,-0.501513
20108,6.576583,6.314003,10.520163,-3.042650,-0.671790,-0.491911
20109,7.350328,3.525406,9.584592,-4.578314,-0.593964,-0.442067
20110,8.127287,0.508598,8.379603,-5.329479,-0.486410,-0.422737
20111,8.307517,-3.030757,6.015269,-5.468974,-0.386952,-0.358222
20112,7.458418,-6.241338,4.617724,-4.862417,-0.374433,-0.243996
20113,6.703828,-8.790160,4.485856,-3.489219,-0.463874,-0.205015
20114,6.338402,-10.533419,5.283011,-1.524595,-0.633163,-0.203550
20115,6.753699,-9.986457,6.599405,0.673724,-0.841026,-0.238749
20116,7.114808,-7.713628,6.792104,2.446362,-0.953022,-0.184206
20117,6.958857,-4.716268,6.237563,3.536952,-1.036717,-0.094249
20118,7.028376,-2.067625,6.097120,3.901035,-1.086778,-0.029932
20119,6.879213,-0.085434,6.413531,3.694490,-1.075392,-0.035894
20120,7.046113,2.129951,7.478699,3.124892,-1.040091,-0.155600
20121,7.304356,3.990265,8.226250,2.093866,-0.924192,-0.285616
20122,7.446587,4.716998,8.401054,0.711667,-0.792959,-0.361649
20123,7.362437,4.349777,7.838444,-0.830047,-0.691807,-0.422340
20124,7.180459,3.255687,7.405762,-2.274312,-0.638638,-0.463242
20125,7.547473,2.077907,7.185252,-3.456428,-0.615220,-0.523375
20126,8.528323,0.327298,6.410388,-4.321023,-0.592753,-0.509242
20127,8.644791,-2.955705,4.625986,-4.713476,-0.540217,-0.363444
20128,7.502050,-6.467445,3.214204,-4.309494,-0.557767,-0.199965
20129,6.531384,-10.111901,2.728021,-2.880827,-0.684283,-0.147459
20130,6.548718,-12.787354,4.312905,-0.327310,-0.840200,-0.207268
20131,7.239889,-13.036618,5.194059,2.542377,-1.085441,-0.206593
20132,8.457621,-10.581925,4.421454,4.993608,-1.346736,-0.002838
20133,9.228829,-6.135272,4.150572,6.573085,-1.444086,0.237603
20134,9.551068,-1.991451,4.235989,7.069238,-1.404236,0.441658
20135,9.719673,0.757749,4.639116,6.713128,-1.328247,0.608265
20136,9.589883,2.901876,5.437756,5.769319,-1.222714,0.702139
20137,9.506358,5.607954,7.125809,4.518846,-1.063562,0.623328
20138,9.015226,7.554406,7.991501,2.866619,-0.777180,0.440585
20139,7.768856,7.684006,7.951259,1.003982,-0.573399,0.296948
20140,7.171304,7.070000,7.645929,-0.798123,-0.473931,0.073812
20141,7.215328,5.601568,6.906012,-2.445748,-0.438586,-0.129000
20142,7.699264,4.341893,6.541143,-3.779459,-0.443891,-0.281192
20143,8.233591,3.082828,6.288846,-4.816897,-0.420243,-0.388691
20144,8.717226,0.951225,5.335692,-5.466827,-0.376106,-0.413891
20145,8.769227,-2.786379,3.301960,-5.592961,-0.371793,-0.317277
20146,7.925578,-6.964912,1.763464,-4.871352,-0.444721,-0.161295
20147,7.323857,-9.940172,2.569598,-3.115816,-0.627145,-0.112683
20148,7.980239,-10.533275,4.538308,-0.666975,-0.842666,-0.175989
20149,9.211179,-8.562219,5.401382,1.648053,-1.018497,-0.175038
20150,9.768982,-5.431161,5.111317,3.252887,-1.049656,-0.002560
20151,9.219277,-2.529010,4.622245,4.039295,-1.010328,0.169299
20152,9.096506,0.256773,5.180570,4.160750,-0.999934,0.197462
20153,8.955032,2.742805,6.040793,3.671283,-0.867872,0.069103
20154,8.513305,4.048095,6.306024,2.611318,-0.769034,-0.023279
20155,8.649944,5.007472,6.602057,1.197380,-0.680556,-0.126883
20156,8.755926,5.629214,6.373979,-0.440146,-0.565557,-0.263407
20157,8.543798,5.051854,5.852372,-2.052716,-0.477444,-0.362927
20158,8.492051,3.692301,5.452756,-3.403653,-0.442227,-0.415359
20159,9.005596,1.964110,5.093726,-4.330476,-0.410296,-0.436674
20160,9.432923,-0.110288,4.334042,-4.828098,-0.356276,-0.412042
20161,9.302553,-3.145735,3.008215,-4.739254,-0.321787,-0.335859
20162,8.944657,-5.847099,2.460757,-3.933828,-0.357249,-0.331831
20163,8.871416,-7.706549,2.664230,-2.535270,-0.452197,-0.356826
20164,8.878673,-8.768015,3.108055,-0.677750,-0.553898,-0.365873
20165,8.979764,-7.903126,3.606004,1.224652,-0.703941,-0.355146
20166,9.073382,-5.380943,3.900954,2.802643,-0.788724,-0.312597
20167,9.029664,-2.250254,3.853863,3.713129,-0.816207,-0.257884
20168,8.889367,0.736506,4.203704,3.896105,-0.794244,-0.232353
20169,8.816826,3.423951,5.053284,3.469648,-0.736594,-0.296083
20170,8.523685,5.568928,5.688178,2.429021,-0.637041,-0.414716
20171,8.640514,5.726312,5.220713,0.836986,-0.622813,-0.476448
20172,8.591328,4.520139,4.500158,-0.860838,-0.603293,-0.543520
20173,8.501841,3.441440,4.084761,-2.295566,-0.619588,-0.697211
20174,8.832746,2.388144,3.993082,-3.396310,-0.637369,-0.802833
20175,9.427340,1.226887,3.790904,-4.154573,-0.615511,-0.815039
20176,9.778524,-0.438527,3.124983,-4.519639,-0.546122,-0.768614
20177,9.661374,-3.221074,1.793620,-4.461588,-0.513743,-0.650660
20178,9.083688,-6.350285,1.351806,-3.685768,-0.526589,-0.535230
20179,8.994311,-9.192110,1.213036,-2.153212,-0.600986,-0.483994
20180,9.292905,-11.603899,1.690958,0.288456,-0.684535,-0.454597
20181,9.989710,-10.183312,3.133115,3.052841,-0.844724,-0.458781
20182,10.591179,-6.288800,2.779475,5.145336,-0.922343,-0.290460
20183,10.836635,-1.293588,3.468731,6.230366,-0.885192,-0.084371
20184,10.956674,4.059066,4.796943,6.068224,-0.676971,-0.072613
20185,10.486890,7.220773,4.742121,4.716467,-0.420087,-0.045261
20186,9.691290,8.428485,5.188665,2.678050,-0.242064,-0.094496
20187,9.345488,8.640730,4.301922,0.158162,-0.129625,-0.279742
20188,9.223585,7.672135,3.423363,-2.393896,-0.074017,-0.439266
20189,9.474481,5.832446,3.093793,-4.475550,-0.072270,-0.556548
20190,10.185138,3.156190,2.554188,-5.875111,-0.060193,-0.535264
20191,10.594916,0.096247,1.972153,-6.444316,0.039045,-0.467395
20192,10.587924,-2.517767,1.538558,-6.239269,0.113997,-0.435494
20193,10.237203,-5.833880,0.380427,-5.446295,0.204781,-0.363897
20194,8.974503,-9.036109,0.407498,-3.834930,0.196366,-0.308004
20195,8.174216,-10.471941,1.201450,-1.591878,0.018532,-0.311302
20196,8.198451,-9.193291,2.145357,0.702599,-0.280199,-0.249287
20197,9.225890,-5.294377,3.213249,2.487976,-0.475023,-0.156949
20198,9.867166,-1.215052,4.066135,3.363065,-0.451635,-0.096046
20199,9.762826,1.176405,4.106399,3.422635,-0.346093,-0.046287
20200,9.433797,2.825436,4.110554,2.880158,-0.259955,-0.040396
20201,9.160800,3.577819,3.528212,1.901883,-0.207442,-0.030926
20202,8.849616,3.453928,2.998339,0.694331,-0.187747,-0.039670
20203,8.973010,2.569055,2.492911,-0.462799,-0.208689,-0.118458
20204,9.221421,1.527477,1.904635,-1.389866,-0.231596,-0.221443
20205,9.539721,0.383096,1.752824,-1.981501,-0.256610,-0.285052
20206,9.932207,-0.967531,1.890260,-2.172316,-0.237289,-0.325968
20207,10.051891,-2.255398,2.065771,-2.014014,-0.217129,-0.317531
20208,9.720206,-3.311481,1.911928,-1.560883,-0.208487,-0.247579
20209,9.390748,-3.620970,2.349382,-0.876859,-0.262239,-0.206114
20210,9.358171,-3.199188,2.704123,-0.126295,-0.302758,-0.174581
20211,9.619208,-1.923640,3.248979,0.490284,-0.327175,-0.128270
20212,9.836093,-0.659072,3.517156,0.799949,-0.297313,-0.064622
20213,9.846947,-0.253159,3.328007,0.850161,-0.252975,-0.007043
20214,9.648487,-0.221568,3.144217,0.771560,-0.201352,0.026196
20215,9.437887,-0.176189,2.962975,0.655367,-0.189443,0.049083
20216,9.410340,-0.188931,2.796914,0.468537,-0.188213,0.101114
20217,9.287060,0.095503,2.691550,0.260518,-0.218123,0.154850
20218,9.510718,0.134136,2.709818,0.084390,-0.230395,0.170720
20219,9.726943,-0.378993,2.613689,0.003316,-0.207914,0.155064
20220,9.716277,-0.477643,2.619852,0.017213,-0.177582,0.098691
20221,9.755707,-0.552368,2.533657,0.026884,-0.158887,0.058018
20222,9.884497,-0.692253,2.381984,0.018158,-0.155282,0.010772
20223,9.994605,-0.619920,2.274847,-0.003864,-0.143395,-0.019791
20224,9.965965,-0.495823,2.305997,-0.039290,-0.129529,-0.035121
20225,9.915219,-0.326907,2.360765,-0.096102,-0.118719,-0.044737
20226,9.799445,-0.135679,2.413042,-0.158047,-0.100985,-0.037376
20227,9.816276,-0.160230,2.331114,-0.202699,-0.091848,-0.021583
20228,9.813530,-0.142194,2.224427,-0.218221,-0.071746,-0.016060
20229,9.865832,-0.311327,2.198212,-0.208506,-0.046047,-0.006756
20230,9.906954,-0.513728,2.149360,-0.183193,-0.013741,0.007633
20231,9.839651,-0.713087,2.072897,-0.103687,0.021099,0.020410
20232,9.690981,-0.515793,2.089968,-0.042920,0.028289,0.026706
20233,9.688867,-0.519764,2.116727,-0.008056,0.023628,0.046467
20234,9.773408,-0.538001,2.149028,0.025005,0.035661,0.055099
20235,9.736431,-0.421572,2.272349,0.047977,0.036131,0.068235
20236,9.802391,-0.287682,2.328331,0.035647,0.041322,0.077209
20237,9.789934,-0.218575,2.380503,-0.018960,0.046660,0.088103
20238,9.738631,-0.009128,2.430299,-0.118310,0.056329,0.100780
20239,9.748806,-0.047401,2.412048,-0.276935,0.056391,0.128923
20240,9.651481,0.074988,2.461236,-0.455701,0.069391,0.162415
20241,9.716363,0.181780,2.546203,-0.699143,0.062327,0.206175
20242,9.791733,0.145931,2.558704,-0.953507,0.068732,0.256688
20243,9.844501,0.089285,2.570917,-1.206483,0.086645,0.284561
20244,9.884294,-0.326103,2.325878,-1.384194,0.109907,0.314198
20245,9.864686,-0.978187,2.080607,-1.444559,0.127085,0.325640
20246,9.673286,-1.296663,1.829439,-1.367755,0.134443,0.310997
20247,9.538788,-1.771570,1.709432,-1.207369,0.123204,0.291991
20248,9.434595,-2.064861,1.598398,-0.958134,0.106833,0.263326
20249,9.422612,-2.009567,1.770717,-0.671667,0.075701,0.238137
20250,9.546383,-1.992358,1.852883,-0.446882,0.041076,0.213721
20251,9.422592,-1.524519,2.041000,-0.252517,0.036517,0.177081
20252,9.415238,-1.282584,2.068241,-0.140677,0.013258,0.151519
20253,9.439509,-1.234268,2.076330,-0.055432,-0.001224,0.123618
20254,9.460940,-1.053904,2.122438,0.023298,-0.015767,0.101667
20255,9.442374,-0.785602,2.223498,0.039810,-0.022189,0.075631
20256,9.539351,-0.744480,2.135050,0.046069,-0.028381,0.067833
20257,9.520284,-0.476206,2.258516,-0.020995,-0.039052,0.047070
20258,9.639681,-0.607807,2.126482,-0.074524,-0.035366,0.043199
20259,9.621281,-0.701992,2.136216,-0.113578,-0.033378,0.036801
20260,9.647672,-0.693297,2.086558,-0.137494,-0.028226,0.026576
20261,9.752529,-1.122424,1.969566,-0.137986,-0.015352,0.016249
20262,9.668797,-1.140879,2.058960,-0.068954,0.009853,0.000410
20263,9.681812,-1.110467,2.063927,-0.030326,0.011092,0.002259
20264,9.640804,-1.027105,2.121510,-0.043566,0.030146,0.005704
20265,9.676392,-1.167885,2.062415,-0.029158,0.047620,0.024385
20266,9.595589,-0.999752,2.154997,-0.041197,0.058747,0.035279
20267,9.659672,-0.895687,2.128522,-0.082290,0.067389,0.044668
20268,9.713777,-0.904730,2.113641,-0.129366,0.072944,0.061384
20269,9.728890,-0.828757,2.131191,-0.212992,0.086277,0.061110
20270,9.679028,-0.909702,2.101545,-0.295536,0.099294,0.071702
20271,9.631719,-1.119953,2.031276,-0.342810,0.100847,0.075557
20272,9.638897,-1.287176,2.018414,-0.347343,0.100025,0.075152
20273,9.604230,-1.513185,1.894787,-0.300131,0.096507,0.078820
20274,9.545515,-1.476677,1.975567,-0.244852,0.085609,0.074752
20275,9.657650,-1.440670,1.970354,-0.199988,0.063122,0.074178
20276,9.614966,-1.367790,2.031061,-0.164205,0.056172,0.070955
20277,9.608217,-1.300933,2.044083,-0.143223,0.046710,0.062130
20278,9.580056,-1.325483,2.090985,-0.127417,0.027560,0.068024
20279,9.646420,-1.307897,2.100939,-0.111348,0.018533,0.062088
20280,9.572983,-1.266014,2.101768,-0.100955,0.004951,0.061794
20281,9.529468,-1.241087,2.126497,-0.094723,-0.003198,0.061611
20282,9.574593,-1.314487,2.168544,-0.086801,-0.010741,0.056882
20283,9.608273,-1.284931,2.199244,-0.073681,-0.012566,0.051244
20284,9.640962,-1.295266,2.348089,-0.066950,-0.008513,0.056542
20285,9.660944,-1.297069,2.373976,-0.058814,-0.002352,0.057380
20286,9.625360,-1.387114,2.284004,-0.044514,0.003190,0.061638
20287,9.617439,-1.367844,2.262345,-0.029223,0.004454,0.062559
20288,9.677695,-1.405384,2.287721,-0.011536,0.003555,0.055684
20289,9.733044,-1.412488,2.267827,0.002162,0.006371,0.051948
20290,9.677749,-1.328386,2.227847,0.004057,0.014981,0.044821
20291,9.582031,-1.207097,2.190185,-0.004975,0.015284,0.038107
20292,9.586178,-1.239907,2.237160,-0.013683,0.016153,0.023658
20293,9.617212,-1.256294,2.238695,-0.030580,0.008818,0.016008
20294,9.625765,-1.280651,2.236726,-0.038485,0.012738,0.004918
20295,9.609715,-1.315910,2.256009,-0.040124,0.018209,-0.011954
20296,9.584209,-1.373925,2.221469,-0.035876,0.014942,-0.021280
20297,9.582190,-1.375790,2.246461,-0.033699,0.014401,-0.030543
20298,9.577518,-1.343517,2.201760,-0.026579,0.011458,-0.036571
