// Start Time: Unknown
// Update Rate: 100.0Hz
// Filter Profile: human (46.1)
// Firmware Version: 4.3.5
PacketCounter,Acc_X,Acc_Y,Acc_Z,Gyr_X,Gyr_Y,Gyr_Z
50153,9.017118,-3.486687,2.037086,-0.003587,-0.011185,-0.005877
50154,9.027531,-3.512211,2.015768,0.000424,-0.011750,-0.009017
50155,9.030277,-3.514130,2.048936,0.003654,-0.015707,-0.013577
50156,9.048973,-3.518003,2.063463,0.004700,-0.015908,-0.020148
50157,9.045914,-3.466099,2.084162,0.003992,-0.014687,-0.023906
50158,9.031461,-3.461100,2.101457,0.004762,-0.016000,-0.029409
50159,9.078437,-3.495242,2.111396,-0.008147,-0.014347,-0.036562
50160,9.040818,-3.507666,2.110915,-0.006874,-0.013381,-0.039577
50161,8.997618,-3.543316,2.108893,-0.008300,-0.010936,-0.047093
50162,9.011556,-3.568379,2.121829,-0.006791,-0.008806,-0.046548
50163,9.007771,-3.587731,2.119173,0.000200,-0.009765,-0.050893
50164,9.025454,-3.585524,2.100038,0.006223,-0.005915,-0.051001
50165,9.011719,-3.578256,2.118406,0.008736,-0.003933,-0.052401
50166,9.013665,-3.573489,2.118174,0.005929,-0.007018,-0.049937
50167,9.012006,-3.595429,2.150748,0.009487,-0.000528,-0.050987
50168,9.027401,-3.590114,2.098159,0.004755,0.001251,-0.051604
50169,9.059213,-3.619827,2.128378,0.008722,0.000751,-0.050119
50170,9.037574,-3.633252,2.111454,0.014225,0.002336,-0.052720
50171,9.000268,-3.644059,2.113433,0.020711,0.003819,-0.052634
50172,9.007690,-3.615140,2.116390,0.022475,0.007072,-0.053162
50173,9.002786,-3.557245,2.105352,0.014745,0.009244,-0.052580
50174,9.004409,-3.552314,2.106739,-0.000172,0.015808,-0.053555
50175,9.028307,-3.602873,2.101933,-0.015881,0.019017,-0.051319
50176,9.016497,-3.643069,2.065444,-0.023090,0.023419,-0.052881
50177,9.050604,-3.719850,2.040431,-0.020115,0.023034,-0.054086
50178,9.081511,-3.984267,1.843229,-0.001741,0.013725,-0.054114
50179,9.130719,-4.475938,1.626387,0.101090,-0.012246,-0.063084
50180,8.870759,-5.097093,1.457238,0.307923,-0.061686,-0.062000
50181,8.369945,-5.460009,1.317435,0.618727,-0.156237,-0.065591
50182,8.447844,-5.478519,1.665423,0.960289,-0.261360,-0.062940
50183,8.875898,-5.519652,1.583236,1.346942,-0.356091,-0.070792
50184,8.993830,-5.020261,1.870134,1.666435,-0.409056,-0.050421
50185,9.155052,-4.245647,2.360792,1.857294,-0.438124,-0.021061
50186,9.391943,-3.571373,2.751999,1.927461,-0.405696,0.003198
50187,9.627730,-2.526784,3.395708,1.814015,-0.298588,0.028538
50188,9.743064,-1.161852,3.611877,1.429612,-0.140662,0.048330
50189,9.732039,-0.163016,3.757479,0.770086,0.058044,0.059754
50190,9.431631,0.164714,3.350579,0.000612,0.238724,0.036148
50191,8.993304,0.027787,3.020211,-0.740718,0.349256,0.006276
50192,8.941463,-0.986379,2.739982,-1.309833,0.426367,-0.022526
50193,8.954960,-2.442230,2.522905,-1.646019,0.464367,-0.023419
50194,8.945857,-3.637638,2.570304,-1.787080,0.470180,0.009975
50195,8.865616,-4.546900,2.393744,-1.762036,0.440039,0.063193
50196,8.759935,-5.444606,2.067330,-1.568328,0.370883,0.134444
50197,8.715998,-6.685098,2.030950,-1.137275,0.277940,0.201020
50198,8.689654,-7.706400,2.145503,-0.477422,0.165285,0.261931
50199,8.771627,-8.066297,2.260348,0.304957,0.039041,0.325135
50200,9.063718,-7.386785,2.471990,1.012378,-0.054640,0.373966
50201,9.331968,-5.962561,2.809097,1.469234,-0.087248,0.423912
50202,9.566755,-4.616523,3.073062,1.672355,-0.061217,0.461204
50203,9.659612,-3.150667,3.571737,1.608772,0.040149,0.472590
50204,9.719472,-1.383652,4.482294,1.245433,0.203089,0.471743
50205,9.633989,0.539489,5.093678,0.535716,0.449275,0.445554
50206,8.806853,2.205815,3.951897,-0.551906,0.641042,0.400822
50207,8.397987,1.895295,3.052677,-1.686623,0.809985,0.344548
50208,8.481449,-0.420842,2.356269,-2.569799,0.944946,0.263321
50209,8.646770,-2.475827,2.048531,-3.082176,0.997289,0.230381
50210,8.669146,-3.709058,1.909296,-3.340261,1.029412,0.220391
50211,8.372497,-4.215805,1.106435,-3.511287,0.995625,0.241739
50212,7.850481,-5.402473,0.458051,-3.502916,0.892386,0.277722
50213,7.497051,-7.790958,0.850419,-3.032558,0.736497,0.304996
50214,7.627618,-9.877603,1.609575,-2.113478,0.532260,0.307165
50215,8.121176,-10.613561,2.397587,-0.943694,0.356265,0.322421
50216,8.717125,-9.854934,2.624429,0.200556,0.222566,0.356214
50217,9.062594,-8.140306,2.522546,1.086649,0.117252,0.401402
50218,9.167969,-6.292093,2.348549,1.649418,0.059950,0.436210
50219,9.250639,-4.703721,2.438198,1.864964,0.031682,0.447974
50220,9.410618,-3.327781,2.808122,1.755567,0.063475,0.454860
50221,9.386330,-2.049348,3.157116,1.343193,0.144175,0.466062
50222,9.196630,-1.144555,3.182647,0.709785,0.248914,0.469877
50223,8.942349,-0.749204,2.826412,-0.010847,0.351454,0.456377
50224,8.606804,-1.228172,2.009541,-0.646294,0.429870,0.416031
50225,8.384988,-2.440667,1.460793,-1.044251,0.461321,0.373945
50226,8.314339,-3.551664,1.379578,-1.216733,0.464449,0.336405
50227,8.332125,-4.387288,1.323640,-1.240952,0.459376,0.322802
50228,8.163019,-4.963908,1.088789,-1.167450,0.428535,0.320063
50229,7.655722,-5.658835,0.753779,-0.997353,0.355018,0.328010
50230,7.497887,-6.627314,0.963951,-0.643266,0.229813,0.325467
50231,7.689956,-7.262187,1.476889,-0.158162,0.101439,0.334277
50232,8.177154,-7.524898,2.139197,0.393554,-0.006925,0.337290
50233,8.505317,-6.872468,2.527677,0.854714,-0.084410,0.361327
50234,8.532665,-5.750632,2.811413,1.131530,-0.116556,0.393051
50235,8.573749,-4.911799,2.815686,1.224110,-0.123628,0.412972
50236,8.504908,-4.222859,2.959728,1.141458,-0.088404,0.423167
50237,8.404413,-3.775863,3.027168,0.918639,-0.034209,0.413631
50238,8.359840,-3.448506,2.876878,0.645407,0.034055,0.376934
50239,8.359530,-3.488569,2.128363,0.415985,0.113442,0.315537
50240,8.138704,-4.380983,1.242945,0.351735,0.188998,0.298958
50241,7.893582,-5.710396,0.781489,0.508924,0.214387,0.251883
50242,7.800410,-6.776487,0.955960,0.813796,0.222504,0.225273
50243,7.485824,-7.542478,1.551468,1.228285,0.190608,0.228586
50244,7.208402,-7.320135,2.172779,1.630303,0.099248,0.246344
50245,7.250870,-6.389877,3.083767,1.868357,-0.028000,0.287805
50246,7.820714,-4.984322,4.492618,1.824996,-0.128411,0.346610
50247,8.295819,-3.755951,5.381394,1.476890,-0.163271,0.408927
50248,8.461900,-3.066701,5.541751,0.957950,-0.151736,0.470450
50249,8.443677,-3.201469,5.218396,0.435174,-0.090074,0.512690
50250,8.210699,-3.746684,4.734912,0.005376,-0.029938,0.544383
50251,8.088487,-4.590762,4.489851,-0.282405,0.028638,0.548891
50252,7.952324,-5.178624,4.312944,-0.421238,0.089072,0.534214
50253,7.809439,-5.477408,3.863820,-0.451861,0.139811,0.514822
50254,7.676876,-5.650670,3.230891,-0.393092,0.174649,0.473626
50255,7.653102,-5.814581,2.684278,-0.268709,0.204148,0.443882
50256,7.584858,-5.894968,2.439081,-0.157775,0.215391,0.430881
50257,7.591227,-5.795053,2.544852,-0.118560,0.238166,0.428709
50258,7.516412,-5.754779,2.815157,-0.157431,0.259003,0.443697
50259,7.244531,-5.893598,2.792857,-0.206790,0.256620,0.453922
50260,6.959966,-6.211399,2.981982,-0.195845,0.205223,0.468737
50261,7.034158,-6.808588,3.389148,-0.064665,0.146658,0.485952
50262,7.356504,-7.424671,3.868961,0.194969,0.091455,0.500448
50263,7.585457,-7.236176,4.253833,0.501455,0.040291,0.521534
50264,7.743184,-6.270535,4.479373,0.669827,0.011595,0.559394
50265,7.769456,-5.529010,4.343286,0.670394,0.014971,0.582621
50266,7.775871,-5.180876,4.357947,0.550983,0.050826,0.601061
50267,7.687420,-5.062865,4.331875,0.387782,0.097826,0.598306
50268,7.611861,-4.878972,4.355322,0.223623,0.160542,0.587147
50269,7.595000,-4.513633,4.418927,0.029027,0.249608,0.567213
50270,7.355387,-4.281865,4.100835,-0.228679,0.330476,0.545455
50271,7.208184,-4.596943,3.624260,-0.468703,0.392642,0.535130
50272,7.135637,-5.377671,3.436841,-0.611718,0.442684,0.525089
50273,7.089755,-5.977816,3.491088,-0.654790,0.468851,0.515385
50274,7.121062,-6.114927,3.773964,-0.644494,0.485900,0.504204
50275,6.885179,-5.852639,3.419153,-0.688220,0.476422,0.507096
50276,6.512347,-6.216762,3.083012,-0.703662,0.415718,0.521707
50277,6.108857,-7.032792,2.673526,-0.619987,0.296216,0.546076
50278,5.948736,-8.370060,2.515556,-0.281051,0.106792,0.563505
50279,6.606878,-9.324771,3.828220,0.302600,-0.049897,0.579243
50280,7.331293,-9.081983,4.575446,0.936002,-0.144174,0.585069
50281,7.314291,-7.434300,4.653065,1.360359,-0.211588,0.620619
50282,7.290371,-5.739648,4.770533,1.431321,-0.227173,0.673022
50283,7.348110,-5.064530,4.672259,1.258520,-0.197033,0.706154
50284,7.339171,-4.957085,4.387565,1.025857,-0.141667,0.698769
50285,7.381278,-4.800292,4.677454,0.803546,-0.061359,0.682343
50286,7.386599,-4.467443,4.791985,0.501940,0.062202,0.672159
50287,7.258070,-4.420390,4.572306,0.145955,0.200368,0.667904
50288,7.068359,-4.690109,4.540943,-0.181423,0.351520,0.650575
50289,7.017560,-4.973788,4.386943,-0.461304,0.482767,0.615567
50290,6.877919,-4.925017,3.799396,-0.728575,0.579706,0.566218
50291,6.451318,-5.044322,3.402771,-0.955383,0.624494,0.537217
50292,6.087641,-5.356591,3.282832,-1.157248,0.620328,0.514891
50293,5.811385,-6.206361,3.052622,-1.238013,0.562760,0.498196
50294,5.558004,-7.559940,3.024565,-1.093555,0.470030,0.473053
50295,5.297581,-8.723380,3.019411,-0.693417,0.298703,0.463937
50296,5.296413,-9.564284,3.161925,-0.071805,0.099749,0.439612
50297,5.704456,-9.858649,3.536043,0.639572,-0.067497,0.432313
50298,6.157621,-8.919843,3.795422,1.239024,-0.206186,0.439156
50299,6.354613,-7.129491,3.832939,1.516196,-0.272337,0.452846
50300,6.292312,-5.561199,3.846944,1.466680,-0.282312,0.460936
50301,6.311078,-4.685566,4.146123,1.203396,-0.200706,0.448338
50302,6.173809,-4.374929,4.095941,0.834396,-0.082571,0.413230
50303,6.114273,-4.522138,4.070028,0.452764,0.039612,0.386692
50304,6.157377,-4.860090,4.312774,0.066204,0.198479,0.362365
50305,6.060189,-5.333939,4.283455,-0.313985,0.364362,0.351629
50306,5.738661,-5.924790,3.905875,-0.629585,0.492691,0.327067
50307,5.344507,-6.767130,3.683285,-0.809968,0.563500,0.319785
50308,5.259742,-7.398859,3.759214,-0.841906,0.583488,0.305634
50309,5.437157,-7.752723,4.119462,-0.806396,0.587139,0.307094
50310,5.211862,-7.885704,3.734946,-0.765827,0.546803,0.321075
50311,4.963431,-8.468312,3.528368,-0.624376,0.440513,0.339553
50312,4.707894,-9.059505,3.287076,-0.362112,0.295388,0.349852
50313,4.552079,-9.579161,3.171590,0.014034,0.107947,0.358010
50314,4.861143,-9.711680,3.663608,0.443196,-0.059347,0.372186
50315,5.512290,-9.065656,4.104620,0.770402,-0.165071,0.398413
50316,5.832416,-8.041137,4.305825,0.898090,-0.185742,0.433129
50317,5.731043,-7.088583,4.222699,0.829492,-0.155822,0.461469
50318,5.394532,-6.524106,4.137479,0.659152,-0.105549,0.469149
50319,5.128636,-6.496834,4.081063,0.458513,-0.037857,0.468313
50320,5.099604,-6.864977,4.535104,0.299414,0.047399,0.471394
50321,5.263449,-7.056351,5.232001,0.160720,0.185640,0.467720
50322,5.520205,-6.637523,5.590712,-0.033542,0.363522,0.469926
50323,5.393755,-5.884943,5.020141,-0.377553,0.517761,0.475269
50324,5.246109,-5.793084,4.632325,-0.777409,0.638794,0.480344
50325,5.255103,-6.393838,4.942284,-1.105836,0.760323,0.480838
50326,5.215190,-6.818253,4.908646,-1.352728,0.846810,0.485878
50327,5.154981,-6.791971,4.532768,-1.596103,0.904454,0.506179
50328,4.389851,-6.947210,3.063118,-1.864470,0.866580,0.550623
50329,3.495274,-8.175570,2.228415,-1.961722,0.719867,0.591578
50330,3.230334,-10.577976,2.510910,-1.657221,0.500940,0.603978
50331,3.599228,-12.767121,3.574659,-0.859094,0.269178,0.588218
50332,3.985630,-12.937956,4.328655,0.153137,0.036060,0.583514
50333,4.475032,-10.933563,4.689630,0.981050,-0.145655,0.603813
50334,4.798951,-8.575355,4.809266,1.363824,-0.215067,0.635623
50335,4.893624,-6.796622,4.827390,1.327312,-0.194343,0.635100
50336,4.691324,-5.835277,4.589276,1.061650,-0.123966,0.607068
50337,4.614070,-5.663445,4.512574,0.686588,-0.016325,0.576394
50338,4.643822,-6.036503,4.679992,0.290878,0.129129,0.562565
50339,4.549792,-6.475303,4.659089,-0.094293,0.273649,0.556580
50340,4.228413,-6.869710,4.484241,-0.429090,0.403540,0.538603
50341,3.806867,-7.551274,4.199173,-0.629486,0.491591,0.512525
50342,3.579238,-8.269882,4.261275,-0.667812,0.512056,0.487478
50343,3.382331,-8.766972,4.446327,-0.613552,0.495000,0.481896
50344,3.427892,-8.990205,4.682737,-0.515912,0.437826,0.470227
50345,3.414545,-9.200251,4.437444,-0.379766,0.346454,0.469475
50346,3.167434,-9.424883,3.766189,-0.180445,0.210844,0.462988
50347,3.072075,-9.952159,3.705627,0.142704,0.052034,0.467108
50348,3.451415,-10.302310,4.240386,0.538099,-0.079067,0.468182
50349,3.689507,-9.792327,4.838246,0.891996,-0.140237,0.472750
50350,3.652616,-8.704130,5.199717,1.083197,-0.128302,0.476767
50351,3.610018,-7.499296,5.175758,1.064955,-0.083841,0.463339
50352,3.893287,-6.711630,4.791734,0.853367,0.003239,0.447959
50353,4.149213,-6.592125,4.633886,0.543946,0.129234,0.443181
50354,4.276530,-6.814111,4.698858,0.212325,0.276010,0.434260
50355,4.148995,-6.898892,4.751293,-0.105126,0.422179,0.435364
50356,3.811079,-7.048430,4.507093,-0.423350,0.548189,0.441993
50357,3.555871,-7.614383,4.263250,-0.660474,0.623096,0.453138
50358,3.414262,-8.237621,4.496052,-0.794956,0.643111,0.472071
50359,3.075095,-8.958002,4.306810,-0.791861,0.586045,0.491170
50360,2.717879,-9.937958,3.790172,-0.582974,0.451066,0.503983
50361,2.540385,-10.879149,3.773545,-0.104509,0.271044,0.511745
50362,2.722788,-10.869168,3.974240,0.472394,0.070710,0.512751
50363,3.243043,-10.002091,4.217005,0.962942,-0.086431,0.521166
50364,3.754228,-8.679585,4.526890,1.212189,-0.145484,0.535208
50365,3.824106,-7.277941,4.612276,1.185695,-0.142786,0.540517
50366,3.731906,-6.261833,4.599211,0.946117,-0.092195,0.524130
50367,3.493069,-5.913486,4.444216,0.590130,0.000542,0.510065
50368,3.286163,-6.133696,4.565632,0.247962,0.114050,0.477020
50369,3.248436,-6.511623,4.733114,-0.033688,0.253369,0.453032
50370,3.155826,-6.614013,4.891983,-0.285864,0.404129,0.434905
50371,2.857361,-6.820000,4.665131,-0.526237,0.519707,0.419964
50372,2.587270,-7.611440,4.296742,-0.694039,0.559206,0.407611
50373,2.171578,-8.645485,4.234974,-0.689813,0.514245,0.407039
50374,2.045088,-9.580343,4.390842,-0.496938,0.380742,0.400446
50375,2.075024,-9.933208,4.208160,-0.156419,0.223521,0.399516
50376,2.162484,-9.670703,3.993397,0.191601,0.055999,0.408598
50377,2.433197,-9.010647,4.086959,0.462600,-0.059674,0.420166
50378,2.767171,-8.211497,4.324610,0.581900,-0.112390,0.417964
50379,2.790002,-7.477389,4.372646,0.573367,-0.104397,0.403745
50380,2.539752,-7.018022,4.525905,0.427835,-0.052652,0.380523
50381,2.419141,-6.970059,4.582247,0.226014,0.048460,0.356177
50382,2.279935,-7.121038,4.685674,0.056751,0.162067,0.315823
50383,2.194080,-6.929545,5.068892,-0.099024,0.303826,0.280437
50384,2.090424,-6.722859,5.229295,-0.328777,0.434081,0.249182
50385,2.068667,-6.791814,5.611193,-0.629940,0.555872,0.236386
50386,2.006738,-7.414849,5.676204,-0.934126,0.650758,0.224437
50387,1.667082,-8.586373,5.073240,-1.092636,0.662049,0.222338
50388,1.365564,-9.765079,4.453758,-1.034480,0.598199,0.231914
50389,1.215084,-10.801010,4.133849,-0.732010,0.459272,0.245850
50390,1.450187,-11.295799,4.318878,-0.275482,0.304981,0.266500
50391,1.747203,-10.817222,4.482134,0.148842,0.168914,0.298720
50392,1.978705,-9.844677,4.679284,0.425608,0.109550,0.338184
50393,2.010546,-8.926475,4.733972,0.519146,0.089044,0.360291
50394,1.857373,-8.052637,4.727118,0.469135,0.122525,0.364460
50395,1.704145,-7.666224,4.742405,0.305868,0.189084,0.353845
50396,1.579717,-7.854573,4.901126,0.119908,0.287173,0.336370
50397,1.402337,-8.113944,5.036363,-0.020760,0.371367,0.321769
50398,1.438239,-7.982578,5.240325,-0.176423,0.449354,0.312966
50399,1.410977,-7.737362,5.162328,-0.411824,0.517866,0.307609
50400,1.269438,-7.942980,5.071155,-0.686934,0.569974,0.310113
50401,1.010425,-8.789468,4.771157,-0.868892,0.572179,0.321884
50402,0.483403,-9.766791,4.112323,-0.874805,0.478966,0.333943
50403,0.218810,-10.780205,3.890811,-0.642988,0.339209,0.345668
50404,0.355373,-11.590368,4.045527,-0.233683,0.170402,0.358562
50405,0.848663,-11.709652,4.020819,0.271412,0.007367,0.374301
50406,1.272577,-10.679037,4.084274,0.683958,-0.108087,0.400100
50407,1.448266,-9.361839,4.014898,0.862790,-0.156309,0.427828
50408,1.351573,-8.296344,3.721014,0.861255,-0.179949,0.426322
50409,1.021625,-7.650774,3.677879,0.749247,-0.163214,0.410869
50410,0.702635,-7.405509,4.058924,0.594105,-0.126915,0.370000
50411,0.849019,-7.306109,4.387565,0.423059,-0.078127,0.319762
50412,1.051444,-7.343257,4.652774,0.243203,0.018066,0.277586
50413,1.043404,-7.539385,4.742174,0.080047,0.108656,0.239106
50414,1.103210,-7.684146,4.861114,-0.095917,0.182509,0.213089
50415,1.105828,-8.022371,4.818363,-0.285393,0.224225,0.189166
50416,0.670693,-8.931400,4.520948,-0.373257,0.202703,0.191943
50417,0.520305,-10.186925,4.594909,-0.223910,0.110722,0.203269
50418,0.569639,-10.796158,4.412025,0.126911,-0.041930,0.216647
50419,0.885419,-10.437954,4.254561,0.516126,-0.191300,0.238632
50420,1.174922,-9.673160,4.543935,0.793550,-0.270802,0.271821
50421,1.425790,-8.930328,4.844263,0.905238,-0.297580,0.303200
50422,1.498089,-8.147155,5.200366,0.883940,-0.270017,0.324495
50423,1.387258,-7.261333,5.357294,0.712456,-0.183452,0.342609
50424,1.170016,-6.728367,5.281598,0.438165,-0.084786,0.349146
50425,0.696997,-6.582675,5.036205,0.151742,0.014385,0.322536
50426,0.412107,-6.712309,4.663677,-0.068005,0.076695,0.271241
50427,0.617712,-7.214194,4.245914,-0.188108,0.143912,0.216246
50428,0.744411,-7.836148,4.370292,-0.212085,0.220174,0.191839
50429,0.791544,-7.873954,4.911154,-0.239172,0.278050,0.176145
50430,0.719507,-7.753986,5.476100,-0.386703,0.333701,0.180341
50431,0.265825,-8.221814,5.284785,-0.562616,0.308729,0.195650
50432,-0.001407,-9.122360,5.093476,-0.593394,0.234180,0.220438
50433,-0.055173,-10.233120,4.731275,-0.383103,0.120780,0.243793
50434,0.129068,-10.804388,4.648790,0.007456,-0.001186,0.267558
50435,0.462049,-10.388124,4.810875,0.401581,-0.084839,0.295218
50436,0.601517,-9.125820,5.164594,0.595836,-0.115425,0.324039
50437,0.549976,-8.159394,5.255917,0.561707,-0.099974,0.342088
50438,0.475097,-7.900153,5.626101,0.411039,-0.041391,0.352429
50439,0.163146,-8.132913,6.043894,0.229059,0.053625,0.372104
50440,0.099269,-8.350085,6.404279,0.069169,0.121822,0.398766
50441,0.174269,-8.226383,6.233062,-0.125266,0.193915,0.399245
50442,0.220785,-7.793473,5.747156,-0.346923,0.254212,0.381678
50443,0.053072,-7.443956,5.319924,-0.571565,0.308737,0.351336
50444,-0.107493,-7.709011,4.862224,-0.727629,0.351924,0.296887
50445,-0.073908,-8.512984,4.752586,-0.732425,0.405050,0.265596
50446,-0.160327,-9.169126,4.939484,-0.632858,0.446453,0.251568
50447,0.046034,-9.192305,5.446109,-0.561932,0.495240,0.260483
50448,0.197432,-8.912766,5.561679,-0.615387,0.531447,0.280755
50449,0.050911,-8.609196,5.062197,-0.741373,0.544786,0.309899
50450,-0.400766,-8.860885,4.316197,-0.878266,0.505251,0.349994
50451,-0.719398,-10.100505,4.251193,-0.815065,0.434797,0.380006
50452,-0.764403,-11.630856,4.632362,-0.452975,0.318488,0.402982
50453,-0.661571,-11.901583,4.581449,0.106730,0.137663,0.427458
50454,-0.101147,-10.769770,4.624607,0.611212,-0.002963,0.462549
50455,0.300207,-9.202599,4.879970,0.814391,-0.044560,0.502171
50456,0.119596,-8.159522,4.719685,0.776199,-0.053528,0.529836
50457,-0.035667,-7.531505,4.632575,0.634296,-0.044051,0.532966
50458,-0.014044,-7.358533,4.806707,0.433439,0.020988,0.524881
50459,-0.212499,-7.519353,4.950884,0.209449,0.101631,0.523099
50460,-0.670703,-7.501120,4.615905,0.004664,0.142800,0.489559
50461,-0.579446,-7.280125,4.249541,-0.152130,0.164922,0.439842
50462,-0.401537,-7.406996,3.738855,-0.265793,0.242370,0.389258
50463,-0.397519,-7.484424,3.537336,-0.291837,0.314294,0.352021
50464,-0.566308,-7.281644,3.732362,-0.339869,0.382915,0.320680
50465,-0.619167,-7.228402,4.328777,-0.454293,0.458183,0.293893
50466,-1.033265,-7.395301,4.604311,-0.638939,0.499851,0.285153
50467,-1.313630,-7.983442,4.390579,-0.783476,0.460208,0.273296
50468,-1.123387,-8.847893,4.520173,-0.802213,0.413838,0.279601
50469,-1.160056,-9.711880,4.765534,-0.674539,0.357532,0.284771
50470,-1.283060,-10.259453,4.361355,-0.371242,0.227734,0.286554
50471,-1.369917,-10.018789,3.946434,-0.019771,0.091984,0.298418
50472,-1.164389,-9.687161,4.153504,0.258143,-0.001032,0.313826
50473,-0.869849,-9.540484,4.548781,0.466443,-0.032571,0.329084
50474,-0.905755,-8.897108,4.978276,0.628033,-0.030185,0.335811
50475,-0.948036,-7.713989,5.121591,0.614622,0.011975,0.331702
50476,-0.906479,-6.818631,4.872372,0.390097,0.087938,0.316634
50477,-0.936898,-6.105530,4.199797,0.090352,0.145905,0.255360
50478,-0.792279,-5.701534,3.306952,-0.224330,0.226217,0.192392
50479,-0.780345,-6.221725,3.023131,-0.491943,0.333668,0.152809
50480,-0.864731,-7.360442,3.253626,-0.612833,0.441796,0.126459
50481,-0.757767,-8.075223,3.873555,-0.590249,0.513752,0.105914
50482,-1.180467,-7.838293,3.931752,-0.565988,0.511381,0.103663
50483,-1.359777,-7.658703,3.754086,-0.575293,0.411068,0.108295
50484,-0.956701,-7.776850,4.240976,-0.568795,0.327827,0.122974
50485,-1.044073,-8.263297,4.158651,-0.470576,0.181026,0.146406
50486,-1.021503,-8.888989,3.619519,-0.141380,-0.036305,0.166995
50487,-1.000582,-8.784552,3.245096,0.334411,-0.232325,0.165704
50488,-0.967004,-8.284087,3.334864,0.792850,-0.371926,0.144988
50489,-0.624840,-7.419461,3.634036,1.109682,-0.454117,0.092277
50490,-0.238254,-6.187201,4.083091,1.223039,-0.457861,0.024587
50491,-0.302788,-4.913339,4.165242,1.050078,-0.414352,-0.052686
50492,-0.609852,-4.410221,3.834371,0.675013,-0.359939,-0.148530
50493,-0.749298,-4.514367,2.723128,0.331370,-0.308910,-0.306897
50494,-0.773796,-4.671844,1.791799,0.167083,-0.253957,-0.471470
50495,-0.516537,-5.036367,2.233469,0.093101,-0.156868,-0.577451
50496,-0.209353,-5.302783,3.126520,-0.023193,-0.034148,-0.668422
50497,0.034528,-5.513407,3.819957,-0.237936,0.065828,-0.716370
50498,-0.230577,-5.657459,3.868659,-0.589471,0.106155,-0.726308
50499,-0.749383,-6.723656,3.271590,-0.905514,0.022855,-0.713184
50500,-0.763748,-8.113639,3.826917,-1.001272,-0.051587,-0.701177
50501,-1.114520,-9.929698,4.374646,-0.826016,-0.155506,-0.685461
50502,-1.086044,-11.500252,3.983016,-0.252248,-0.365204,-0.676297
50503,-0.317565,-11.297463,3.860318,0.500963,-0.538471,-0.662572
50504,0.157013,-9.964519,3.927909,1.028303,-0.642715,-0.627084
50505,0.187282,-8.946228,3.832753,1.267780,-0.690658,-0.606860
50506,-0.198901,-8.464015,3.856382,1.358589,-0.707737,-0.610992
50507,-0.520878,-8.166482,4.130335,1.376590,-0.715206,-0.636160
50508,-0.471923,-7.534961,4.700235,1.309098,-0.713656,-0.679958
50509,-0.396226,-6.414115,5.216146,1.068885,-0.681562,-0.749380
50510,-0.345889,-5.481334,5.410640,0.671004,-0.607812,-0.837590
50511,-0.010592,-5.096490,5.116312,0.209092,-0.519184,-0.935260
50512,0.539093,-6.211125,4.831953,-0.168689,-0.372246,-0.986030
50513,0.646867,-7.864793,4.550317,-0.347661,-0.282445,-1.003826
50514,0.595039,-8.987682,4.451661,-0.338634,-0.268769,-1.013353
50515,0.624798,-9.588720,4.635081,-0.248367,-0.303040,-0.988251
50516,0.721405,-9.826290,4.929685,-0.136052,-0.380164,-0.957928
50517,1.132514,-9.780899,5.515369,0.006998,-0.444687,-0.916471
50518,1.307987,-9.499368,5.936298,0.139613,-0.498970,-0.872881
50519,1.331963,-9.048052,5.936373,0.218982,-0.550967,-0.830490
50520,1.424773,-8.681596,5.836275,0.214048,-0.563534,-0.787038
50521,1.400355,-8.652368,5.614186,0.146457,-0.557706,-0.742738
50522,1.384487,-8.699856,5.121300,0.119327,-0.565964,-0.726767
50523,1.427308,-8.600420,4.972616,0.133852,-0.560043,-0.713404
50524,1.286118,-8.579012,4.972304,0.153493,-0.534759,-0.725818
50525,1.158742,-8.395291,4.760817,0.184426,-0.517249,-0.777757
50526,1.388960,-8.168503,4.526453,0.222430,-0.481072,-0.815097
50527,1.710147,-8.077519,4.774078,0.194513,-0.407245,-0.836245
50528,2.024349,-7.985143,5.126956,0.090696,-0.322716,-0.853222
50529,1.985706,-8.098241,5.189303,-0.077434,-0.249389,-0.842582
50530,1.658026,-7.988128,5.152183,-0.326865,-0.245271,-0.811499
50531,1.508279,-8.525376,5.235919,-0.596840,-0.273420,-0.770411
50532,1.594516,-9.578369,5.617599,-0.730958,-0.312800,-0.723029
50533,1.861987,-10.383466,5.896977,-0.700378,-0.351715,-0.670286
50534,2.296167,-10.417960,6.056143,-0.601273,-0.373210,-0.611530
50535,2.564680,-10.019238,5.804221,-0.530346,-0.373832,-0.539014
50536,2.713352,-9.612810,5.424459,-0.506053,-0.361071,-0.480621
50537,2.697270,-9.286806,5.037015,-0.505467,-0.346346,-0.427599
50538,2.349598,-9.173186,4.775926,-0.480562,-0.339932,-0.397887
50539,1.950215,-9.317279,4.623413,-0.399805,-0.340610,-0.390658
50540,1.634629,-9.441544,4.661420,-0.249103,-0.341927,-0.418812
50541,1.473693,-9.529217,4.751641,-0.062941,-0.353023,-0.469675
50542,1.714802,-9.283684,4.940986,0.102776,-0.347270,-0.532352
50543,2.101022,-8.832728,5.045910,0.172943,-0.305287,-0.593826
50544,2.424340,-8.408044,5.018981,0.110281,-0.251712,-0.623683
50545,2.673476,-7.863057,4.833706,-0.102150,-0.214127,-0.645941
50546,2.742550,-7.518462,4.324426,-0.404693,-0.199409,-0.644320
50547,2.553874,-7.575036,3.895695,-0.748134,-0.249768,-0.629138
50548,2.730313,-8.184647,3.973721,-0.990501,-0.296378,-0.605710
50549,2.700955,-8.836426,4.391779,-1.035975,-0.360840,-0.606052
50550,2.690650,-8.893981,4.702838,-0.984471,-0.462992,-0.591622
50551,2.660048,-8.285409,4.677297,-0.985546,-0.589290,-0.574830
50552,2.757444,-8.093404,4.306491,-1.063685,-0.690621,-0.553160
50553,3.034529,-8.534383,4.009689,-1.092079,-0.754988,-0.553920
50554,3.367298,-9.685248,3.803319,-0.913303,-0.745697,-0.585137
50555,3.366113,-10.519937,3.628533,-0.479877,-0.708046,-0.647471
50556,3.148383,-10.487730,3.451339,0.048203,-0.668229,-0.718734
50557,3.288681,-9.796164,3.668876,0.494386,-0.595938,-0.783164
50558,3.408981,-8.507194,3.760167,0.676441,-0.503295,-0.842729
50559,3.537004,-7.365637,3.722298,0.592276,-0.391442,-0.887494
50560,3.685348,-6.975616,3.787093,0.317342,-0.274594,-0.920693
50561,3.571380,-6.717941,3.721773,-0.046406,-0.182855,-0.952140
50562,3.582452,-6.091142,3.874010,-0.504283,-0.160656,-0.976463
50563,3.861199,-5.880780,4.281567,-1.028267,-0.133634,-1.006483
50564,4.246383,-6.565964,4.255499,-1.514238,-0.140239,-1.013142
50565,4.754656,-8.231573,3.968400,-1.747761,-0.145835,-0.999502
50566,5.071209,-10.409926,2.888457,-1.567572,-0.161149,-0.978117
50567,4.902198,-11.908111,1.868603,-1.004703,-0.220981,-0.960438
50568,4.665407,-12.038394,1.579726,-0.236404,-0.317978,-0.944946
50569,4.660031,-11.233304,1.523925,0.489276,-0.409035,-0.946105
50570,4.751989,-9.950447,2.128269,1.055388,-0.466418,-0.956198
50571,4.759463,-8.824847,2.736310,1.417768,-0.445807,-0.958135
50572,4.716550,-7.452218,2.973890,1.501758,-0.391905,-0.961961
50573,4.863544,-6.411322,3.093826,1.327847,-0.299113,-0.969711
50574,4.860991,-5.283703,3.166337,0.873473,-0.213608,-0.966637
50575,5.094436,-4.387431,3.312315,0.194254,-0.149126,-0.977880
50576,5.515059,-4.342943,3.258749,-0.602192,-0.068536,-1.003732
50577,5.986363,-5.365361,3.108229,-1.299383,0.026473,-0.994345
50578,5.763328,-7.143302,3.047436,-1.738540,0.077990,-0.940707
50579,5.085863,-8.758663,2.783885,-1.805997,0.036205,-0.939226
50580,4.974082,-9.969658,2.555647,-1.531302,-0.051984,-0.955758
50581,5.155628,-10.784292,2.195667,-0.975657,-0.134755,-0.978271
50582,5.389674,-10.960581,1.952665,-0.249603,-0.229004,-1.006098
50583,5.679234,-10.409749,2.011179,0.464787,-0.324152,-1.027486
50584,6.167573,-9.573564,2.388376,1.020476,-0.370335,-1.034318
50585,6.310178,-8.432195,2.546041,1.349378,-0.367469,-1.035621
50586,6.128404,-7.226573,2.338183,1.455457,-0.365819,-1.041236
50587,5.847525,-6.694876,2.205914,1.449975,-0.344457,-1.057693
50588,5.620482,-6.144849,2.499116,1.372352,-0.348220,-1.080148
50589,5.659861,-5.449878,2.870681,1.160841,-0.364566,-1.111509
50590,6.053723,-4.635726,3.427484,0.760869,-0.354378,-1.128807
50591,6.430571,-4.475660,3.772479,0.248785,-0.314661,-1.145938
50592,6.626068,-4.728232,3.729754,-0.282867,-0.281007,-1.144631
50593,6.785422,-5.293499,3.505542,-0.723958,-0.270809,-1.117013
50594,6.888892,-6.556569,2.804525,-0.940931,-0.268720,-1.102549
50595,6.857161,-8.905635,2.055683,-0.681485,-0.311662,-1.103082
50596,6.704550,-11.131431,1.730908,0.089494,-0.392342,-1.097715
50597,7.092136,-12.770685,1.642264,1.309028,-0.464613,-1.084658
50598,7.162305,-12.871782,1.693843,2.740763,-0.523779,-1.053331
50599,6.861415,-10.489704,2.469329,3.923505,-0.637906,-0.996528
50600,6.933989,-7.546922,2.773266,4.598307,-0.726560,-0.985091
50601,7.204414,-4.583049,3.363928,4.685511,-0.779653,-0.945602
50602,7.247928,-1.710564,4.310309,4.168501,-0.822305,-0.927904
50603,7.581908,0.709541,5.469176,3.031850,-0.836379,-0.890296
50604,8.084998,1.510937,6.091970,1.501954,-0.785767,-0.861242
50605,8.561056,0.088977,6.058428,0.041162,-0.634087,-0.815356
50606,8.281529,-2.462881,5.475169,-0.976592,-0.511169,-0.791168
50607,7.884229,-4.289268,5.035192,-1.504245,-0.469981,-0.767262
50608,7.792629,-5.340465,4.582928,-1.707012,-0.470320,-0.773277
50609,7.830290,-5.950955,4.135058,-1.691553,-0.495092,-0.780874
50610,7.801792,-6.182978,3.935955,-1.587935,-0.512168,-0.781614
50611,8.120541,-6.745660,3.709330,-1.361185,-0.512962,-0.767279
50612,8.188161,-7.950349,3.116476,-0.876185,-0.512762,-0.772603
50613,7.952653,-8.011364,2.823748,-0.234285,-0.561587,-0.769907
50614,7.899894,-6.785796,2.685609,0.308797,-0.646787,-0.766881
50615,8.130457,-5.565499,2.735108,0.605950,-0.695882,-0.756335
50616,8.321371,-5.196075,2.760312,0.739447,-0.698969,-0.723272
50617,8.274453,-5.176477,2.845936,0.822554,-0.696116,-0.697625
50618,8.233102,-4.407911,3.376223,0.804906,-0.721533,-0.647451
50619,8.543769,-2.896163,4.211624,0.480152,-0.707611,-0.592121
50620,8.889887,-2.437529,4.432696,-0.060096,-0.609796,-0.556484
50621,8.942973,-2.889456,4.162283,-0.585528,-0.515274,-0.521092
50622,8.717654,-3.579610,3.770739,-0.984366,-0.445849,-0.493174
50623,8.558351,-4.249494,3.376674,-1.237357,-0.413735,-0.480774
50624,8.565904,-4.970266,3.101600,-1.314156,-0.396270,-0.482899
50625,8.707171,-6.271424,2.648955,-1.143320,-0.360701,-0.484998
50626,8.673680,-7.724290,2.142476,-0.655941,-0.354263,-0.500653
50627,8.465694,-8.172507,1.732539,0.063522,-0.372911,-0.511656
50628,8.456417,-7.283215,1.759697,0.732791,-0.414901,-0.510598
50629,8.598362,-5.819583,1.815460,1.174506,-0.440922,-0.511641
50630,8.695194,-4.229504,2.057613,1.291274,-0.462017,-0.494822
50631,8.731850,-2.864466,2.495202,1.093028,-0.457239,-0.476530
50632,8.807798,-1.820811,2.911143,0.616182,-0.445576,-0.448707
50633,9.090393,-1.177189,3.423416,-0.063985,-0.387812,-0.419394
50634,9.299753,-1.448865,3.653221,-0.823648,-0.281976,-0.383282
50635,9.082231,-2.493384,3.424942,-1.442589,-0.193805,-0.343357
50636,8.734681,-3.602369,2.893647,-1.817118,-0.147313,-0.317411
50637,8.443663,-4.083744,2.432371,-2.002806,-0.141218,-0.314588
50638,8.353336,-4.177387,2.063798,-2.097992,-0.155772,-0.324059
50639,8.955621,-5.996982,1.060635,-1.859895,-0.109037,-0.346896
50640,8.917191,-8.043259,0.429720,-1.200233,-0.014584,-0.362774
50641,8.162891,-8.084947,0.384217,-0.354758,-0.118729,-0.416686
50642,8.360282,-6.743292,0.729914,0.348087,-0.239204,-0.468237
50643,8.813000,-5.310264,1.242426,0.796497,-0.298291,-0.502247
50644,8.846070,-3.886027,1.821818,0.951601,-0.321535,-0.528655
50645,8.817984,-2.264762,2.523296,0.781314,-0.331163,-0.540123
50646,9.071845,-0.788427,3.309606,0.260645,-0.295274,-0.537568
50647,9.514463,-0.425122,3.973590,-0.490883,-0.199479,-0.522681
50648,9.616126,-1.077701,3.663638,-1.302852,-0.099924,-0.497344
50649,9.486453,-2.772690,2.591062,-1.909338,-0.005789,-0.459675
50650,9.219469,-4.502457,1.302745,-2.175036,0.042340,-0.448871
50651,9.109459,-5.611583,0.578502,-2.063292,0.095602,-0.451807
50652,8.685714,-6.049725,0.622020,-1.657479,0.117020,-0.502689
50653,8.443166,-6.478868,0.985194,-0.968011,0.096744,-0.584818
50654,8.396983,-5.641824,1.830792,-0.257736,0.055701,-0.666568
50655,8.632975,-3.849686,2.727081,0.174231,0.063297,-0.748102
50656,8.953349,-2.548032,3.104534,0.235594,0.099541,-0.806501
50657,9.129132,-1.797528,3.295970,-0.031792,0.136029,-0.801024
50658,9.352248,-1.598306,3.131903,-0.476625,0.166437,-0.786626
50659,9.532542,-1.769830,2.903187,-0.949904,0.213588,-0.757759
50660,9.601582,-2.190275,2.727812,-1.359863,0.241187,-0.733714
50661,9.725313,-2.857707,2.441325,-1.614383,0.268669,-0.712329
50662,9.768216,-3.325343,2.224535,-1.741922,0.281199,-0.689802
50663,9.725250,-3.418548,2.067703,-1.824074,0.277156,-0.651428
50664,9.846845,-3.538496,1.816705,-1.884672,0.283898,-0.614656
50665,9.879136,-4.323560,1.235850,-1.787627,0.320951,-0.559960
50666,9.435994,-4.657877,0.829376,-1.571506,0.303526,-0.520795
50667,9.145590,-4.353308,0.558194,-1.328415,0.260731,-0.492098
50668,9.184371,-4.351574,0.372204,-1.094623,0.206575,-0.470999
50669,9.209216,-4.590969,0.429146,-0.805848,0.159657,-0.447768
50670,9.180796,-4.730479,0.598031,-0.460413,0.116051,-0.426742
50671,9.103249,-4.361483,0.878683,-0.136556,0.077236,-0.411074
50672,9.062745,-4.041341,1.062801,0.134699,0.046358,-0.389620
50673,9.209875,-4.063593,1.248482,0.367775,0.028603,-0.374845
50674,9.311278,-4.155540,1.352572,0.604669,0.017626,-0.344887
50675,9.403546,-4.221399,1.563785,0.815934,0.010397,-0.308743
50676,9.442599,-4.132954,1.702986,0.975046,0.008841,-0.264447
50677,9.482221,-3.996978,1.858088,1.064781,0.008859,-0.217834
50678,9.508470,-3.907573,1.895613,1.098365,0.010909,-0.166347
50679,9.520617,-3.754113,1.966563,1.079998,0.006621,-0.125663
50680,9.580066,-3.626128,2.007142,1.017257,0.012512,-0.086619
50681,9.584886,-3.356083,1.953764,0.913624,0.004099,-0.053929
50682,9.670711,-3.140918,1.857522,0.743433,0.000232,-0.016783
50683,9.681318,-3.081194,1.763537,0.557442,0.008550,0.005011
50684,9.587896,-3.077353,1.697027,0.411724,0.017695,0.009367
50685,9.513919,-3.056604,1.647172,0.313524,0.014329,0.014123
50686,9.498121,-2.892881,1.600018,0.231284,0.010308,0.013184
50687,9.455126,-2.693818,1.628811,0.152381,0.013158,0.009406
50688,9.452312,-2.686869,1.599265,0.073774,0.013930,0.015966
50689,9.376598,-2.751090,1.559808,0.007050,0.014856,0.025811
50690,9.287971,-2.801962,1.575456,-0.030726,0.016039,0.039551
50691,9.201639,-2.806302,1.598785,-0.048786,0.009483,0.048470
50692,9.126823,-2.796317,1.535351,-0.050361,0.004481,0.054423
50693,9.140858,-2.854052,1.541072,-0.037580,-0.002513,0.059798
50694,9.172109,-2.886036,1.532703,-0.021120,-0.010405,0.073421
50695,9.203891,-2.949210,1.553887,0.008185,-0.014324,0.085226
50696,9.166073,-2.925855,1.526162,0.042426,-0.019440,0.108040
50697,9.191679,-2.948231,1.450849,0.073174,-0.031449,0.118583
50698,9.260114,-2.914022,1.453707,0.107734,-0.043290,0.138672
50699,9.342149,-2.872636,1.404178,0.131815,-0.052898,0.153870
50700,9.362148,-2.763198,1.406125,0.155234,-0.064186,0.161756
50701,9.432070,-2.707713,1.411953,0.172133,-0.069902,0.163018
50702,9.432703,-2.702289,1.447843,0.180005,-0.078856,0.153733
50703,9.499031,-2.748220,1.469552,0.187512,-0.084208,0.158469
50704,9.552718,-2.747966,1.517901,0.186158,-0.079758,0.147905
50705,9.486989,-2.712916,1.562922,0.183912,-0.079107,0.142512
50706,9.436323,-2.729133,1.615706,0.177696,-0.071360,0.138456
50707,9.411822,-2.783092,1.590188,0.175326,-0.071792,0.131786
50708,9.423919,-2.844836,1.596125,0.181332,-0.071178,0.135230
50709,9.407571,-2.862064,1.647313,0.195809,-0.067505,0.136241
50710,9.417491,-2.947424,1.650697,0.212997,-0.070676,0.133180
50711,9.423380,-2.919620,1.726158,0.231145,-0.070996,0.138746
50712,9.430408,-2.999470,1.697034,0.257786,-0.069773,0.147551
50713,9.411133,-3.010655,1.716857,0.277299,-0.071384,0.154698
50714,9.455669,-3.045920,1.694133,0.304340,-0.067965,0.166081
50715,9.474270,-3.012412,1.719767,0.327093,-0.072095,0.174287
50716,9.513676,-2.988197,1.795468,0.343697,-0.065339,0.181992
50717,9.490480,-2.966871,1.753587,0.350046,-0.060301,0.192736
50718,9.526938,-2.938978,1.796094,0.347319,-0.056838,0.202351
50719,9.560808,-2.906922,1.804333,0.341152,-0.055123,0.205991
50720,9.591953,-2.871470,1.778196,0.322665,-0.048468,0.221473
50721,9.536166,-2.885159,1.804336,0.301989,-0.042380,0.228035
50722,9.495844,-2.927870,1.843222,0.282825,-0.035710,0.245544
50723,9.415590,-2.988296,1.848152,0.266349,-0.033464,0.254619
50724,9.397714,-2.960284,1.877081,0.251195,-0.031402,0.266475
50725,9.356119,-2.949349,1.853138,0.230393,-0.025226,0.272945
50726,9.295862,-2.963532,1.844743,0.205277,-0.021979,0.274249
50727,9.335330,-3.012898,1.824488,0.191069,-0.019540,0.274918
50728,9.296048,-3.007144,1.834103,0.171888,-0.011890,0.269310
50729,9.294773,-2.924525,1.780339,0.152270,-0.000712,0.262484
50730,9.190689,-2.885651,1.798810,0.128203,0.008838,0.244722
50731,9.152489,-2.877219,1.808745,0.094876,0.017964,0.226977
50732,9.170705,-2.971785,1.802974,0.075365,0.030676,0.205174
50733,9.108650,-3.004273,1.793250,0.059214,0.045427,0.182339
50734,9.060367,-3.031155,1.731459,0.056852,0.053136,0.163227
50735,9.036411,-3.040149,1.722606,0.051913,0.061008,0.145466
50736,9.068526,-3.031865,1.729496,0.053791,0.064790,0.128954
50737,9.093076,-3.038628,1.666139,0.063172,0.071335,0.114132
50738,9.101380,-3.071398,1.653321,0.060095,0.066388,0.093243
50739,9.181767,-3.087396,1.637362,0.069069,0.068266,0.080458
50740,9.252211,-3.081648,1.676902,0.071898,0.067177,0.068782
50741,9.279857,-3.114850,1.680500,0.076659,0.071640,0.059113
50742,9.242781,-3.114326,1.692104,0.069272,0.071300,0.052892
50743,9.223059,-3.085891,1.653044,0.068214,0.069273,0.045523
50744,9.236440,-3.089523,1.643086,0.063899,0.070786,0.047418
50745,9.232602,-3.120561,1.683324,0.054584,0.069337,0.046221
50746,9.213119,-3.092456,1.643168,0.041709,0.063454,0.050527
50747,9.159034,-3.119116,1.703235,0.035405,0.065156,0.051675
50748,9.172304,-3.123931,1.691728,0.025643,0.064831,0.053792
50749,9.184850,-3.187787,1.778371,0.022638,0.067447,0.052723
50750,9.179972,-3.188603,1.750938,0.016758,0.068029,0.050529
50751,9.182511,-3.172693,1.794412,0.012746,0.071781,0.054886
50752,9.178120,-3.204783,1.833334,0.002869,0.074029,0.045429
50753,9.202001,-3.230532,1.767216,-0.007849,0.084293,0.043918
50754,9.166870,-3.233614,1.811392,-0.017339,0.087501,0.042720
50755,9.113654,-3.232624,1.839449,-0.029542,0.089798,0.041631
50756,9.105340,-3.257423,1.809906,-0.041899,0.090982,0.039298
50757,9.104159,-3.265667,1.850914,-0.057978,0.092393,0.042503
