// Start Time: Unknown
// Update Rate: 100.0Hz
// Filter Profile: human (46.1)
// Firmware Version: 4.3.5
PacketCounter,Acc_X,Acc_Y,Acc_Z,Gyr_X,Gyr_Y,Gyr_Z
55023,8.831667,-3.939620,2.011346,-0.044102,0.003050,0.000503
55024,8.831533,-3.940518,2.010176,-0.038613,0.007360,0.001004
55025,8.902954,-3.944431,2.024682,-0.037343,0.010979,-0.002460
55026,8.906031,-3.925190,2.052184,-0.037356,0.011245,0.001471
55027,8.941097,-3.923934,2.003474,-0.036983,0.010340,0.000164
55028,8.944135,-3.904769,2.031039,-0.038067,0.012812,0.000168
55029,8.949419,-3.947163,1.995793,-0.039591,0.012891,-0.000714
55030,8.929800,-3.959067,2.005566,-0.038795,0.014639,0.002795
55031,8.932671,-3.940195,2.033322,-0.032750,0.011039,0.004141
55032,8.930729,-3.906643,2.008680,-0.030851,0.010058,0.003718
55033,8.876435,-3.947730,1.979333,-0.030848,0.010061,0.003720
55034,8.867273,-3.927008,1.985874,-0.026703,0.007442,0.005488
55035,8.866903,-3.927999,1.985567,-0.025892,0.008928,0.005068
55036,8.885827,-3.917854,1.975467,-0.020851,0.010836,0.004686
55037,8.878283,-3.931368,2.006734,-0.016321,0.007051,0.001212
55038,8.894219,-3.940327,1.968880,-0.007032,0.009124,-0.003060
55039,8.902941,-3.961963,1.962471,-0.004787,0.007486,-0.000869
55040,8.925469,-3.930843,1.981096,0.006307,0.005528,-0.003840
55041,8.915008,-3.963088,1.985013,0.013151,0.003403,-0.002922
55042,8.937725,-3.931388,2.003906,0.017771,0.002663,-0.008122
55043,8.949950,-3.932340,2.026031,0.019279,0.002843,-0.003307
55044,8.936380,-3.895317,1.981621,0.018911,0.003752,-0.001996
55045,8.937900,-3.929404,2.007017,0.015120,0.005723,-0.001144
55046,8.897670,-3.916387,2.004065,0.020531,0.006723,-0.002836
55047,8.862926,-3.945154,1.966213,0.016629,0.005905,0.003671
55048,8.919039,-3.966222,1.933555,0.017828,0.006225,-0.001988
55049,8.877953,-3.926312,2.018058,0.026643,0.006422,0.000711
55050,8.885042,-3.913027,1.988526,0.022134,0.009954,0.000254
55051,8.881602,-3.932606,1.962095,0.018621,0.007971,0.001521
55052,8.881327,-3.932566,1.963417,0.012841,0.007881,0.004522
55053,8.921088,-3.945344,1.968962,0.013630,0.009625,0.008030
55054,8.936619,-3.954956,1.932027,0.007757,0.006491,0.012759
55055,8.955281,-3.944990,1.922890,0.007389,0.007402,0.014070
55056,8.991340,-3.978977,1.900040,0.002746,0.008408,0.023195
55057,8.962271,-3.970107,1.917511,0.002603,0.001801,0.018799
55058,8.938946,-3.914279,1.878888,-0.007452,0.001812,0.029614
55059,8.881493,-3.895792,1.912210,-0.019433,-0.001013,0.030797
55060,8.906524,-3.964424,1.890725,-0.031264,0.002775,0.036381
55061,8.843738,-4.021231,1.891623,-0.032162,-0.001746,0.038536
55062,8.870219,-4.036170,1.873429,-0.024886,-0.001213,0.044287
55063,8.873189,-4.055106,1.924825,-0.010013,-0.004894,0.044410
55064,8.849177,-4.001310,1.885419,0.002484,-0.009462,0.051928
55065,8.881910,-3.976941,1.923980,0.004465,-0.007138,0.053711
55066,8.881739,-3.927328,1.927384,0.002661,-0.002836,0.056344
55067,8.856882,-3.963222,1.908989,-0.005081,-0.005215,0.057576
55068,8.910194,-3.963148,1.961630,-0.010832,-0.005540,0.056654
55069,8.907962,-3.968660,1.960623,-0.016960,-0.004687,0.060978
55070,8.908973,-3.954606,1.987585,-0.018841,-0.003684,0.061411
55071,8.914643,-3.955374,2.066863,-0.029087,-0.000455,0.060034
55072,8.907768,-3.831093,2.079818,-0.056534,0.005374,0.062017
55073,8.927247,-3.780998,2.183267,-0.104026,0.020340,0.066077
55074,8.991305,-3.663326,2.210934,-0.176086,0.044483,0.065653
55075,8.897397,-3.707179,2.115332,-0.254481,0.070018,0.063086
55076,8.864203,-3.797286,2.148417,-0.320779,0.085398,0.065024
55077,8.736711,-4.055790,1.990426,-0.354690,0.090296,0.060226
55078,8.545071,-4.410355,1.714555,-0.336280,0.069083,0.060358
55079,8.264672,-4.953410,1.407479,-0.245307,-0.005971,0.063660
55080,7.988619,-6.050888,1.457760,0.050594,-0.120900,0.076796
55081,8.258797,-7.106681,1.981497,0.574979,-0.247526,0.082364
55082,8.783858,-6.884159,2.079191,1.147566,-0.333972,0.090474
55083,8.929285,-5.907023,1.606435,1.591495,-0.397021,0.105707
55084,9.038592,-4.762940,1.576725,1.861952,-0.413815,0.120355
55085,9.253203,-4.106954,1.568705,1.971181,-0.398880,0.119138
55086,9.382005,-3.569750,1.982576,1.958855,-0.346988,0.110262
55087,9.446170,-2.807369,2.393736,1.799151,-0.256734,0.101099
55088,9.398788,-1.751911,2.620235,1.437319,-0.154558,0.100890
55089,9.297548,-1.061174,2.799235,0.908676,-0.036930,0.096877
55090,9.110302,-0.901980,2.773465,0.279614,0.075593,0.082113
55091,8.947581,-1.174793,2.768978,-0.324334,0.168018,0.062354
55092,8.846745,-2.062819,2.588963,-0.815835,0.242267,0.044009
55093,8.722952,-2.970202,2.290693,-1.141238,0.273271,0.037416
55094,8.675887,-3.657455,2.179640,-1.301731,0.283330,0.039138
55095,8.639178,-4.345422,1.956931,-1.329575,0.269084,0.044491
55096,8.470645,-5.084711,1.536041,-1.223760,0.221912,0.060302
55097,8.241037,-5.832881,1.191329,-0.966465,0.121373,0.085036
55098,8.121472,-6.839332,1.186700,-0.527706,-0.014704,0.108337
55099,8.457062,-7.719803,1.761670,0.117307,-0.136565,0.125389
55100,8.843525,-7.362676,2.167694,0.776101,-0.215332,0.146021
55101,8.995974,-5.973920,2.054613,1.214411,-0.257093,0.180898
55102,9.148247,-4.595983,2.181806,1.386917,-0.242686,0.206787
55103,9.281873,-3.629174,2.422415,1.322273,-0.177056,0.221789
55104,9.351750,-2.651320,2.849031,1.071449,-0.079280,0.212270
55105,9.562877,-1.604260,3.658108,0.625739,0.079626,0.190567
55106,9.519457,0.014247,3.764963,-0.132201,0.269724,0.181747
55107,9.135516,1.071267,2.984382,-1.141224,0.451756,0.186405
55108,8.826576,0.316258,2.269147,-2.139949,0.622225,0.177346
55109,8.713826,-1.488394,2.012280,-2.963618,0.754381,0.181805
55110,8.701796,-3.063854,1.837043,-3.493456,0.830393,0.185343
55111,8.473005,-3.928034,1.473907,-3.821868,0.848361,0.206302
55112,7.239560,-5.208452,0.268232,-3.950845,0.748653,0.237038
55113,6.380351,-8.550521,0.025200,-3.457963,0.496698,0.207266
55114,6.764416,-12.932260,0.788605,-2.189672,0.233221,0.169602
55115,7.509835,-16.175200,1.805406,-0.195069,0.009345,0.148783
55116,8.188511,-14.457450,2.310259,1.799888,-0.213245,0.170356
55117,8.773941,-8.492657,2.450597,2.930181,-0.372825,0.235564
55118,9.480052,-3.115630,2.652231,2.928228,-0.419151,0.296316
55119,9.989780,-0.244981,2.699729,2.213359,-0.310925,0.311902
55120,10.026487,0.675805,2.745548,1.220601,-0.127810,0.312254
55121,10.039637,0.686283,2.849145,0.184622,0.112781,0.306859
55122,9.956730,0.703135,2.703446,-0.862819,0.389433,0.309840
55123,9.410397,0.353577,1.072156,-1.932993,0.573925,0.339434
55124,8.774891,-1.863227,0.300492,-2.807519,0.700162,0.401559
55125,8.425996,-5.558550,0.586042,-3.206041,0.758712,0.476076
55126,8.022454,-8.359296,0.568383,-3.063607,0.727097,0.540034
55127,7.551984,-9.837522,0.861678,-2.506850,0.617811,0.622603
55128,6.886997,-10.877024,0.965629,-1.660109,0.442545,0.689794
55129,6.668268,-11.993820,1.549958,-0.522238,0.185478,0.716190
55130,7.035450,-11.759752,1.805444,0.712576,-0.098392,0.709776
55131,8.111922,-9.874110,2.246007,1.695199,-0.313341,0.746942
55132,9.033517,-7.390679,2.106038,2.150460,-0.396000,0.830513
55133,9.155525,-4.992901,1.582484,2.089399,-0.416844,0.913243
55134,9.159382,-3.331299,1.642077,1.637045,-0.382953,0.975369
55135,9.250397,-2.690717,1.982482,0.962373,-0.261773,1.019858
55136,9.067344,-2.908049,2.163152,0.241241,-0.082747,1.066140
55137,8.657881,-3.589712,2.128715,-0.401322,0.090880,1.125595
55138,8.347234,-4.496585,1.601982,-0.938132,0.252538,1.200349
55139,8.061963,-5.685171,0.911932,-1.355119,0.363545,1.305225
55140,7.909401,-6.991733,0.901396,-1.572068,0.403442,1.392639
55141,7.598398,-7.674612,1.340543,-1.604436,0.397416,1.456937
55142,7.342416,-7.920642,1.210495,-1.499814,0.336538,1.492137
55143,6.988676,-8.223534,0.898064,-1.264316,0.238316,1.500299
55144,6.526096,-9.129318,0.785419,-0.833373,0.072736,1.481897
55145,6.289114,-10.105804,0.723066,-0.178721,-0.160934,1.424704
55146,6.915652,-10.056519,1.597299,0.550736,-0.351363,1.365230
55147,7.811620,-8.649695,2.387422,1.018513,-0.386497,1.361168
55148,8.033372,-6.690385,2.398357,1.090990,-0.323829,1.358800
55149,7.916554,-4.943900,2.164429,0.836623,-0.199801,1.332507
55150,7.559827,-3.380038,1.404313,0.326635,-0.031427,1.281790
55151,6.968265,-2.453385,0.785102,-0.289364,0.138579,1.194404
55152,6.375499,-3.217727,0.777043,-0.887571,0.335746,1.111803
55153,5.884480,-5.132200,0.837753,-1.301384,0.481477,1.056521
55154,5.458824,-7.375483,0.586420,-1.434986,0.548444,1.023770
55155,5.035875,-9.023778,0.536106,-1.257976,0.490834,0.994156
55156,4.918921,-9.905501,0.920706,-0.818729,0.315405,0.938635
55157,5.065104,-10.387698,1.407117,-0.232010,0.116661,0.888508
55158,5.354449,-10.538622,1.885424,0.379106,-0.117169,0.878998
55159,6.137106,-10.043999,2.418005,0.913448,-0.330289,0.893091
55160,7.148784,-9.347710,2.649916,1.232075,-0.442424,0.953078
55161,7.549320,-8.366196,2.520754,1.255433,-0.444286,1.054260
55162,7.663927,-7.796771,2.303299,1.002697,-0.382416,1.194256
55163,7.655445,-7.854521,2.040271,0.612881,-0.264845,1.346608
55164,6.967100,-7.792840,1.455525,0.254842,-0.148854,1.441324
55165,6.109692,-7.171830,0.552010,0.031790,-0.084339,1.457745
55166,5.926632,-7.129758,0.635441,-0.131489,0.049536,1.494831
55167,5.257076,-7.924004,0.633907,-0.240585,0.212638,1.512820
55168,4.987732,-9.034963,1.350086,-0.272037,0.350184,1.551639
55169,4.607306,-9.672773,2.550692,-0.220308,0.550620,1.558495
55170,3.299872,-9.300710,2.087001,-0.223565,0.599981,1.515866
55171,2.375676,-8.621188,1.650684,-0.248384,0.520122,1.423116
55172,2.238400,-8.489635,2.520232,-0.259990,0.482312,1.273585
55173,2.457916,-9.232954,3.693386,-0.181390,0.490207,1.089688
55174,2.186137,-9.962517,4.156107,0.077679,0.438804,0.875497
55175,1.841724,-10.326169,3.496961,0.459915,0.264158,0.659229
55176,2.512657,-11.064494,3.212554,0.851670,0.126046,0.525826
55177,3.242384,-11.842376,3.281719,1.161625,0.079380,0.470849
55178,4.200041,-12.189754,3.979322,1.419202,0.087492,0.501875
55179,5.030130,-11.696410,4.358461,1.482450,0.212705,0.584831
55180,4.243274,-8.313596,2.659915,1.271140,0.267172,0.567461
55181,3.946368,-3.983881,0.800167,0.885587,0.237365,0.468817
55182,5.038171,-4.109467,0.879442,0.277251,0.529020,0.489433
55183,4.915304,-7.707320,1.818855,-0.247813,0.850600,0.583379
55184,4.364385,-10.322736,2.766726,-0.551567,1.056467,0.689940
55185,3.811546,-10.204975,3.671273,-0.858478,1.227391,0.782557
55186,3.624332,-9.014459,3.010411,-1.275253,1.237980,0.837790
55187,3.700419,-8.991855,1.552288,-1.692805,1.211530,0.883073
55188,3.628241,-10.581831,2.116247,-1.769292,1.153764,0.876016
55189,2.963977,-12.994255,1.990726,-1.291352,0.911203,0.812819
55190,2.414734,-14.279149,1.440144,-0.268414,0.532385,0.713398
55191,2.847824,-14.055516,1.663842,0.886766,0.197803,0.640268
55192,3.784185,-12.546999,1.959980,1.827180,-0.045430,0.611461
55193,4.749401,-10.327357,2.577024,2.304266,-0.146202,0.620571
55194,5.055279,-8.613391,2.943567,2.213561,-0.107835,0.697568
55195,4.226162,-6.849441,1.864500,1.791810,-0.091490,0.678458
55196,4.006929,-4.691323,0.792561,1.348494,-0.059153,0.591682
55197,4.239000,-3.732182,0.385124,0.806130,0.153691,0.557374
55198,4.338332,-4.644939,1.263205,0.230025,0.414896,0.595321
55199,4.116468,-5.799015,2.284989,-0.333267,0.671063,0.652374
55200,3.780205,-6.716678,2.773581,-0.881198,0.874756,0.714886
55201,3.217358,-7.346133,2.445532,-1.320101,0.942529,0.766205
55202,2.789445,-8.233316,1.789389,-1.567476,0.855812,0.794410
55203,2.690233,-9.635785,2.296479,-1.517763,0.753154,0.804998
55204,1.977042,-11.537456,2.593353,-1.072986,0.560581,0.780611
55205,1.484161,-12.962526,2.275658,-0.209406,0.245663,0.731185
55206,1.818529,-12.508079,2.275094,0.759041,-0.011038,0.671496
55207,2.297062,-10.568347,2.788278,1.409885,-0.150297,0.626860
55208,2.962722,-9.087763,3.137082,1.596687,-0.175982,0.616610
55209,3.184537,-8.615471,3.631572,1.463926,-0.057899,0.630548
55210,1.743153,-7.157449,2.592860,1.139444,-0.005535,0.570516
55211,1.405314,-5.769975,1.306620,0.764356,0.039267,0.467993
55212,1.848864,-6.430307,1.438448,0.319670,0.251337,0.439870
55213,2.264269,-7.721454,2.384671,-0.081770,0.479866,0.482070
55214,2.582545,-7.947088,3.234254,-0.501573,0.698332,0.544771
55215,2.308303,-8.202424,3.619133,-1.081840,0.907162,0.638196
55216,1.678854,-9.157850,2.895761,-1.636004,0.944135,0.758189
55217,1.882967,-10.376848,2.794736,-2.004732,0.964685,0.881065
55218,1.998931,-11.057523,3.037576,-2.219799,0.982810,0.984262
55219,0.808456,-12.319790,2.511926,-2.113869,0.865764,1.017447
55220,-0.110300,-13.811191,1.997595,-1.469043,0.597210,0.973507
55221,-0.190500,-14.042555,1.446171,-0.547593,0.291123,0.897554
55222,0.548470,-13.320677,1.467436,0.272814,0.051725,0.868950
55223,0.814879,-11.965068,1.555306,0.827262,-0.110108,0.870913
55224,0.998700,-10.626768,2.114968,1.122223,-0.206310,0.868307
55225,1.067324,-10.098533,2.812594,1.127479,-0.172311,0.882555
55226,0.560204,-9.282414,2.572134,0.977837,-0.148678,0.861771
55227,0.201094,-6.837883,1.747820,0.777715,-0.166389,0.706895
55228,0.671935,-5.064236,0.481546,0.424004,-0.046905,0.604452
55229,0.968790,-6.103808,0.293550,-0.025182,0.220064,0.587090
55230,0.862000,-7.660235,0.788271,-0.376788,0.403907,0.635484
55231,0.955868,-8.362372,1.928935,-0.751466,0.600336,0.698829
55232,0.061270,-7.989981,2.153918,-1.253763,0.676473,0.750615
55233,-0.148038,-8.494367,1.883964,-1.780412,0.626031,0.821537
55234,0.019649,-10.549661,3.140468,-2.050449,0.653615,0.857262
55235,-1.141465,-13.241836,2.692032,-1.796504,0.424617,0.854447
55236,-1.890369,-14.979857,1.497829,-0.889999,-0.009589,0.807095
55237,-1.920977,-15.194775,0.698189,0.322719,-0.420613,0.758712
55238,-1.527023,-15.347965,0.285294,1.591026,-0.741357,0.723967
55239,-2.049321,-15.132851,-0.643173,2.856431,-1.096402,0.666746
55240,-1.626484,-14.927957,0.606045,4.020123,-1.384878,0.673609
55241,-0.158953,-13.885668,3.048471,4.767328,-1.430221,0.770009
55242,0.631489,-10.627707,4.720358,4.804617,-1.351265,0.900251
55243,0.687102,-5.417734,3.589623,4.147701,-1.245661,0.877960
55244,1.565613,-1.736156,2.334741,3.021511,-0.858368,0.840486
55245,1.753283,-1.638785,2.357456,1.633183,-0.325910,0.883138
55246,1.373749,-3.568899,3.556405,0.297709,0.144659,0.933417
55247,0.575910,-5.567588,5.066198,-0.847205,0.530652,0.984417
55248,-0.180331,-7.348078,5.829035,-1.748137,0.757736,1.083810
55249,-0.329594,-7.601234,4.506952,-2.459177,0.782802,1.194220
55250,-0.739598,-8.734364,3.826477,-2.914650,0.766283,1.277087
55251,-1.676341,-11.011893,4.754297,-2.880583,0.704359,1.272171
55252,-2.899781,-14.319490,3.842091,-2.024132,0.377861,1.177590
55253,-2.775250,-15.879160,3.588542,-0.419741,0.014965,1.054567
55254,-1.444182,-14.264926,3.261996,1.147497,-0.275873,0.956311
55255,-0.580587,-10.628680,2.950162,2.112227,-0.422442,0.886722
55256,-0.309068,-8.149727,3.377335,2.440206,-0.469150,0.832514
55257,-0.529570,-7.463628,4.261057,2.304973,-0.361756,0.809422
55258,-1.260982,-7.283942,4.082599,1.908487,-0.292603,0.778488
55259,-1.936864,-5.793257,2.773608,1.554398,-0.297938,0.626932
55260,-1.482453,-3.916810,1.552704,1.207587,-0.234608,0.446084
55261,-0.726574,-3.119041,1.679586,0.755406,0.023914,0.346496
55262,-0.060371,-3.123927,3.031594,0.191140,0.327990,0.341955
55263,0.120065,-2.521648,4.076197,-0.642211,0.668738,0.332410
55264,-0.675640,-2.760251,3.782117,-1.711623,0.894722,0.398862
55265,-2.035785,-4.831810,2.637969,-2.698673,0.948001,0.458834
55266,-2.828686,-9.079596,2.677143,-3.099531,0.872634,0.506966
55267,-2.964886,-13.591624,4.830981,-2.643852,0.738827,0.519718
55268,-3.312602,-15.790676,5.033991,-1.431984,0.374645,0.494201
55269,-2.692958,-13.714194,3.779234,-0.030717,-0.053566,0.455624
55270,-2.452883,-11.268002,2.186721,1.003288,-0.329100,0.427407
55271,-2.516300,-10.739130,2.095473,1.838484,-0.532113,0.366462
55272,-2.222667,-11.459090,2.669486,2.544959,-0.628781,0.351042
55273,-1.944559,-10.647916,3.015205,2.999175,-0.663230,0.393529
55274,-1.961662,-7.108806,3.598002,3.014197,-0.640614,0.395728
55275,-2.294603,-1.437435,2.936408,2.489649,-0.598635,0.215006
55276,-1.642937,1.545890,2.219839,1.576705,-0.342495,0.060256
55277,-1.186345,0.707206,3.233430,0.517412,0.028224,-0.006821
55278,-0.996319,-1.164977,4.261130,-0.544670,0.350025,0.016023
55279,-1.317103,-2.487881,4.741136,-1.607480,0.601605,0.096713
55280,-2.226442,-4.756916,4.316183,-2.558221,0.715657,0.179146
55281,-2.213069,-7.363220,4.556935,-3.039878,0.761746,0.260021
55282,-2.648435,-10.644527,4.859892,-2.981631,0.712601,0.333000
55283,-3.557862,-12.915476,4.526610,-2.270430,0.420070,0.365728
55284,-3.720504,-13.030087,3.597674,-1.105108,0.035817,0.344247
55285,-3.380533,-12.644728,2.659667,0.270255,-0.278013,0.275662
55286,-2.991945,-10.868256,2.400371,1.539196,-0.546681,0.170833
55287,-2.455129,-8.670578,3.171769,2.269427,-0.656782,0.089906
55288,-2.297630,-7.503557,4.183670,2.358105,-0.604941,0.062554
55289,-3.104747,-5.687684,4.587596,1.968437,-0.560883,0.029846
55290,-3.720540,-2.440839,2.885460,1.283063,-0.593640,-0.179917
55291,-2.844704,-0.928842,2.374812,0.474090,-0.352273,-0.381349
55292,-2.149345,-2.189741,3.198049,-0.372635,-0.012448,-0.455133
55293,-1.755649,-3.302714,3.740211,-1.168152,0.264324,-0.468325
55294,-1.739571,-4.664468,4.320894,-2.069926,0.532527,-0.385690
55295,-2.725308,-6.718121,3.885891,-2.964137,0.635327,-0.288784
55296,-2.503385,-8.120315,2.849921,-3.614497,0.582936,-0.132945
55297,-2.282050,-9.650918,3.285078,-4.011359,0.636419,-0.008620
55298,-3.375747,-13.814879,3.587627,-3.716886,0.623867,0.035250
55299,-4.215517,-17.529319,2.693100,-2.289559,0.308975,-0.031229
55300,-3.919458,-17.314056,2.024353,-0.217725,-0.064454,-0.172397
55301,-2.914929,-13.955443,1.726347,1.491913,-0.352011,-0.264836
55302,-2.339571,-10.178752,1.930866,2.419686,-0.527070,-0.309149
55303,-1.783597,-7.447116,2.989068,2.553648,-0.560806,-0.298139
55304,-1.563683,-5.505123,4.047504,1.966827,-0.444723,-0.257175
55305,-2.526503,-3.796959,4.191817,1.047314,-0.329115,-0.297873
55306,-3.316102,-0.961410,1.993334,0.192595,-0.403898,-0.482134
55307,-2.015577,-0.694552,0.417093,-0.717007,-0.185652,-0.564582
55308,-1.651858,-3.281504,-0.014683,-1.492536,0.059732,-0.529523
55309,-1.365952,-7.313225,0.428827,-1.865092,0.240340,-0.420666
55310,-2.338662,-10.082632,2.204052,-1.794746,0.419752,-0.264469
55311,-2.964375,-9.890527,2.541026,-1.504032,0.251578,-0.207811
55312,-2.107227,-10.519216,4.517389,-1.267617,0.217260,-0.107696
55313,-2.480319,-13.071392,5.866572,-0.919218,0.168742,0.024881
55314,-3.511238,-15.049199,4.236261,0.171214,-0.310004,0.050573
55315,-2.431726,-13.363168,4.395243,1.609680,-0.651153,0.044940
55316,-1.909230,-11.890223,5.013194,2.752135,-0.761572,0.021183
55317,-2.547389,-10.852417,3.951795,3.605195,-0.920450,-0.067189
55318,-2.390805,-8.898116,3.012265,4.065537,-1.008808,-0.109883
55319,-2.545268,-7.793610,3.438319,3.973197,-0.990276,-0.138308
55320,-2.717162,-5.420740,3.796445,3.610751,-0.888969,-0.279704
55321,-2.215410,-0.908574,3.660104,2.913669,-0.700034,-0.483499
55322,-1.089718,0.608648,5.389274,1.668803,-0.206771,-0.625648
55323,-0.778476,-1.599519,6.895704,0.217882,0.244572,-0.665664
55324,-0.858576,-3.934487,7.082483,-1.104839,0.549750,-0.618301
55325,-1.542825,-6.406373,6.065594,-2.131420,0.684174,-0.500694
55326,-1.393975,-8.841563,5.189330,-2.580321,0.651380,-0.457030
55327,-0.964451,-11.544590,5.364059,-2.559311,0.653314,-0.366202
55328,-1.658022,-14.524578,4.659458,-1.948906,0.519420,-0.257346
55329,-2.221607,-15.486658,3.227138,-0.711752,0.142028,-0.177453
55330,-1.275452,-14.274100,2.599867,0.600125,-0.194892,-0.098099
55331,-0.746444,-11.964379,2.352813,1.513265,-0.480774,-0.021317
55332,-0.435642,-9.306333,2.842613,1.899707,-0.715921,0.029749
55333,-0.485903,-7.653413,4.178753,1.755289,-0.749551,0.058881
55334,-1.154750,-6.754156,4.586827,1.348091,-0.726494,0.028840
55335,-1.593671,-4.985926,3.591561,0.935553,-0.705308,-0.132560
55336,-1.124791,-4.300786,3.199193,0.500968,-0.430823,-0.260678
55337,-0.793615,-5.575565,4.651067,0.047551,-0.083658,-0.330370
55338,-0.375773,-6.005546,5.763717,-0.444497,0.167830,-0.363695
55339,0.522068,-5.479458,6.651096,-1.209421,0.403695,-0.299915
55340,1.365122,-4.719589,5.673972,-2.206754,0.553915,-0.176798
55341,0.182864,-5.370841,2.604806,-3.154501,0.579440,-0.068525
55342,-3.028728,-10.367436,3.138789,-3.246687,0.469649,-0.070235
55343,-5.471234,-16.217029,4.127160,-2.028811,-0.013918,-0.178309
55344,-4.147306,-15.906310,5.017565,-0.177288,-0.525727,-0.290253
55345,-2.207149,-10.298518,5.456385,0.878666,-0.782830,-0.327027
55346,-0.152605,-6.101857,5.807566,0.685629,-0.805762,-0.241619
55347,0.586030,-5.763436,5.721849,-0.210880,-0.564010,-0.101241
55348,0.337912,-7.316003,2.584773,-0.890136,-0.409451,-0.041793
55349,-0.514751,-7.002460,0.182769,-1.050689,-0.285331,-0.064016
55350,-0.473088,-7.088390,0.220554,-0.996092,-0.124081,-0.037041
55351,0.176069,-8.167207,1.562717,-0.835279,0.133894,-0.023119
55352,0.125535,-8.280292,2.526364,-0.721199,0.354539,-0.008268
55353,-0.085064,-8.206066,2.070683,-0.832357,0.497357,0.056780
55354,-2.281446,-8.535432,-0.270564,-1.075644,0.377150,0.106010
55355,-3.769793,-11.448394,2.284038,-0.942917,0.144657,0.063660
55356,-3.819865,-14.211915,4.152776,-0.319228,-0.219023,0.031879
55357,-1.808675,-12.746469,3.450749,0.422918,-0.677413,0.059372
55358,-0.228148,-9.313143,2.806946,0.628588,-0.872630,0.154692
55359,-0.024607,-7.323485,2.815049,0.331166,-0.923847,0.260539
55360,0.209488,-7.135050,2.662068,-0.077110,-0.853488,0.301835
55361,-0.218559,-8.377404,1.903822,-0.326121,-0.657286,0.324000
55362,-1.646028,-8.328862,0.744129,-0.299290,-0.483168,0.268418
55363,-2.019457,-8.444043,0.440986,0.046493,-0.254539,0.146804
55364,-2.333144,-9.174974,1.711406,0.668870,0.006732,-0.034979
55365,-2.013209,-8.112620,3.636298,1.164001,0.215765,-0.222301
55366,-1.599516,-5.557007,4.449373,1.108633,0.442460,-0.361645
55367,-1.200045,-3.432393,4.325643,0.351198,0.617196,-0.446471
55368,-1.819030,-2.912259,3.472531,-0.677816,0.673475,-0.560714
55369,-2.984239,-5.204329,4.258175,-1.329938,0.561857,-0.768730
55370,-3.468182,-8.590949,3.505624,-1.181265,0.270769,-1.073270
55371,-2.954547,-9.795042,2.247478,-0.493216,-0.085412,-1.367946
55372,-1.861159,-10.206804,1.547872,0.325424,-0.316466,-1.599992
55373,-0.965088,-11.288165,0.904764,1.173096,-0.523120,-1.809318
55374,-0.052482,-12.206164,-0.160290,2.289262,-0.627901,-2.001592
55375,-0.051847,-10.597246,-0.057099,3.522244,-0.811151,-2.163230
55376,0.427183,-8.482564,1.921162,4.536434,-0.839407,-2.322812
55377,0.832344,-6.496622,3.945756,5.030977,-0.711803,-2.410187
55378,1.119817,-3.685394,6.067399,4.538794,-0.582712,-2.338620
55379,2.346637,-1.001148,7.902636,2.809566,-0.438064,-2.105946
55380,4.217873,-0.706899,9.174000,0.307849,-0.152092,-1.825516
55381,4.885304,-3.929882,8.737949,-1.989514,0.097667,-1.525506
55382,4.570589,-8.220158,6.818988,-3.345276,0.195362,-1.272392
55383,2.579466,-11.470944,3.770159,-3.658673,0.126154,-1.151050
55384,1.105598,-11.904122,2.832328,-3.384962,-0.188596,-1.066870
55385,0.792904,-8.602412,3.839176,-3.284276,-0.456358,-1.074184
55386,1.027235,-6.328476,3.314217,-3.812586,-0.605981,-1.142465
55387,1.816199,-8.442489,2.017011,-4.333854,-0.550447,-1.264770
55388,2.180471,-16.550390,-1.632643,-3.205274,-0.267166,-1.493604
55389,-0.180860,-19.352857,-1.554592,-0.866250,-0.388235,-1.713114
55390,-0.066397,-13.991540,0.481673,1.203032,-0.630455,-1.870770
55391,1.344882,-8.185613,2.887128,1.959980,-0.682254,-1.950462
55392,2.829520,-5.921611,4.581503,1.605638,-0.607953,-1.910864
55393,3.976788,-6.140618,5.332912,0.745064,-0.477019,-1.791865
55394,4.717505,-6.737387,5.557557,-0.185538,-0.331865,-1.641981
55395,4.826659,-7.199128,5.237644,-1.049100,-0.230367,-1.498478
55396,4.384087,-7.860964,4.083596,-1.701322,-0.149746,-1.476173
55397,3.742253,-8.268745,3.016252,-2.256305,-0.156237,-1.507876
55398,4.090855,-7.879179,2.311628,-2.776571,-0.175803,-1.545718
55399,5.355237,-10.231670,-0.249238,-2.901272,-0.135007,-1.562000
55400,5.391653,-15.504809,-3.168777,-2.042543,-0.131276,-1.607091
55401,4.381565,-16.519367,-2.957243,-0.510730,-0.361200,-1.634321
55402,4.010866,-13.456217,-1.271002,0.901576,-0.568107,-1.686826
55403,3.721023,-10.251421,-0.072039,1.677670,-0.705400,-1.739491
55404,3.993795,-8.176501,0.777536,1.834501,-0.813148,-1.735715
55405,4.672258,-6.432498,1.941107,1.468780,-0.868508,-1.703519
55406,5.497752,-5.189689,3.146399,0.719438,-0.826942,-1.666759
55407,6.354438,-5.320275,4.013469,-0.112891,-0.728143,-1.617445
55408,6.349470,-5.607383,4.824881,-0.805939,-0.541407,-1.588718
55409,5.661620,-6.605866,3.997617,-1.309244,-0.332539,-1.578938
55410,4.667629,-7.714183,2.687082,-1.558242,-0.165247,-1.639667
55411,3.672334,-8.453036,1.489003,-1.662326,-0.105573,-1.721931
55412,3.715227,-9.990681,-0.379908,-1.625670,-0.117286,-1.811907
55413,4.233055,-13.315728,-1.837657,-0.869823,-0.107451,-1.961730
55414,4.000605,-15.731768,-1.558992,0.592111,-0.180704,-2.120119
55415,4.307937,-14.477541,-0.468188,2.140939,-0.348244,-2.225980
55416,5.391482,-10.478023,1.517356,2.964047,-0.458467,-2.215536
55417,6.200488,-7.826562,2.622496,2.942568,-0.512281,-2.139024
55418,7.184022,-5.816650,3.505255,2.216327,-0.472805,-1.971727
55419,7.885083,-2.952407,5.214366,1.082499,-0.321304,-1.833148
55420,8.644522,-2.030807,6.211209,-0.306616,-0.204004,-1.676288
55421,8.861743,-5.242488,4.731180,-1.507444,-0.060621,-1.509622
55422,8.097007,-7.879161,2.768947,-2.112107,-0.031533,-1.396911
55423,7.506445,-9.368854,1.372953,-2.228076,-0.057389,-1.360643
55424,7.055893,-9.467872,1.363368,-2.093944,-0.107576,-1.354262
55425,6.816113,-7.835772,1.971054,-1.939701,-0.125191,-1.436318
55426,6.760417,-7.784741,1.151409,-1.788094,-0.090257,-1.579151
55427,6.694045,-9.695894,-0.504470,-1.313121,-0.039054,-1.715311
55428,6.140613,-11.639152,-2.306711,-0.231874,-0.082465,-1.881765
55429,5.722952,-12.320911,-2.261155,1.132109,-0.235046,-1.972282
55430,6.028264,-11.111926,-0.572103,2.411876,-0.404095,-2.035441
55431,7.185062,-7.820798,1.912193,3.114893,-0.489688,-2.011450
55432,8.478382,-3.926041,4.000003,3.071676,-0.377240,-1.993362
55433,9.140461,-0.499729,5.689669,2.255081,-0.182518,-1.932657
55434,9.678137,1.473889,7.252408,0.893337,0.063126,-1.848833
55435,10.043077,-0.653976,6.166169,-0.503323,0.284488,-1.735449
55436,9.402804,-4.419660,3.690371,-1.322640,0.410106,-1.664706
55437,8.798528,-6.702025,1.833369,-1.535988,0.358169,-1.615929
55438,8.949711,-6.638744,1.116521,-1.391711,0.239577,-1.620040
55439,9.397529,-6.341760,1.115504,-1.129093,0.162805,-1.641664
55440,9.671296,-6.263369,1.191376,-0.813665,0.149632,-1.678897
55441,9.622804,-7.286308,0.445486,-0.379743,0.184119,-1.718315
55442,9.546932,-9.599499,-0.934187,0.339790,0.170769,-1.732069
55443,8.815284,-10.696338,-1.335413,1.451975,0.111188,-1.744626
55444,8.207515,-8.325823,0.160393,2.472488,-0.047236,-1.726814
55445,8.687351,-4.796806,1.966072,2.939585,-0.141414,-1.694226
55446,9.399821,-1.933215,3.244817,2.752825,-0.148197,-1.606265
55447,10.105005,1.372252,4.796319,1.818621,-0.084940,-1.441653
55448,10.207749,2.718609,5.625551,0.443883,0.059143,-1.318570
55449,10.213003,1.264962,5.162636,-0.876194,0.197929,-1.189272
55450,9.636454,-1.418360,4.207067,-1.772585,0.245186,-1.098107
55451,9.610288,-3.910556,2.838238,-2.197745,0.224088,-1.027774
55452,9.529936,-5.618723,1.475096,-2.158523,0.197776,-1.011654
55453,9.431273,-6.627598,0.552742,-1.799522,0.139135,-0.984079
55454,9.458341,-8.249304,0.023708,-1.132087,0.140804,-0.964403
55455,9.101662,-9.384387,-0.895367,-0.065856,0.063655,-0.979298
55456,8.515733,-8.261765,-0.675012,1.105909,-0.064525,-0.992109
55457,8.184248,-5.308988,0.402184,1.871048,-0.166566,-1.001872
55458,8.568147,-2.878082,1.607699,2.102465,-0.227084,-1.001888
55459,9.278426,-2.232302,2.825199,2.006129,-0.210858,-0.970613
55460,9.548348,-0.264731,3.669830,1.598719,-0.171729,-0.914161
55461,9.646732,2.142912,4.446826,0.671044,-0.094593,-0.812996
55462,9.810734,1.533600,4.082846,-0.441245,0.024169,-0.720617
55463,9.540940,-0.494383,3.672004,-1.253341,0.089451,-0.658031
55464,9.396176,-2.002026,3.026729,-1.734443,0.072887,-0.595295
55465,9.709627,-3.613848,2.397732,-1.904803,0.055841,-0.531776
55466,9.867909,-4.720804,2.166698,-1.851590,0.024955,-0.459606
55467,9.704902,-4.543803,2.322169,-1.762056,-0.006268,-0.391826
55468,9.888792,-3.899449,1.981358,-1.643429,-0.032131,-0.375781
55469,9.813072,-5.293535,0.621926,-1.235078,0.026563,-0.405883
55470,9.334772,-7.354122,-0.419251,-0.432282,-0.038994,-0.423575
55471,8.869532,-7.273749,-0.329791,0.532055,-0.130007,-0.419842
55472,8.829697,-5.445048,0.104869,1.287329,-0.249312,-0.409616
55473,9.120506,-3.262742,0.771773,1.677563,-0.332460,-0.390208
55474,9.483447,-2.156083,1.645585,1.773734,-0.336909,-0.355775
55475,9.636146,-1.810287,2.244923,1.739091,-0.328892,-0.302261
55476,9.680718,-0.861947,3.055509,1.576379,-0.301854,-0.237566
55477,9.597882,-0.206141,3.356525,1.236468,-0.280331,-0.150850
55478,9.589860,-0.370845,3.236512,0.843031,-0.260014,-0.070107
55479,9.519360,-0.925573,2.916196,0.512749,-0.243359,-0.018255
55480,9.590374,-1.285818,2.709119,0.258316,-0.232717,0.029393
55481,9.655628,-1.425204,2.662403,0.039582,-0.211345,0.047327
55482,9.795537,-1.555868,2.572427,-0.128491,-0.190737,0.051649
55483,9.963804,-1.471755,2.345682,-0.276199,-0.155957,0.050543
55484,9.973579,-1.491999,2.127888,-0.397477,-0.110003,0.048990
55485,9.635752,-1.559935,1.967398,-0.473632,-0.072399,0.043473
55486,9.419272,-1.746838,1.855406,-0.495882,-0.052279,0.031459
55487,9.412645,-1.932865,1.765855,-0.461384,-0.040321,0.027724
55488,9.412560,-2.049595,1.615260,-0.402485,-0.043166,0.035077
55489,9.496578,-2.131270,1.472552,-0.332445,-0.058947,0.050550
55490,9.473014,-2.072033,1.417207,-0.249931,-0.061406,0.059858
55491,9.525278,-2.219516,1.433570,-0.149860,-0.076303,0.073096
55492,9.605978,-2.471852,1.434750,-0.026450,-0.086237,0.107385
55493,9.637767,-2.431147,1.519788,0.103521,-0.100159,0.145197
55494,9.619908,-2.269011,1.689811,0.206409,-0.114050,0.167142
55495,9.723353,-2.265520,1.764268,0.280617,-0.124427,0.193901
55496,9.848636,-2.211042,1.910466,0.351510,-0.132757,0.227503
55497,9.880946,-2.140150,1.997262,0.395340,-0.132847,0.255283
55498,9.846401,-2.104043,2.038388,0.430411,-0.137725,0.266616
55499,9.808363,-1.875395,2.163342,0.446319,-0.136069,0.277433
55500,9.793702,-1.835859,2.305562,0.435740,-0.131584,0.275428
55501,9.786116,-1.762780,2.386911,0.417660,-0.124017,0.267654
55502,9.764669,-1.757890,2.449681,0.387911,-0.116698,0.253151
55503,9.764514,-1.879442,2.390985,0.355089,-0.098060,0.245216
55504,9.678556,-1.945224,2.354037,0.331768,-0.079962,0.237182
55505,9.634466,-1.897265,2.205504,0.299755,-0.070960,0.230123
55506,9.543082,-1.844679,2.113221,0.257752,-0.049560,0.215377
55507,9.484889,-1.778448,1.973395,0.228165,-0.041187,0.200242
55508,9.499762,-1.902825,1.882360,0.212065,-0.027844,0.190607
55509,9.473079,-1.857596,1.697497,0.219499,-0.027893,0.181470
55510,9.485578,-1.721324,1.600006,0.224344,-0.024633,0.161497
55511,9.558279,-1.775720,1.530910,0.228067,-0.020877,0.150331
55512,9.636403,-1.726623,1.454980,0.225515,-0.022974,0.144094
55513,9.625258,-1.723081,1.404891,0.212988,-0.016862,0.141771
55514,9.648903,-1.805649,1.394366,0.209516,-0.021590,0.145976
55515,9.618326,-1.833704,1.384738,0.213309,-0.028479,0.153512
55516,9.623383,-1.840079,1.465961,0.212989,-0.036270,0.161051
55517,9.647082,-1.870933,1.479660,0.211223,-0.044953,0.174052
55518,9.603237,-1.828435,1.500623,0.211384,-0.055798,0.179488
55519,9.566431,-1.833880,1.575469,0.203975,-0.063668,0.179092
55520,9.584595,-1.913993,1.621087,0.216364,-0.064534,0.171197
55521,9.618773,-1.977510,1.656579,0.224985,-0.071788,0.160317
55522,9.639370,-2.021085,1.699587,0.227156,-0.063593,0.153744
55523,9.554337,-2.046629,1.663053,0.223257,-0.061113,0.148391
55524,9.425087,-2.028772,1.679580,0.222406,-0.056208,0.145561
55525,9.387001,-2.157895,1.678351,0.226098,-0.056665,0.146072
55526,9.406539,-2.274862,1.670897,0.245483,-0.058186,0.156253
55527,9.400290,-2.394940,1.623200,0.290374,-0.050202,0.170657
55528,9.297605,-2.436103,1.601495,0.341440,-0.059948,0.183860
55529,9.351265,-2.415365,1.625491,0.390456,-0.057859,0.195840
55530,9.431330,-2.434144,1.636492,0.421189,-0.062414,0.216332
55531,9.504436,-2.502370,1.683610,0.435502,-0.060287,0.237672
55532,9.515384,-2.503926,1.678043,0.447418,-0.061997,0.261611
55533,9.506193,-2.421271,1.649256,0.443774,-0.065783,0.277598
55534,9.557771,-2.252705,1.661347,0.419428,-0.071145,0.284326
55535,9.631831,-2.229428,1.783619,0.377524,-0.073313,0.285062
55536,9.739393,-2.220623,1.828184,0.321722,-0.065799,0.286401
55537,9.724052,-2.124618,1.911668,0.249294,-0.048330,0.272676
55538,9.684357,-2.074169,1.898676,0.169771,-0.040066,0.249758
55539,9.656507,-2.198253,1.892580,0.087004,-0.021139,0.223150
55540,9.664884,-2.302235,1.805602,0.026197,0.000176,0.204068
55541,9.622083,-2.368836,1.689998,-0.019192,0.011629,0.181405
55542,9.729487,-2.321393,1.616682,-0.057640,0.013922,0.159794
55543,9.893447,-2.084083,1.436521,-0.101343,0.016976,0.140689
55544,9.925982,-2.001368,1.291464,-0.169354,0.018168,0.128374
55545,9.857856,-2.094165,0.932811,-0.213626,0.003483,0.112644
55546,9.783665,-2.245874,0.751301,-0.219255,-0.028927,0.101111
55547,9.673388,-2.330120,0.756071,-0.187029,-0.067364,0.096855
55548,9.582131,-2.536219,0.898519,-0.102968,-0.102778,0.083147
55549,9.490576,-2.496722,1.025287,0.018040,-0.131974,0.073433
55550,9.457667,-2.202105,1.129493,0.097789,-0.147038,0.066003
55551,9.383207,-1.800939,1.195109,0.090835,-0.155942,0.056927
55552,9.308621,-1.584816,1.185503,0.020178,-0.155181,0.045735
55553,9.255691,-1.685521,1.182230,-0.066681,-0.150396,0.023142
55554,9.224615,-1.959319,1.204515,-0.128767,-0.147534,-0.001982
55555,9.186286,-2.156283,1.254668,-0.140304,-0.150657,-0.024656
55556,9.161127,-2.371388,1.297749,-0.121218,-0.149992,-0.043776
55557,9.106840,-2.478286,1.324352,-0.085971,-0.155863,-0.056144
55558,9.142312,-2.516610,1.406801,-0.038482,-0.156012,-0.066639
55559,9.207878,-2.538112,1.499527,-0.004145,-0.152481,-0.076701
55560,9.197011,-2.645762,1.531635,0.019113,-0.146526,-0.076575
55561,9.202274,-2.667342,1.694969,0.042333,-0.132687,-0.072811
55562,9.204751,-2.630475,1.770507,0.037653,-0.127255,-0.072408
55563,9.229728,-2.625388,1.892289,0.019116,-0.111874,-0.067389
55564,9.209375,-2.701839,1.903491,-0.013694,-0.096594,-0.054586
55565,9.249776,-2.757760,1.873760,-0.055208,-0.085314,-0.038622
55566,9.357923,-2.889287,1.745589,-0.083507,-0.083086,-0.022209
55567,9.517784,-3.038309,1.671180,-0.076087,-0.085554,-0.004908
55568,9.592730,-3.128999,1.706596,-0.030210,-0.086613,0.007583
55569,9.779118,-3.204725,1.815184,0.024738,-0.094717,0.011172
55570,10.039823,-3.163932,1.810458,0.074475,-0.091767,0.025602
55571,10.217155,-3.093329,1.830181,0.093256,-0.083632,0.023903
55572,10.257115,-3.110698,1.859514,0.096846,-0.062863,0.012872
55573,10.215848,-3.105243,1.855232,0.093333,-0.040724,0.001063
55574,10.128814,-3.127976,1.856031,0.092613,-0.017896,-0.015472
55575,9.993861,-3.078567,1.827314,0.090476,0.004377,-0.022681
55576,9.825220,-3.078619,1.796545,0.090690,0.022369,-0.018423
55577,9.616780,-3.062648,1.733478,0.097460,0.036958,-0.002779
55578,9.442155,-3.120439,1.683636,0.120463,0.048078,0.013968
55579,9.246508,-2.941562,1.689758,0.132333,0.051400,0.036574
55580,9.190603,-2.806605,1.635947,0.127696,0.055991,0.061088
55581,9.190370,-2.799114,1.612768,0.107715,0.065070,0.090358
55582,9.205620,-2.780393,1.577944,0.091613,0.067854,0.113382
55583,9.193659,-2.767018,1.502219,0.075805,0.072904,0.133381
55584,9.237628,-2.736935,1.476036,0.069906,0.074802,0.144873
55585,9.263156,-2.764905,1.407719,0.059889,0.081130,0.151645
55586,9.334561,-2.764437,1.336782,0.061376,0.081418,0.156324
55587,9.381675,-2.723641,1.279181,0.074851,0.080505,0.142694
55588,9.460203,-2.644477,1.257468,0.094362,0.074802,0.123199
55589,9.498268,-2.658595,1.269412,0.122638,0.067599,0.101543
55590,9.540592,-2.758620,1.285515,0.141523,0.062811,0.087129
55591,9.529929,-2.810685,1.333015,0.152355,0.063557,0.079003
55592,9.497429,-2.830654,1.334013,0.159086,0.049959,0.064553
55593,9.503759,-2.766494,1.332380,0.168907,0.044402,0.055359
55594,9.576576,-2.693044,1.432578,0.178331,0.036974,0.039030
55595,9.611504,-2.700330,1.534362,0.183838,0.030885,0.019730
55596,9.542176,-2.742612,1.648540,0.208019,0.030667,0.001819
55597,9.411471,-2.802373,1.805298,0.237115,0.035745,-0.022210
55598,9.392655,-2.798112,1.886769,0.265822,0.044238,-0.040389
55599,9.402621,-2.798951,1.951813,0.277413,0.054772,-0.041566
55600,9.390301,-2.669543,1.933355,0.274517,0.073897,-0.051894
55601,9.331485,-2.568688,1.918930,0.262156,0.090082,-0.054045
