// Start Time: Unknown
// Update Rate: 100.0Hz
// Filter Profile: human (46.1)
// Firmware Version: 4.3.5
PacketCounter,Acc_X,Acc_Y,Acc_Z,Gyr_X,Gyr_Y,Gyr_Z
11202,9.069259,-3.470738,2.128238,0.002234,0.007345,-0.027192
11203,9.050238,-3.456886,2.120413,-0.004112,0.008003,-0.022130
11204,9.064951,-3.441942,2.106146,-0.006946,0.010856,-0.020640
11205,9.048695,-3.470445,2.104370,-0.012034,0.010730,-0.019278
11206,9.071410,-3.463692,2.130551,-0.017927,0.008117,-0.018606
11207,9.049462,-3.467953,2.105179,-0.019058,0.016577,-0.014167
11208,9.055288,-3.491649,2.129159,-0.021595,0.011684,-0.019007
11209,9.074798,-3.443571,2.149356,-0.030164,0.016397,-0.014906
11210,9.058277,-3.472990,2.147304,-0.034637,0.017476,-0.015997
11211,9.138765,-3.384537,2.221710,-0.056817,0.024153,-0.018307
11212,9.162999,-3.198928,2.208927,-0.116777,0.041596,-0.025973
11213,9.283710,-3.043154,2.142149,-0.222667,0.070568,-0.040936
11214,9.382588,-2.952058,2.037872,-0.365196,0.106885,-0.056848
11215,9.327186,-3.078868,1.993215,-0.508796,0.146311,-0.072248
11216,9.138971,-3.448018,1.921782,-0.622032,0.168430,-0.074774
11217,9.059960,-3.955222,1.822881,-0.666856,0.173462,-0.064739
11218,8.963961,-4.328571,1.661423,-0.640349,0.161871,-0.035296
11219,8.831828,-4.587689,1.528163,-0.552757,0.125190,0.008594
11220,8.749892,-4.874062,1.376942,-0.425240,0.071347,0.056628
11221,8.768932,-4.997842,1.362646,-0.254233,0.013497,0.105081
11222,8.755249,-4.976765,1.421518,-0.074691,-0.047116,0.154456
11223,8.814805,-4.905930,1.526246,0.084086,-0.102248,0.212201
11224,8.873585,-4.672089,1.584173,0.215469,-0.147745,0.258268
11225,8.884027,-4.514589,1.649143,0.288434,-0.173880,0.311218
11226,8.908602,-4.404293,1.685927,0.350441,-0.200725,0.346794
11227,9.010316,-4.102520,1.898466,0.355563,-0.209953,0.391676
11228,9.181430,-3.802228,2.094750,0.300863,-0.201402,0.434170
11229,9.384751,-3.602525,2.437079,0.206296,-0.160169,0.473387
11230,9.623946,-3.371142,2.972462,0.086619,-0.083130,0.508265
11231,9.910698,-2.508332,3.647162,-0.162868,0.052810,0.553576
11232,10.150646,-1.538850,3.990044,-0.620084,0.242306,0.594398
11233,9.964327,-1.001653,3.634522,-1.233274,0.441946,0.645241
11234,9.893285,-1.314481,3.616213,-1.859335,0.648476,0.691418
11235,9.894241,-1.920153,3.777261,-2.395235,0.858910,0.731828
11236,9.862609,-2.399230,3.614927,-2.870525,1.032874,0.784324
11237,9.754498,-3.070268,3.578597,-3.255976,1.190316,0.842987
11238,9.447194,-4.155403,3.329641,-3.481583,1.285616,0.908862
11239,9.056178,-5.214958,3.297745,-3.516279,1.312614,0.975216
11240,8.757061,-6.163257,3.403560,-3.350855,1.293051,1.011674
11241,8.530460,-7.021204,3.511314,-3.045445,1.246598,1.058941
11242,8.237262,-7.606883,3.352438,-2.649499,1.191747,1.081344
11243,7.960807,-7.948892,2.924778,-2.174023,1.120401,1.087582
11244,7.718789,-7.694241,2.504524,-1.722139,1.034540,1.077549
11245,7.663050,-7.618301,1.951883,-1.328506,0.954713,1.054601
11246,7.587396,-7.892758,1.237567,-0.940417,0.884396,1.026867
11247,7.333825,-8.077820,0.452337,-0.527317,0.794001,0.998740
11248,7.023216,-7.901902,-0.205836,-0.117499,0.657057,0.985288
11249,6.709971,-7.686849,-0.912776,0.209459,0.476244,0.978114
11250,6.511678,-7.862926,-1.255857,0.518452,0.257823,0.970263
11251,6.594343,-8.101132,-1.004832,0.892333,0.001339,0.980797
11252,6.692968,-8.377003,-0.988839,1.301572,-0.282016,1.014459
11253,6.669651,-8.357943,-1.501097,1.729360,-0.628723,1.068560
11254,6.471505,-8.548742,-2.231571,2.169339,-1.075530,1.146486
11255,6.780112,-8.853242,-2.211040,2.745513,-1.603486,1.212786
11256,7.681812,-8.818397,-1.426305,3.377256,-2.108915,1.269445
11257,8.579883,-8.282804,-0.634967,3.899347,-2.493499,1.352253
11258,9.312250,-7.086665,-0.048944,4.250695,-2.743422,1.417529
11259,10.154386,-5.732832,1.549839,4.413846,-2.796255,1.473757
11260,11.379480,-4.552507,4.811785,4.311916,-2.479868,1.521316
11261,11.516961,-3.586642,6.881153,3.735974,-1.862337,1.570192
11262,10.599172,-2.117376,6.620653,2.791728,-1.070669,1.529763
11263,8.604612,0.142865,4.060071,1.654505,-0.321732,1.365375
11264,7.424269,2.020672,3.295770,0.559762,0.364396,1.045693
11265,6.782474,2.335739,3.809147,-0.521887,1.028978,0.693549
11266,5.923039,0.758434,4.202736,-1.502248,1.540346,0.452688
11267,5.378727,-0.834348,4.767496,-2.377177,1.909230,0.310006
11268,5.110806,-2.594276,4.792904,-3.219535,2.146085,0.251574
11269,5.400290,-5.224467,3.946998,-3.776130,2.263303,0.262397
11270,5.362274,-7.887359,2.352445,-3.907468,2.225184,0.314270
11271,4.770655,-10.431210,0.805385,-3.485712,1.960434,0.365460
11272,4.009536,-12.909655,-0.211232,-2.415004,1.458328,0.379604
11273,3.675343,-14.379945,-0.538664,-0.896035,0.799584,0.372065
11274,4.197329,-14.034535,-0.477604,0.678226,0.114869,0.371179
11275,5.426776,-12.389381,-0.330385,1.907875,-0.485198,0.416262
11276,6.820103,-10.535213,0.218805,2.651419,-0.911776,0.501694
11277,7.590764,-8.735835,0.514094,2.925245,-1.185973,0.586961
11278,8.057502,-7.184698,1.219614,2.880951,-1.294843,0.637190
11279,8.319814,-5.581171,2.645570,2.545314,-1.189170,0.634437
11280,7.988818,-4.199361,3.236111,1.916834,-0.903474,0.632365
11281,7.566950,-3.418572,3.064512,1.203791,-0.479774,0.606796
11282,7.346086,-3.027687,3.651554,0.558860,0.082519,0.538919
11283,6.906531,-2.583556,4.190034,-0.095492,0.703280,0.457380
11284,6.299960,-2.926316,4.809824,-0.800992,1.325980,0.416132
11285,5.846348,-3.614202,5.738233,-1.551127,1.841116,0.413197
11286,5.753889,-4.663021,6.102630,-2.370480,2.228708,0.452058
11287,5.001046,-5.950685,4.045910,-3.120258,2.388199,0.505969
11288,3.342531,-7.837611,0.996099,-3.642798,2.231338,0.604581
11289,2.128718,-10.883185,0.639402,-3.544237,1.833579,0.663610
11290,1.909000,-14.596659,1.793498,-2.658648,1.209554,0.680783
11291,2.861231,-17.303681,3.015568,-1.123164,0.471804,0.699325
11292,4.580710,-17.429334,2.672208,0.580054,-0.170872,0.779324
11293,5.943364,-15.615641,2.215930,2.069842,-0.584585,0.874987
11294,6.398239,-12.330890,2.064365,3.029222,-0.873623,0.933882
11295,7.079320,-9.052600,2.416809,3.323823,-0.985189,0.966803
11296,7.459721,-5.992503,3.372773,3.018799,-0.861668,0.957073
11297,7.391546,-4.155123,4.038693,2.303189,-0.536338,0.932907
11298,6.841579,-3.711206,3.430906,1.463114,-0.090987,0.888116
11299,6.277964,-4.128809,3.619123,0.683039,0.395937,0.867000
11300,5.751640,-4.573109,4.008917,-0.082288,0.879436,0.826741
11301,5.134920,-4.646430,4.229065,-0.866968,1.248343,0.798621
11302,4.899668,-4.984448,4.740263,-1.671648,1.523583,0.792745
11303,4.231534,-6.320034,3.605973,-2.333590,1.616336,0.814001
11304,3.115937,-8.518476,1.477671,-2.620201,1.441256,0.874150
11305,2.124184,-11.334338,0.683830,-2.312743,1.083431,0.919673
11306,1.439185,-14.298240,0.782927,-1.311995,0.517138,0.925723
11307,1.996081,-15.748182,1.597314,0.186461,-0.114927,0.905865
11308,3.786144,-14.431510,2.593289,1.654971,-0.593711,0.900101
11309,4.818469,-11.443194,2.903034,2.580489,-0.876418,0.939537
11310,5.333080,-9.005651,3.573656,2.887312,-1.007132,1.001563
11311,5.801708,-8.217787,4.464213,2.820518,-0.909120,1.036781
11312,5.310772,-6.885050,4.802813,2.577638,-0.728762,0.997027
11313,4.687974,-5.195016,3.850104,2.169872,-0.478194,0.875437
11314,4.618922,-4.109334,3.282253,1.658642,-0.102345,0.784625
11315,4.561686,-4.057051,4.170328,0.981037,0.363342,0.724272
11316,4.557569,-4.638389,5.150774,0.215357,0.800402,0.636794
11317,4.265520,-5.025628,5.486812,-0.563549,1.150346,0.574223
11318,3.889052,-5.628632,5.710563,-1.353137,1.403828,0.564035
11319,3.391754,-7.388335,4.235908,-1.970581,1.468793,0.588979
11320,2.514435,-9.705193,2.507663,-2.136219,1.296955,0.647740
11321,1.541603,-12.089859,2.067899,-1.729908,0.959890,0.697961
11322,0.780558,-14.354201,1.866602,-0.806911,0.403295,0.737704
11323,1.481071,-15.590369,2.600441,0.511939,-0.184912,0.786148
11324,3.064605,-14.833225,3.270063,1.787424,-0.631702,0.862304
11325,3.963330,-12.282383,3.513987,2.660997,-0.906970,0.938784
11326,4.520598,-9.769743,4.008169,2.993640,-0.984483,1.001554
11327,4.957577,-8.268836,4.977043,2.905258,-0.824562,1.032528
11328,4.359778,-6.349447,5.057304,2.500743,-0.549665,0.992346
11329,3.895719,-4.195351,4.861071,1.891779,-0.205032,0.903713
11330,3.780534,-3.116455,5.598139,1.060381,0.313601,0.793397
11331,3.726919,-3.490224,6.724172,0.104591,0.865785,0.710061
11332,3.292655,-4.286689,6.429999,-0.860374,1.344842,0.653758
11333,2.907666,-5.254510,6.243660,-1.705468,1.703112,0.630415
11334,3.021421,-6.553684,6.101202,-2.438218,1.969230,0.623995
11335,2.537457,-7.944288,4.044906,-2.964224,2.049566,0.655892
11336,1.154073,-9.671109,1.912010,-3.192148,1.936447,0.740965
11337,-0.812026,-12.339617,1.381934,-2.910269,1.572168,0.788385
11338,-1.363812,-15.723320,1.853328,-1.858044,0.965389,0.838297
11339,-0.468772,-17.420477,2.367951,-0.280409,0.309606,0.911948
11340,0.985243,-16.189986,2.509472,1.244857,-0.229529,1.002892
11341,2.129696,-13.400863,2.750581,2.328245,-0.557448,1.070502
11342,2.671455,-10.471839,3.289951,2.839637,-0.716283,1.111297
11343,2.730433,-8.313242,3.461501,2.805721,-0.732450,1.137469
11344,2.282934,-6.878008,3.710491,2.453381,-0.631859,1.112709
11345,1.670675,-5.763859,3.977710,1.986711,-0.456985,1.048054
11346,1.677941,-5.210899,4.681831,1.504950,-0.189121,0.986027
11347,1.762829,-4.626535,5.983485,0.930668,0.201115,0.898895
11348,1.751444,-4.097411,7.063410,0.235530,0.617853,0.826465
11349,1.416186,-4.251931,6.602978,-0.628826,0.988441,0.758195
11350,1.089929,-5.397626,5.947723,-1.405450,1.244706,0.714632
11351,0.999594,-6.786619,5.781099,-2.018048,1.395557,0.683482
11352,0.890481,-8.395955,4.926923,-2.382491,1.448671,0.693706
11353,-0.014579,-9.559151,3.715811,-2.577329,1.373293,0.741383
11354,-1.211700,-11.235371,3.127411,-2.435733,1.110210,0.802442
11355,-2.119294,-13.327990,2.297853,-1.812190,0.649978,0.860778
11356,-2.077673,-14.944143,2.138548,-0.710616,0.115918,0.912405
11357,-1.349381,-15.169989,2.306775,0.584564,-0.381466,0.968837
11358,-0.642983,-13.580593,3.011614,1.756618,-0.758376,1.013280
11359,-0.516871,-11.159273,3.309296,2.498820,-1.024574,1.034288
11360,-0.233792,-9.594830,3.444208,2.791971,-1.168434,1.056732
11361,0.314577,-9.325640,4.256966,2.823158,-1.216378,1.071579
11362,0.766327,-9.188957,5.372097,2.724144,-1.161152,1.091109
11363,0.849457,-8.782466,6.438042,2.553428,-1.042718,1.106457
11364,0.789157,-6.672753,7.395029,2.364366,-0.828333,1.037104
11365,0.481098,-2.996029,6.496735,1.900249,-0.533316,0.904386
11366,0.032974,-0.386057,5.343816,1.124664,-0.130745,0.707067
11367,0.251398,-0.224596,5.756513,0.160788,0.313791,0.517954
11368,0.780129,-2.173418,6.988047,-0.802353,0.775318,0.385208
11369,0.829068,-4.188334,7.646291,-1.666376,1.150622,0.318799
11370,0.478895,-5.174529,7.435201,-2.524976,1.411802,0.307226
11371,-0.480618,-6.289172,5.391851,-3.327948,1.475010,0.367005
11372,-1.709833,-8.719912,3.159748,-3.765410,1.342060,0.471545
11373,-2.639187,-12.347561,3.176684,-3.507280,1.061528,0.552368
11374,-2.908715,-15.857781,4.632742,-2.309313,0.639817,0.533093
11375,-2.348721,-16.684936,4.849893,-0.609964,0.056436,0.520204
11376,-1.291459,-14.191628,4.321643,0.892949,-0.366583,0.589191
11377,-0.961818,-11.247449,3.930201,1.806997,-0.627759,0.660469
11378,-0.713450,-9.890170,4.189944,2.351033,-0.791031,0.659283
11379,-0.159410,-9.195476,5.294352,2.644322,-0.809478,0.660442
11380,-0.473719,-8.416654,6.100751,2.627333,-0.749930,0.669005
11381,-0.844280,-7.147048,5.497160,2.408127,-0.715470,0.599451
11382,-0.539891,-4.750380,4.128491,2.064120,-0.543321,0.469646
11383,-0.175791,-2.842627,3.501095,1.514072,-0.218662,0.358156
11384,0.150866,-2.189811,4.878903,0.806406,0.179909,0.227663
11385,0.670180,-1.860547,6.822414,-0.036713,0.656559,0.099220
11386,0.505011,-2.409270,7.358983,-0.999818,1.100288,0.024488
11387,-0.358130,-3.438692,6.820748,-1.970268,1.400571,0.001705
11388,-1.100322,-5.069247,5.835602,-2.850309,1.525619,0.029461
11389,-1.684483,-7.222834,4.143437,-3.495767,1.514457,0.107333
11390,-2.344146,-9.668479,3.468374,-3.702174,1.364630,0.200109
11391,-2.948973,-12.459764,3.712484,-3.330932,1.086025,0.265082
11392,-3.115789,-15.174348,3.912225,-2.219375,0.677165,0.311836
11393,-2.700261,-16.256934,3.656705,-0.587172,0.226360,0.365555
11394,-2.255080,-14.930635,2.936732,1.066976,-0.170530,0.407778
11395,-2.055169,-12.600233,2.757055,2.357389,-0.458602,0.429288
11396,-1.802206,-10.529088,2.999064,3.169211,-0.662730,0.429325
11397,-1.291090,-9.047056,3.940184,3.575893,-0.746114,0.455481
11398,-1.107288,-7.706789,4.937700,3.586931,-0.723545,0.493294
11399,-1.186207,-6.184663,5.376750,3.251593,-0.644192,0.470607
11400,-1.183052,-4.383955,4.657535,2.717498,-0.480240,0.366462
11401,-1.558128,-2.681970,3.778866,2.101317,-0.242025,0.244311
11402,-1.004525,-1.897342,4.184291,1.429261,0.045837,0.109727
11403,-0.432928,-1.343394,5.989567,0.697024,0.463277,-0.038654
11404,-0.492829,-1.343153,6.872516,-0.260323,0.820966,-0.127422
11405,-1.195117,-1.899980,6.998643,-1.358548,1.067190,-0.153528
11406,-1.689642,-3.187884,6.809189,-2.504761,1.190902,-0.113800
11407,-1.481741,-5.258634,6.243517,-3.465505,1.269162,-0.021743
11408,-1.364604,-7.287925,5.759339,-4.073303,1.312578,0.115091
11409,-1.841827,-8.285354,5.251527,-4.468222,1.284856,0.293337
11410,-3.102931,-10.529918,3.312995,-4.429888,1.077063,0.453490
11411,-4.063232,-13.957311,2.421557,-3.481044,0.780805,0.495158
11412,-4.422927,-16.517077,2.272368,-1.662034,0.367411,0.473927
11413,-3.754548,-16.757442,2.333139,0.541901,-0.062475,0.447606
11414,-2.852940,-14.337924,2.305096,2.501688,-0.418186,0.458845
11415,-2.360208,-11.107917,2.631815,3.796183,-0.641674,0.477627
11416,-2.161117,-8.640872,3.236421,4.403205,-0.737760,0.526745
11417,-2.260271,-6.903614,4.106447,4.487671,-0.795498,0.571265
11418,-2.108369,-4.807341,5.333530,4.172740,-0.752455,0.552052
11419,-2.002910,-2.079535,4.917406,3.437317,-0.611930,0.434318
11420,-1.704615,0.565102,4.089907,2.428520,-0.332718,0.292881
11421,-0.922614,1.687996,4.256316,1.227225,0.085725,0.151064
11422,-0.158856,1.346966,5.454283,-0.043471,0.586356,0.008334
11423,-0.161730,0.066805,6.232053,-1.325031,1.029719,-0.063270
11424,-0.853390,-0.696388,6.192629,-2.643037,1.334304,-0.058373
11425,-1.630894,-1.758971,5.224218,-4.048542,1.510872,0.023576
11426,-1.992114,-3.489795,3.932162,-5.344463,1.577665,0.189450
11427,-2.589530,-6.096669,2.399283,-6.261487,1.509734,0.392121
11428,-3.720608,-10.209571,1.137542,-6.301201,1.232279,0.541869
11429,-4.640005,-15.397552,0.914522,-4.992814,0.777318,0.571077
11430,-4.878729,-18.368241,1.220899,-2.536621,0.221401,0.539938
11431,-4.340625,-17.185768,0.909945,0.212415,-0.296622,0.477308
11432,-3.941951,-13.575809,0.870909,2.419295,-0.646142,0.396218
11433,-3.342361,-10.723710,1.840673,3.778382,-0.843962,0.361464
11434,-2.777263,-8.301387,3.503110,4.302265,-0.898809,0.404802
11435,-2.963732,-4.957739,4.927886,4.044154,-0.903091,0.384198
11436,-3.186698,-0.855638,4.398038,3.077778,-0.818632,0.201174
11437,-2.832095,1.210242,3.272265,1.737777,-0.452108,0.034615
11438,-2.334536,0.283087,3.969136,0.407287,0.067764,-0.099364
11439,-2.120812,-1.642314,5.532638,-0.721926,0.570464,-0.258369
11440,-2.017652,-2.643394,7.043047,-1.749321,1.026726,-0.375407
11441,-1.645183,-3.009640,7.807211,-2.945095,1.463428,-0.400242
11442,-0.559929,-3.951483,6.579523,-4.253107,1.808004,-0.341350
11443,-1.043980,-5.271637,3.639906,-5.477496,2.034584,-0.159334
11444,-4.305400,-8.021364,-1.210846,-6.262146,1.852731,0.044116
11445,-7.514913,-13.679149,-2.310600,-5.788107,1.405697,0.108384
11446,-8.727154,-19.990972,-0.625173,-3.798879,0.697527,0.121346
11447,-6.724671,-22.205008,-0.242278,-0.742006,-0.173333,0.141647
11448,-4.163773,-18.495210,-0.049176,2.226697,-0.765211,0.165178
11449,-3.218191,-13.046098,0.668863,4.140250,-1.126770,0.191884
11450,-2.467165,-9.593456,1.436397,4.950070,-1.300340,0.260070
11451,-2.443892,-6.967527,2.465170,4.970176,-1.311687,0.327038
11452,-3.094477,-3.992860,3.343779,4.341479,-1.228345,0.273261
11453,-3.373010,-1.615765,3.092108,3.221977,-1.033395,0.155175
11454,-3.480603,-1.074580,2.992054,1.936970,-0.698855,0.029697
11455,-2.825230,-2.158863,4.198896,0.780720,-0.299221,-0.136980
11456,-2.110380,-2.780412,6.086306,-0.206710,0.170639,-0.305960
11457,-2.268623,-3.300418,6.613368,-1.192540,0.587146,-0.414679
11458,-2.446831,-4.048285,5.911157,-2.157747,0.930692,-0.473605
11459,-2.761490,-5.813346,4.825405,-2.991215,1.197523,-0.478909
11460,-3.802510,-8.136552,2.007477,-3.507581,1.224529,-0.423354
11461,-5.598046,-11.399582,-0.046151,-3.340165,0.993351,-0.371165
11462,-6.481193,-14.671990,0.436544,-2.372696,0.602793,-0.347996
11463,-5.543315,-16.176495,1.987940,-0.849155,0.103254,-0.294233
11464,-3.985491,-15.132286,2.533468,0.725444,-0.373965,-0.201241
11465,-2.772423,-12.559421,2.485381,1.947419,-0.730000,-0.082350
11466,-2.413028,-10.143228,2.619523,2.662786,-0.951337,0.026640
11467,-2.353006,-8.373463,3.084139,2.935000,-1.057704,0.092536
11468,-2.680645,-6.484028,3.768186,2.806952,-1.074635,0.111952
11469,-2.828428,-4.769888,3.995273,2.335944,-0.987320,0.062694
11470,-2.787505,-4.008981,4.058567,1.650401,-0.741675,0.000498
11471,-2.658639,-3.958317,4.831820,0.946403,-0.389397,-0.100868
11472,-2.213353,-4.220250,5.448490,0.243380,0.038759,-0.239921
11473,-2.241699,-4.339760,5.930205,-0.435825,0.484500,-0.379001
11474,-2.687671,-4.573136,6.340360,-1.146622,0.875560,-0.485076
11475,-2.183693,-5.006073,6.095909,-1.880500,1.183611,-0.548532
11476,-2.135971,-5.698132,4.222932,-2.669179,1.404945,-0.546189
11477,-3.785678,-7.632808,1.014076,-3.242861,1.371113,-0.480074
11478,-5.396653,-10.572215,0.316745,-3.212061,1.142151,-0.429822
11479,-6.183175,-13.582232,0.550060,-2.467291,0.717894,-0.433387
11480,-6.154069,-15.588721,1.313437,-1.050357,0.149341,-0.440382
11481,-5.070421,-15.593464,1.926036,0.643158,-0.440495,-0.400431
11482,-3.663585,-13.519915,2.273293,2.098730,-0.919581,-0.342664
11483,-2.800282,-10.948714,2.539357,3.052418,-1.233389,-0.292667
11484,-2.407863,-8.398353,3.026775,3.482698,-1.433257,-0.278365
11485,-2.082845,-6.078210,3.754652,3.410284,-1.468365,-0.280024
11486,-2.135145,-4.897692,4.294867,2.904243,-1.294589,-0.324557
11487,-2.213747,-4.915593,4.462129,2.262185,-1.026959,-0.370938
11488,-1.877757,-5.316667,4.938339,1.645804,-0.651969,-0.466518
11489,-1.347501,-4.885539,5.970971,0.997841,-0.214383,-0.592494
11490,-1.302217,-3.797873,6.661721,0.150215,0.228161,-0.731523
11491,-1.481923,-3.356823,6.626766,-0.888722,0.631510,-0.831562
11492,-1.488822,-4.020334,5.885851,-1.992250,0.965451,-0.889587
11493,-2.251764,-6.340133,3.601011,-2.856339,1.134669,-0.889469
11494,-3.803052,-9.627512,1.646272,-3.087295,1.059026,-0.868582
11495,-4.931088,-12.721466,0.976247,-2.527659,0.743571,-0.867328
11496,-4.830075,-14.367080,1.262387,-1.367772,0.244070,-0.900106
11497,-3.677875,-14.146088,1.278315,-0.048692,-0.304957,-0.902714
11498,-2.452516,-13.107945,1.305066,1.099561,-0.787115,-0.862506
11499,-1.394549,-11.722805,1.955798,1.988171,-1.179428,-0.820886
11500,-0.873145,-9.890686,2.727133,2.514742,-1.446027,-0.771629
11501,-0.858835,-7.522931,3.623460,2.587101,-1.563689,-0.727035
11502,-0.842117,-5.904974,4.354550,2.272415,-1.538055,-0.719237
11503,-0.734426,-5.653306,4.404306,1.803715,-1.366064,-0.743193
11504,-0.652247,-5.934622,4.540636,1.384559,-1.082498,-0.788969
11505,-0.316366,-5.686394,5.293452,1.011098,-0.750407,-0.887600
11506,0.262371,-4.841147,6.615771,0.528040,-0.333867,-1.014379
11507,0.573644,-4.112424,7.340047,-0.136531,0.134181,-1.135180
11508,0.836401,-4.174389,7.106999,-0.939971,0.566509,-1.226499
11509,0.869107,-5.544573,5.569877,-1.719790,0.926869,-1.283801
11510,-0.040217,-7.712283,3.540219,-2.234162,1.064910,-1.281808
11511,-1.260610,-9.922430,2.518468,-2.387840,1.005482,-1.236155
11512,-2.209676,-12.615467,1.835727,-2.071626,0.704178,-1.181747
11513,-2.527343,-15.423397,2.136472,-1.094066,0.228994,-1.140181
11514,-2.172357,-15.974133,2.859963,0.309826,-0.354183,-1.093811
11515,-0.870415,-14.294334,3.490921,1.577436,-0.893695,-1.003019
11516,0.229981,-12.089520,4.173836,2.365467,-1.249786,-0.868388
11517,0.574433,-9.939314,4.723516,2.646864,-1.468797,-0.750752
11518,0.696116,-7.925216,5.054697,2.509315,-1.530507,-0.688070
11519,0.952718,-6.776711,5.225578,2.083711,-1.404886,-0.694892
11520,1.195108,-6.688441,5.362122,1.551212,-1.125291,-0.726711
11521,1.138667,-6.326569,6.151258,1.021257,-0.731322,-0.809399
11522,1.029344,-5.187471,6.968450,0.377116,-0.260795,-0.938913
11523,0.808076,-4.148112,7.317966,-0.440132,0.266070,-1.095257
11524,0.039267,-3.909529,6.857788,-1.352719,0.713165,-1.234601
11525,-0.551338,-4.792275,6.069641,-2.209755,1.035182,-1.345018
11526,-1.245927,-6.858442,4.054528,-2.818563,1.187496,-1.413417
11527,-2.590658,-9.300045,1.580788,-2.995991,1.065617,-1.440583
11528,-3.638138,-11.434481,1.197523,-2.651319,0.771187,-1.490837
11529,-3.798833,-13.263232,1.889338,-1.793138,0.343005,-1.581494
11530,-2.813621,-13.908551,2.786739,-0.599638,-0.212984,-1.655050
11531,-0.987687,-13.256387,3.357830,0.495884,-0.728052,-1.651826
11532,0.374519,-12.273017,2.908012,1.164167,-1.160854,-1.577865
11533,1.620272,-11.477116,2.547209,1.486839,-1.552403,-1.465588
11534,3.019825,-9.896781,3.673421,1.562629,-1.750210,-1.388038
11535,3.544865,-7.426364,4.706178,1.288509,-1.744769,-1.367867
11536,3.233156,-5.525394,5.018838,0.805810,-1.552729,-1.338747
11537,2.451020,-4.720284,4.578329,0.160485,-1.216997,-1.326531
11538,2.243899,-5.451617,4.293917,-0.513170,-0.811605,-1.341570
11539,2.506085,-6.455263,5.174129,-1.116043,-0.311093,-1.391803
11540,2.639840,-6.734293,6.081491,-1.672433,0.189171,-1.467101
11541,2.714821,-7.054719,6.127426,-2.202737,0.655749,-1.538881
11542,2.723868,-8.401256,4.911885,-2.576067,0.990805,-1.569242
11543,3.073907,-9.734104,3.440319,-2.755454,1.151075,-1.536865
11544,3.055533,-11.230920,1.809910,-2.759477,1.121928,-1.463852
11545,2.630659,-12.610338,0.879834,-2.588910,0.930937,-1.361380
11546,2.201166,-13.756843,0.835223,-2.133096,0.557278,-1.284438
11547,2.335646,-15.321068,1.653359,-1.278395,0.073102,-1.178278
11548,3.153078,-15.904892,2.734502,-0.022064,-0.485957,-1.050683
11549,4.639957,-14.667268,3.687989,1.203694,-0.944231,-0.885312
11550,5.262676,-14.124673,3.530510,2.090336,-1.138082,-0.663660
11551,4.778111,-12.639368,2.840614,2.632168,-1.335316,-0.472060
11552,4.583099,-9.562625,2.904552,2.743748,-1.480180,-0.353184
11553,4.446533,-6.540285,3.083946,2.379065,-1.485358,-0.304704
11554,4.485771,-4.254031,4.185787,1.710049,-1.315388,-0.336806
11555,4.040729,-4.302660,4.124850,0.868213,-1.005311,-0.389190
11556,3.777843,-5.750998,3.883593,0.234018,-0.578689,-0.457433
11557,3.303155,-6.615681,3.764812,-0.189096,-0.130054,-0.528648
11558,2.957048,-6.613259,3.537978,-0.471485,0.269583,-0.660414
11559,2.542214,-6.080338,4.002727,-0.768080,0.580248,-0.776220
11560,2.506070,-6.016277,4.488583,-1.184026,0.765363,-0.848611
11561,2.552387,-6.575341,3.575072,-1.668001,0.736744,-0.890840
11562,2.667276,-8.426457,2.226740,-1.926806,0.574666,-0.894984
11563,3.110224,-10.926766,2.339256,-1.695704,0.340897,-0.882676
11564,3.910913,-12.001681,3.640304,-1.045782,0.084170,-0.892643
11565,4.733171,-11.840965,4.653076,-0.167314,-0.221867,-0.883912
11566,5.745171,-10.941027,4.995158,0.635266,-0.514201,-0.802405
11567,6.186444,-10.032549,4.676389,1.154857,-0.682959,-0.679816
11568,5.604104,-9.115262,3.593434,1.449364,-0.815049,-0.598292
11569,4.996523,-8.123457,2.619240,1.611410,-0.944847,-0.565603
11570,4.301600,-6.793163,1.800118,1.661302,-1.081776,-0.632967
11571,3.647496,-5.146677,1.363974,1.626367,-1.244564,-0.791533
11572,4.167127,-4.122232,2.695397,1.452458,-1.256727,-0.968804
11573,4.755022,-4.131001,4.339352,1.121392,-1.033706,-1.167329
11574,4.632848,-4.368899,4.640981,0.720013,-0.737711,-1.350770
11575,4.428324,-3.456917,4.081112,0.347825,-0.423977,-1.565756
11576,3.963317,-2.194220,3.553561,-0.114856,-0.072184,-1.844189
11577,3.832691,-1.633857,3.169883,-0.709209,0.193104,-2.109139
11578,4.718586,-2.882488,3.167135,-1.324160,0.378131,-2.315023
11579,6.209119,-6.710107,3.106672,-1.627357,0.489904,-2.391499
11580,7.283436,-10.611640,2.606920,-1.354386,0.424657,-2.362233
11581,8.209900,-12.828901,2.714082,-0.543501,0.234202,-2.257914
11582,8.836021,-12.807660,3.775200,0.463746,-0.023709,-2.050618
11583,9.491019,-12.019278,3.812171,1.306051,-0.361905,-1.682102
11584,9.836959,-11.130511,3.210936,1.953098,-0.680065,-1.242795
11585,9.821501,-8.954755,3.162507,2.355375,-0.920382,-0.892285
11586,9.608110,-6.404993,2.960705,2.328756,-1.029802,-0.641998
11587,8.673157,-3.638759,2.435561,1.940567,-1.055452,-0.505959
11588,7.165331,-1.200424,1.751536,1.291460,-1.081326,-0.576602
11589,6.173732,-1.044649,1.360591,0.593872,-1.087312,-0.743360
11590,6.608278,-2.678894,2.365443,0.070227,-1.041903,-0.924808
11591,7.578951,-4.227222,3.817299,-0.300599,-0.824864,-1.119757
11592,7.422231,-4.236846,3.548598,-0.717832,-0.570135,-1.282940
11593,7.112398,-2.487539,2.717247,-1.192451,-0.309194,-1.471186
11594,6.665459,-0.720392,1.723219,-1.823475,-0.053998,-1.721797
11595,6.415907,-0.334602,1.755540,-2.440674,0.108839,-1.949226
11596,7.243398,-1.124390,2.788867,-3.005165,0.220325,-2.088114
11597,8.523523,-2.065792,3.752692,-3.574433,0.338639,-2.131679
11598,9.852330,-2.258937,4.359305,-4.222889,0.488181,-2.108054
11599,10.466643,-2.320327,3.505896,-5.043133,0.662600,-1.997527
11600,10.729035,-2.661368,1.811049,-5.819605,0.830973,-1.879436
11601,10.484145,-3.625167,0.113295,-6.360209,0.952363,-1.788780
11602,10.210651,-6.495171,-1.213979,-6.310653,0.995705,-1.778710
11603,9.881292,-11.050234,-1.420677,-5.350226,0.950283,-1.844095
11604,9.548986,-15.922493,-0.701633,-3.350977,0.769494,-1.941536
11605,8.858782,-16.609531,0.504446,-0.920316,0.502279,-2.007651
11606,8.717445,-12.369554,1.268796,0.986465,0.178827,-1.976930
11607,8.946543,-8.319930,1.314251,1.927200,-0.074548,-1.845463
11608,9.283851,-6.349059,1.263430,2.251179,-0.240148,-1.697442
11609,9.458869,-4.486020,1.791090,2.220080,-0.308555,-1.547601
11610,9.515161,-2.370740,2.546842,1.807191,-0.273355,-1.430503
11611,9.634414,-0.591767,2.256869,1.042284,-0.209631,-1.336903
11612,9.379005,0.034650,1.440241,0.117744,-0.114590,-1.288176
11613,9.215590,-0.202246,0.387738,-0.749284,-0.061666,-1.290166
11614,9.120115,-1.758859,-0.888139,-1.363909,-0.025699,-1.299328
11615,9.342171,-3.310235,-1.493987,-1.661837,0.013668,-1.304603
11616,9.343223,-4.589513,-2.003968,-1.626151,0.049616,-1.300161
11617,9.218342,-5.699492,-1.919023,-1.226639,0.012917,-1.247772
11618,9.437089,-5.028149,-0.673242,-0.727063,-0.019405,-1.205552
11619,9.553422,-3.995513,0.829211,-0.407299,-0.028102,-1.179666
11620,9.819324,-4.021701,2.529635,-0.238277,0.001372,-1.141586
11621,9.828500,-4.778865,4.239184,-0.127634,0.060402,-1.082141
11622,9.476240,-5.790595,5.074971,0.077774,0.055467,-1.020045
11623,9.661266,-5.844970,5.681285,0.391105,0.043649,-1.017142
11624,9.628688,-4.744379,5.973825,0.485299,-0.002416,-0.979488
11625,9.946611,-4.217889,5.392550,0.283921,-0.002662,-0.862494
11626,9.907054,-4.366524,4.407114,0.055845,0.051743,-0.778213
11627,9.796700,-4.314482,3.326010,-0.094479,0.094637,-0.737547
11628,9.731145,-3.806848,2.529751,-0.169920,0.127346,-0.703085
11629,9.655896,-3.233850,1.899708,-0.205699,0.157299,-0.672789
11630,9.689827,-2.167916,1.392152,-0.284899,0.163992,-0.649953
11631,9.762870,-0.739846,1.021436,-0.495495,0.185055,-0.636448
11632,9.843055,-0.114221,0.425918,-0.818813,0.213628,-0.632397
11633,9.697833,-0.573710,0.064785,-1.088792,0.249350,-0.622753
11634,9.561577,-1.879338,-0.238418,-1.152769,0.274253,-0.600539
11635,9.218784,-3.531121,-0.323439,-0.963247,0.264618,-0.574028
11636,9.107520,-4.451382,-0.090853,-0.569870,0.212088,-0.528496
11637,9.114970,-4.553213,0.217885,-0.129493,0.149778,-0.476541
11638,9.264660,-4.612651,0.585836,0.306664,0.094743,-0.424223
11639,9.356891,-4.619681,1.080191,0.751835,0.039013,-0.375758
11640,9.408673,-4.333961,1.804588,1.135335,0.005386,-0.329795
11641,9.608814,-3.234898,2.273422,1.346868,-0.010596,-0.284359
11642,9.841539,-1.923369,2.398647,1.287009,-0.020352,-0.227086
11643,9.898537,-1.149235,2.581961,1.030778,0.004950,-0.183937
11644,9.751708,-1.188593,2.529499,0.702742,0.034030,-0.146678
11645,9.674790,-1.668201,2.401008,0.423234,0.043506,-0.114175
11646,9.572581,-2.379282,2.026750,0.235654,0.043082,-0.070555
11647,9.590336,-2.777986,1.649350,0.185453,0.027278,-0.027378
11648,9.536915,-2.484522,1.426767,0.162299,0.012981,0.012863
11649,9.615962,-1.826123,1.216505,0.079882,0.006201,0.052111
11650,9.642393,-1.598225,1.010506,-0.049521,0.011499,0.075207
11651,9.541769,-1.706649,0.933378,-0.161141,0.018547,0.089239
11652,9.426798,-2.024919,0.808958,-0.221421,0.014139,0.087701
11653,9.550567,-2.367601,0.877177,-0.207276,-0.000796,0.084396
11654,9.673475,-2.660328,0.911046,-0.151157,-0.012105,0.087673
11655,9.682327,-2.818509,1.080601,-0.065645,-0.023126,0.095726
11656,9.727943,-2.647743,1.283690,0.016292,-0.035558,0.126198
11657,9.742151,-2.262503,1.399542,0.050171,-0.045210,0.145297
11658,9.789851,-1.884746,1.596185,0.044749,-0.051341,0.155125
11659,9.776504,-1.859758,1.708920,0.012382,-0.050944,0.170624
11660,9.699289,-1.893919,1.769049,-0.001800,-0.052248,0.177649
11661,9.607680,-2.027036,1.841636,0.010112,-0.053371,0.178064
11662,9.616747,-2.154797,1.830954,0.052034,-0.052361,0.181004
11663,9.683501,-2.037122,1.868825,0.093418,-0.050406,0.180053
11664,9.682909,-1.872245,1.813732,0.111046,-0.048694,0.172807
11665,9.678943,-1.916915,1.766090,0.113387,-0.035740,0.174731
11666,9.652535,-1.952473,1.714307,0.130580,-0.036178,0.167731
11667,9.687614,-1.989976,1.623727,0.164781,-0.031881,0.166115
11668,9.700962,-2.087995,1.640562,0.208726,-0.033880,0.165532
11669,9.681420,-2.065165,1.658906,0.258805,-0.031374,0.168098
11670,9.688238,-1.940659,1.740814,0.289626,-0.027964,0.177310
11671,9.681192,-1.631947,1.738816,0.280087,-0.024729,0.179953
11672,9.615591,-1.354686,1.705785,0.223251,-0.016852,0.177235
11673,9.635620,-1.376814,1.712180,0.142324,-0.008380,0.161137
11674,9.648593,-1.608240,1.729549,0.084013,0.007738,0.144601
11675,9.564667,-1.860134,1.660547,0.063080,0.009051,0.134670
11676,9.533526,-2.022597,1.634955,0.070251,0.012464,0.125053
11677,9.461274,-2.086163,1.610777,0.096412,0.006280,0.128225
11678,9.491642,-2.033799,1.582461,0.132547,0.001946,0.123942
11679,9.535315,-1.794147,1.597637,0.155073,-0.001472,0.124749
11680,9.590819,-1.483366,1.575258,0.117891,-0.003718,0.126085
11681,9.661729,-1.427453,1.500189,0.041654,0.000439,0.120319
11682,9.615887,-1.589258,1.420960,-0.024211,0.005694,0.112791
11683,9.547023,-1.893172,1.413882,-0.046445,-0.001993,0.096886
11684,9.621529,-2.095581,1.435306,-0.028221,-0.007210,0.092415
11685,9.568015,-2.161643,1.436346,0.011198,-0.016765,0.088957
11686,9.538904,-2.205413,1.487812,0.057665,-0.020510,0.093978
11687,9.534412,-2.141502,1.397721,0.095867,-0.033972,0.094688
11688,9.549130,-2.100450,1.415080,0.124127,-0.040738,0.097904
11689,9.510835,-2.080882,1.503476,0.140827,-0.043894,0.102209
11690,9.538422,-1.986591,1.562725,0.147897,-0.046304,0.104394
11691,9.543498,-1.967567,1.582000,0.143704,-0.051062,0.103069
11692,9.502016,-2.063168,1.590826,0.139901,-0.050696,0.097351
11693,9.521579,-2.266311,1.605385,0.156610,-0.053643,0.090558
11694,9.542369,-2.281467,1.609172,0.182826,-0.057191,0.087610
11695,9.538907,-2.197217,1.665395,0.192153,-0.054587,0.089021
11696,9.519901,-2.095683,1.589960,0.183492,-0.049623,0.086215
11697,9.532607,-2.084100,1.562174,0.166984,-0.052442,0.090003
11698,9.555428,-2.189623,1.509110,0.170986,-0.052967,0.093653
11699,9.554025,-2.334504,1.486087,0.195037,-0.058956,0.096426
11700,9.549140,-2.335720,1.508779,0.232303,-0.065540,0.099318
11701,9.585045,-2.211866,1.586830,0.257680,-0.070723,0.101841
11702,9.625421,-1.954103,1.661197,0.240289,-0.069225,0.101282
11703,9.651437,-1.734979,1.614035,0.164037,-0.056019,0.102477
11704,9.584949,-1.713983,1.595514,0.085806,-0.045381,0.095053
11705,9.509515,-1.960349,1.583671,0.022331,-0.034896,0.084116
11706,9.504927,-2.192153,1.528599,0.018351,-0.034380,0.080343
11707,9.547277,-2.410247,1.528267,0.055644,-0.038292,0.077307
11708,9.513887,-2.428394,1.524449,0.114765,-0.044865,0.072838
11709,9.547733,-2.334912,1.557072,0.166969,-0.049217,0.064292
11710,9.595941,-2.185998,1.630588,0.189465,-0.044334,0.061572
11711,9.592348,-2.029020,1.593756,0.167476,-0.041389,0.053710
11712,9.554315,-1.932154,1.590475,0.136974,-0.033724,0.052488
11713,9.512114,-2.022253,1.603944,0.096432,-0.027533,0.047918
11714,9.522495,-2.094592,1.545048,0.076080,-0.021477,0.041514
11715,9.528013,-2.262369,1.558347,0.073840,-0.020816,0.043221
11716,9.518128,-2.431471,1.519848,0.096411,-0.018930,0.044628
11717,9.511629,-2.476144,1.580344,0.139724,-0.023726,0.046965
11718,9.513878,-2.392264,1.612703,0.175866,-0.025879,0.048861
11719,9.554856,-2.215706,1.653757,0.179403,-0.028470,0.052798
11720,9.535442,-2.122441,1.680145,0.158773,-0.024721,0.055885
11721,9.533104,-2.111252,1.601174,0.120984,-0.022724,0.059418
11722,9.499815,-2.219222,1.546170,0.093970,-0.017574,0.062400
11723,9.478387,-2.320058,1.567103,0.089363,-0.018950,0.060794
11724,9.510155,-2.457070,1.528564,0.104527,-0.016958,0.058468
