// Start Time: Unknown
// Update Rate: 100.0Hz
// Filter Profile: human (46.1)
// Firmware Version: 4.3.5
PacketCounter,Acc_X,Acc_Y,Acc_Z,Gyr_X,Gyr_Y,Gyr_Z
50046,8.441709,-3.940721,1.183470,-0.146847,0.032164,0.359189
50047,8.641075,-3.589218,1.007646,0.042768,-0.025593,0.304400
50048,9.047497,-3.481963,0.994618,0.031192,-0.038482,0.286279
50049,9.195449,-3.735642,0.536307,0.042416,-0.053484,0.284492
50050,9.318438,-3.605940,0.296948,0.160070,-0.091127,0.281018
50051,9.445116,-3.320673,0.049909,0.206128,-0.111492,0.271876
50052,9.581917,-3.004056,0.154182,0.212951,-0.098166,0.265647
50053,9.607444,-3.135539,0.504317,0.079914,-0.043882,0.286263
50054,9.529154,-3.572067,0.694335,0.028396,-0.005702,0.303059
50055,9.429500,-4.091266,0.784026,-0.021026,0.023050,0.324996
50056,9.289885,-4.466391,0.762406,0.033035,0.051400,0.323003
50057,9.166145,-4.581824,0.784058,0.156502,0.048352,0.305656
50058,8.986156,-4.311580,0.773226,0.253817,0.036858,0.287271
50059,8.712938,-3.883993,0.828370,0.284959,0.035865,0.241172
50060,8.596846,-3.677054,0.867560,0.221530,0.007450,0.207916
50061,8.772705,-3.797097,0.859603,0.169423,-0.027796,0.180351
50062,9.141027,-4.159288,0.795358,0.139357,-0.047466,0.183192
50063,9.474313,-4.493344,0.830419,0.147316,-0.034526,0.206453
50064,9.671080,-4.479988,0.762245,0.198796,-0.009530,0.257836
50065,9.677238,-4.272810,0.511735,0.192528,0.028995,0.325182
50066,9.524068,-3.932470,0.285649,0.143096,0.068746,0.399260
50067,9.377434,-3.660118,0.334056,0.030388,0.115196,0.468848
50068,9.143164,-3.481343,0.550032,-0.080797,0.148942,0.508470
50069,8.888091,-3.582234,0.859103,-0.210921,0.154718,0.504438
50070,8.752789,-3.945881,1.144557,-0.302569,0.152107,0.491071
50071,8.669631,-4.456944,1.165182,-0.332243,0.123951,0.480006
50072,8.579601,-4.697865,1.022695,-0.208729,0.081076,0.442400
50073,8.431791,-4.544917,0.836136,0.070655,0.005917,0.378316
50074,8.519810,-4.001727,1.113005,0.285132,-0.023306,0.306985
50075,8.534760,-3.701026,1.266595,0.285758,-0.008894,0.254348
50076,8.336284,-3.449633,0.993276,0.308817,-0.015710,0.164067
50077,8.380411,-3.148675,0.490874,0.294688,-0.044485,0.100287
50078,8.651012,-3.113641,0.244393,0.128072,-0.009215,0.088556
50079,9.072228,-3.408340,0.157982,-0.068783,0.078355,0.124265
50080,9.327820,-3.571938,0.495474,-0.099045,0.163375,0.165695
50081,9.162071,-3.609793,0.873974,-0.202347,0.239696,0.224069
50082,8.832995,-3.946287,1.045205,-0.337066,0.282220,0.265139
50083,8.538168,-4.617795,1.239826,-0.355859,0.302562,0.260128
50084,8.260630,-5.568991,1.083193,-0.326245,0.304116,0.249013
50085,8.201303,-6.413788,0.639144,-0.080898,0.224201,0.192290
50086,8.572056,-6.446411,0.403599,0.604804,0.037584,0.165570
50087,9.252449,-5.455619,0.826811,0.989781,-0.077151,0.192994
50088,9.724766,-4.541610,0.934524,0.802187,-0.064254,0.254119
50089,9.736112,-3.998437,0.408690,0.510667,-0.053540,0.312463
50090,9.745872,-4.064038,0.135825,0.156380,0.029120,0.411878
50091,9.352898,-4.489515,0.271974,-0.090172,0.155458,0.479635
50092,8.689860,-4.616886,0.711270,-0.080111,0.207852,0.498931
50093,8.388234,-4.676000,1.175289,-0.157832,0.247200,0.515661
50094,8.377999,-4.906737,1.565699,-0.310669,0.280532,0.523007
50095,8.398075,-5.362238,1.579043,-0.404086,0.270024,0.524681
50096,8.323818,-5.836117,1.404670,-0.310689,0.221090,0.520724
50097,8.307584,-6.207167,1.178987,-0.085449,0.135047,0.511151
50098,8.568393,-6.516674,1.215983,0.149211,0.073133,0.529907
50099,8.627855,-6.313750,0.750268,0.436078,-0.012572,0.551234
50100,8.870457,-5.655226,0.345140,0.603880,-0.108160,0.581890
50101,9.236094,-5.191433,0.299735,0.548087,-0.084579,0.666473
50102,9.235398,-4.918920,0.910497,0.328108,0.026514,0.727022
50103,8.834605,-4.929846,1.267177,0.136086,0.111262,0.773205
50104,8.435912,-4.942209,1.808195,-0.024423,0.172798,0.793550
50105,8.212887,-5.033703,1.991616,-0.215101,0.226646,0.800776
50106,8.072934,-5.069096,2.051766,-0.345783,0.277910,0.775318
50107,7.812803,-5.285902,1.847771,-0.501456,0.318461,0.754465
50108,7.655137,-5.781213,1.561741,-0.599206,0.327341,0.727240
50109,7.831094,-6.350654,1.518402,-0.520376,0.282520,0.718034
50110,7.963878,-6.742025,1.208550,-0.333697,0.204193,0.709921
50111,8.052628,-6.716289,0.530232,-0.093693,0.077828,0.718556
50112,8.586277,-6.579109,0.553403,0.037060,0.035051,0.798269
50113,9.035949,-6.687525,0.951706,-0.036855,0.084571,0.931976
50114,9.220592,-6.855608,1.211314,-0.159873,0.134686,1.088888
50115,9.014097,-6.780184,1.506121,-0.217101,0.211548,1.170217
50116,8.173212,-6.565756,1.836904,-0.228638,0.284167,1.157887
50117,7.056293,-6.672614,1.606246,-0.322466,0.332718,1.138117
50118,6.454497,-6.876244,1.436209,-0.334804,0.298717,1.087157
50119,6.506333,-7.037199,1.324937,-0.224690,0.223350,1.042456
50120,6.760361,-6.822260,1.442468,-0.135151,0.183162,1.039125
50121,6.793544,-6.542775,1.366340,-0.230239,0.169951,1.046417
50122,6.796678,-6.653749,1.224073,-0.332493,0.151758,1.079325
50123,6.777323,-6.937779,0.966795,-0.409563,0.130822,1.128060
50124,6.902859,-7.265877,0.957692,-0.459976,0.120590,1.192079
50125,7.034652,-7.525884,1.039545,-0.471269,0.124507,1.278851
50126,7.167621,-7.614456,1.524138,-0.495282,0.164647,1.342312
50127,6.947252,-7.753395,1.775645,-0.475381,0.239311,1.364692
50128,6.347748,-7.927102,1.594930,-0.425849,0.290342,1.360385
50129,5.907027,-8.194841,1.080571,-0.351324,0.295537,1.336240
50130,5.675382,-8.460721,0.682060,-0.163464,0.252638,1.295821
50131,5.792023,-8.489186,0.710008,0.118641,0.181273,1.234472
50132,5.943517,-8.131495,0.824285,0.327313,0.128844,1.172196
50133,6.009215,-7.746014,0.996995,0.475310,0.098081,1.103511
50134,5.782027,-7.240974,0.876332,0.549208,0.097810,1.042987
50135,5.566923,-6.986231,0.763659,0.505682,0.106774,0.999516
50136,5.567343,-7.235742,0.613311,0.397184,0.130512,0.981791
50137,5.886386,-7.654216,0.907739,0.331316,0.139831,0.988591
50138,5.958431,-7.972571,1.122879,0.335170,0.152592,0.984324
50139,5.520612,-8.124527,1.063151,0.480684,0.160533,0.927961
50140,4.872234,-7.853333,1.254478,0.690646,0.156807,0.843687
50141,4.269816,-7.365226,1.280156,0.868264,0.137399,0.721194
50142,4.040290,-6.999662,1.255246,0.886669,0.122561,0.621285
50143,4.254464,-6.686432,1.364342,0.814198,0.110853,0.549499
50144,4.608144,-6.455106,1.420877,0.641466,0.119783,0.497741
50145,5.023732,-6.625011,1.631854,0.312336,0.147002,0.475536
50146,5.306153,-7.484042,1.212360,0.077781,0.159609,0.457938
50147,5.400927,-8.217064,0.965861,0.073938,0.153438,0.430182
50148,5.509729,-8.669914,1.074376,0.239951,0.123214,0.406835
50149,5.710065,-8.622102,1.180183,0.447899,0.106192,0.414451
50150,5.744133,-8.149051,1.293136,0.532465,0.100745,0.404865
50151,5.737457,-7.866900,1.260001,0.530696,0.134449,0.397218
50152,5.623379,-7.620478,1.357509,0.459668,0.150771,0.389397
50153,5.546506,-7.497691,1.359896,0.386277,0.147948,0.363179
50154,5.511072,-7.331811,1.183749,0.285662,0.119761,0.340538
50155,5.698874,-7.249179,1.353442,0.170196,0.109590,0.330369
50156,5.882967,-7.236317,1.706139,0.009406,0.119538,0.335747
50157,6.101500,-7.480678,1.920543,-0.154703,0.134375,0.331859
50158,6.146294,-7.918707,1.965896,-0.240329,0.155887,0.326719
50159,5.859521,-8.279144,1.761906,-0.151680,0.154679,0.302152
50160,5.435362,-8.447910,1.568338,0.014533,0.127879,0.261738
50161,5.154150,-8.423397,1.181142,0.212765,0.050749,0.212077
50162,5.183384,-8.119821,1.178813,0.407395,-0.014279,0.174463
50163,5.383016,-7.714086,1.562444,0.485755,-0.041993,0.161819
50164,5.592146,-7.462779,2.013060,0.446586,-0.044540,0.167926
50165,5.617256,-7.561218,2.184244,0.313961,-0.020457,0.189467
50166,5.367394,-7.837959,2.045290,0.259468,0.001875,0.184798
50167,5.011470,-8.033362,1.794527,0.283965,-0.013223,0.166880
50168,4.702392,-8.130602,1.538649,0.393862,-0.062809,0.128685
50169,4.542342,-8.033910,1.492983,0.559623,-0.143386,0.070300
50170,4.646009,-7.696194,1.690783,0.695781,-0.215698,0.021673
50171,4.886016,-7.560243,1.876033,0.672378,-0.233325,0.007927
50172,5.194837,-7.559073,2.014769,0.655350,-0.227563,0.006506
50173,5.312199,-7.565420,2.166039,0.555456,-0.186249,0.012511
50174,5.213761,-7.718946,2.071299,0.495372,-0.158743,0.006746
50175,4.928667,-7.711771,2.014248,0.478496,-0.159866,-0.004843
50176,5.134171,-7.587750,2.168980,0.474077,-0.175261,-0.029732
50177,5.667600,-7.434730,2.573160,0.460133,-0.174790,-0.048508
50178,6.147681,-7.314312,3.160715,0.373725,-0.125850,-0.058066
50179,6.184616,-7.507487,3.368499,0.258075,-0.074307,-0.041262
50180,5.949678,-7.949853,3.269721,0.199824,-0.048179,-0.033828
50181,5.740314,-8.436887,3.141369,0.239351,-0.051725,-0.021220
50182,5.442991,-8.799883,2.538524,0.418696,-0.098441,-0.022116
50183,5.322887,-8.689795,2.268582,0.726397,-0.202523,-0.032077
50184,5.249487,-8.095726,2.559655,0.852280,-0.285818,-0.020500
50185,5.571674,-7.954150,2.956821,0.794934,-0.359157,0.036552
50186,6.275572,-8.051186,3.587478,0.723270,-0.336240,0.091920
50187,7.128555,-8.114676,3.980618,0.637788,-0.257947,0.181794
50188,7.236254,-8.062829,3.930407,0.292156,-0.175507,0.359123
50189,7.764169,-8.808213,3.664981,-0.134897,-0.126853,0.552492
50190,8.097764,-10.279150,2.934463,-0.506134,-0.013990,0.779649
50191,8.007761,-11.711029,2.520558,-0.566903,0.105685,1.046663
50192,7.160449,-12.713231,1.869337,-0.383587,0.064289,1.317989
50193,6.599003,-12.861270,2.280517,0.062877,0.008610,1.507840
50194,5.587297,-11.725005,2.906524,0.360678,-0.027866,1.621590
50195,4.361850,-10.308817,3.604569,0.506617,-0.072553,1.663416
50196,3.334765,-9.181505,4.369769,0.553029,-0.113610,1.600655
50197,2.360270,-8.913373,4.286469,0.536206,-0.156180,1.495724
50198,1.907601,-9.173290,4.197599,0.664123,-0.244417,1.382239
50199,2.340581,-9.216577,4.094185,0.860763,-0.342702,1.271812
50200,3.037311,-8.989151,3.656942,0.927935,-0.378779,1.205798
50201,3.576873,-8.790235,3.219642,0.909030,-0.408029,1.195194
50202,4.514887,-9.248842,3.038542,0.723778,-0.360729,1.262948
50203,5.052203,-10.194699,2.936500,0.556095,-0.271565,1.406915
50204,5.268826,-10.513243,3.055585,0.540765,-0.209873,1.549116
50205,4.744772,-10.257740,3.696888,0.539590,-0.110408,1.646277
50206,3.608450,-10.119296,3.911849,0.498906,-0.009325,1.722631
50207,2.554705,-9.967829,3.688523,0.561339,0.002026,1.758260
50208,1.942975,-9.527094,3.655055,0.608176,-0.010814,1.746080
50209,1.808816,-8.889969,3.743515,0.515306,-0.046128,1.737807
50210,2.100048,-8.174240,3.947188,0.416304,-0.076408,1.707497
50211,1.845617,-7.748642,4.033536,0.295594,-0.057050,1.610689
50212,1.025056,-8.219416,3.585494,0.249600,-0.079534,1.505800
50213,0.997899,-9.386884,3.481880,0.395702,-0.131004,1.446442
50214,1.777920,-10.304533,3.302488,0.616312,-0.183819,1.452547
50215,2.817141,-10.213749,3.621020,0.802017,-0.201649,1.501300
50216,3.347861,-9.916147,4.102601,0.609061,-0.130425,1.590005
50217,3.119303,-9.794886,4.306958,0.411904,-0.056025,1.694172
50218,2.204058,-9.638059,4.301022,0.330792,0.018361,1.739537
50219,0.884564,-9.535149,3.971059,0.381170,0.049070,1.739278
50220,-0.173702,-9.386460,3.831818,0.516927,0.031789,1.705822
50221,-0.708107,-9.171842,3.891740,0.594344,-0.023530,1.672942
50222,-0.211549,-9.000420,4.171673,0.543786,-0.101412,1.656721
50223,0.822396,-9.026188,4.513760,0.339035,-0.105952,1.672383
50224,1.297255,-9.185287,4.492478,0.210490,-0.075138,1.690596
50225,0.899918,-9.495134,4.357667,0.245703,-0.038145,1.715989
50226,0.001200,-9.679484,4.318959,0.408529,-0.049212,1.717413
50227,-0.640717,-10.197334,4.175384,0.461459,-0.088142,1.760659
50228,-0.750249,-10.603816,4.476880,0.594231,-0.144132,1.800315
50229,-0.578922,-10.832308,4.945150,0.621958,-0.178808,1.873452
50230,-0.264197,-10.877575,5.142548,0.534551,-0.184531,1.981142
50231,-0.025531,-10.896660,4.965066,0.260607,-0.175274,2.122265
50232,0.106197,-10.886487,4.299885,-0.115233,-0.155977,2.325769
50233,-0.457243,-10.339389,4.057791,-0.382256,-0.097436,2.460722
50234,-2.128267,-9.970954,4.447389,-0.445593,-0.169607,2.466118
50235,-3.395352,-10.804142,5.096969,-0.406529,-0.219199,2.450918
50236,-4.303621,-12.651106,5.402717,-0.034006,-0.346791,2.427451
50237,-3.586077,-13.847705,5.051774,0.947754,-0.583383,2.409343
50238,-1.813529,-12.750937,5.131254,1.708330,-0.630494,2.433285
50239,-0.901367,-10.396703,5.058772,2.123810,-0.615800,2.416468
50240,-0.877927,-8.242182,5.045791,2.054508,-0.597947,2.440350
50241,-1.439100,-6.853664,5.151704,1.596551,-0.533944,2.425247
50242,-2.363672,-6.521952,5.090095,1.007940,-0.524040,2.409706
50243,-2.831396,-7.633831,4.815104,0.454675,-0.525849,2.453560
50244,-2.833023,-9.048730,4.648456,0.385526,-0.554312,2.470062
50245,-2.686119,-9.958653,4.927650,0.643925,-0.598372,2.469280
50246,-2.310644,-10.443560,4.978110,0.971002,-0.600563,2.475284
50247,-2.299033,-9.986035,4.805586,1.441974,-0.595684,2.465810
50248,-2.621480,-9.023632,4.973479,1.815415,-0.594023,2.439796
50249,-3.132055,-7.821596,5.059739,2.126149,-0.587237,2.401502
50250,-3.638409,-6.314935,5.600391,2.332338,-0.585920,2.325633
50251,-4.036594,-5.233511,5.982973,2.227124,-0.564607,2.275140
50252,-4.183214,-4.800738,5.683377,1.879472,-0.566577,2.237710
50253,-3.727077,-5.230556,5.274453,1.354258,-0.537150,2.263404
50254,-3.341453,-5.840288,5.069532,1.245595,-0.507226,2.239255
50255,-3.696054,-6.438080,5.176730,1.243674,-0.458102,2.194553
50256,-4.211048,-6.828798,5.426471,1.539695,-0.471839,2.131153
50257,-4.563078,-6.199117,6.422559,1.960249,-0.502984,2.072913
50258,-4.476248,-5.498008,6.960157,1.976637,-0.496925,2.067934
50259,-4.154243,-5.080756,6.914971,1.813120,-0.448866,2.100025
50260,-3.786880,-4.891078,6.741852,1.495762,-0.385637,2.146997
50261,-3.774548,-5.048541,6.139712,1.341336,-0.352676,2.157676
50262,-4.340243,-4.665551,6.025303,1.535881,-0.389392,2.068745
50263,-4.773677,-3.819060,5.796702,1.880905,-0.475221,1.939416
50264,-5.243949,-2.811719,5.693394,2.245286,-0.598044,1.812004
50265,-5.087885,-1.868442,6.958842,2.196830,-0.652896,1.758330
50266,-4.064053,-1.568244,8.784571,1.447487,-0.529984,1.778652
50267,-3.499535,-1.948338,9.154522,0.644397,-0.347674,1.827516
50268,-3.790914,-2.685633,8.524098,0.095577,-0.214108,1.872580
50269,-5.066124,-3.093083,6.757173,0.009012,-0.151787,1.831864
50270,-6.008695,-3.139640,5.096911,0.538267,-0.303353,1.694986
50271,-5.968312,-3.422164,4.895123,1.085810,-0.416190,1.599025
50272,-5.546539,-3.902761,5.791021,1.642978,-0.433917,1.546461
50273,-5.250034,-3.970832,6.518095,2.279405,-0.423548,1.521032
50274,-4.921418,-2.804757,6.981072,2.811508,-0.397112,1.469759
50275,-4.645437,-1.256393,7.193680,3.127133,-0.398106,1.382142
50276,-4.267283,-0.011096,7.071465,3.037054,-0.435312,1.339175
50277,-4.028682,0.747826,7.446366,2.430056,-0.374482,1.394245
50278,-4.027997,0.968915,8.082847,1.408012,-0.265988,1.426669
50279,-4.295042,0.366741,7.613034,0.787012,-0.211261,1.416793
50280,-4.808586,-0.510397,5.945643,0.741579,-0.265294,1.378625
50281,-5.024802,-1.342053,4.638259,0.737771,-0.331217,1.321597
50282,-4.969742,-2.330941,4.904038,0.972123,-0.424197,1.266486
50283,-4.553318,-3.084610,5.935994,1.656561,-0.546788,1.244364
50284,-3.848154,-2.305514,7.439767,2.762297,-0.597746,1.236160
50285,-3.472808,0.097262,8.257095,3.438612,-0.530898,1.245136
50286,-3.537442,2.477706,8.319033,3.696710,-0.417163,1.236485
50287,-3.935723,4.308227,8.548121,3.409193,-0.294287,1.194201
50288,-4.332007,5.627563,8.945937,2.143616,-0.110801,1.157926
50289,-4.167460,5.264421,8.957051,0.694384,0.039309,1.135574
50290,-4.176814,3.453513,7.858396,0.108309,0.069354,1.118065
50291,-4.563065,1.850692,6.549128,-0.025358,0.007636,1.086325
50292,-4.798971,0.552825,6.038052,0.021992,-0.054615,1.017439
50293,-4.973261,0.010497,5.291168,0.743717,-0.192706,0.956419
50294,-4.682935,0.750124,6.030890,1.980830,-0.371655,0.885469
50295,-4.183068,2.185560,6.951339,2.391906,-0.395909,0.855516
50296,-3.879389,3.325287,7.643867,2.239046,-0.356507,0.828151
50297,-3.500085,3.846034,8.194547,1.718279,-0.290224,0.837299
50298,-3.426661,4.088853,8.041452,1.224857,-0.165475,0.892724
50299,-3.302758,4.015187,7.903491,0.882434,-0.102781,0.940381
50300,-3.480819,3.350965,7.432366,0.534973,-0.011578,0.975071
50301,-3.825725,2.467772,6.535779,0.506924,0.019900,0.999753
50302,-3.987722,1.798198,6.483764,0.660541,0.021833,0.994697
50303,-3.972447,1.679481,6.443849,1.032374,-0.037413,0.978232
50304,-3.694937,2.631725,6.487530,1.613230,-0.105189,0.945545
50305,-3.468348,3.886168,6.842633,1.781125,-0.110964,0.910286
50306,-3.330423,5.162115,7.015055,1.861877,-0.104623,0.866099
50307,-3.235201,6.712191,7.053680,2.102825,-0.167917,0.719237
50308,-3.143190,8.478093,7.518006,1.707143,-0.141846,0.545817
50309,-3.260595,9.396570,7.373792,0.616944,0.014496,0.558030
50310,-3.488899,8.107290,7.076489,-0.202959,0.065927,0.492857
50311,-3.278788,6.256744,7.029747,-0.559283,0.046896,0.414359
50312,-2.786087,4.361146,6.760615,-0.714304,0.084973,0.345655
50313,-2.831212,2.804203,6.451279,-0.592864,0.105994,0.278306
50314,-3.152711,1.953447,5.902755,0.020013,0.064896,0.256925
50315,-3.646999,1.955472,5.832227,0.917286,-0.036446,0.255775
50316,-3.940697,2.976828,6.025617,1.379419,-0.123708,0.268770
50317,-4.020302,4.175653,6.370966,1.457890,-0.208198,0.279165
50318,-3.658645,5.077957,6.574151,1.270008,-0.264468,0.306521
50319,-3.445234,5.381270,6.306181,0.879422,-0.261366,0.348834
50320,-3.415886,5.589496,5.444848,0.709969,-0.296098,0.328262
50321,-3.262188,6.220120,5.256052,0.859061,-0.361823,0.265402
50322,-2.935093,6.816346,5.737583,0.823119,-0.374819,0.172237
50323,-2.730776,6.498970,6.406781,0.569554,-0.302433,0.125645
50324,-2.916249,6.016821,6.957848,0.684532,-0.269158,0.073448
50325,-2.837189,6.261115,8.018500,0.707214,-0.219232,0.038140
50326,-2.340888,7.067752,8.613896,0.559637,-0.135393,0.008725
50327,-1.947656,7.901694,8.707349,0.216337,-0.011087,-0.043185
50328,-1.831473,8.163137,8.192060,-0.291168,0.141941,-0.081841
50329,-1.967232,7.594412,7.285632,-0.649176,0.275618,-0.115465
50330,-2.361210,5.975227,6.776554,-0.813546,0.410746,-0.158131
50331,-3.120876,4.336265,6.479039,-0.698724,0.476754,-0.204989
50332,-3.859451,3.348989,5.444011,-0.262008,0.376577,-0.254175
50333,-4.038719,3.639263,5.280171,0.332139,0.172769,-0.279423
50334,-3.847146,5.144356,5.540972,0.421894,-0.012476,-0.261349
50335,-3.901384,6.498670,5.629548,-0.045991,-0.145652,-0.233421
50336,-4.067277,6.900288,5.700402,-0.783421,-0.236390,-0.214353
50337,-3.842591,5.962239,5.923296,-1.301292,-0.321234,-0.215139
50338,-3.287966,4.558612,6.516100,-1.452950,-0.329680,-0.251797
50339,-3.011409,3.509702,7.306049,-1.221499,-0.281542,-0.343490
50340,-2.781074,3.609745,7.742300,-0.363936,-0.260885,-0.447421
50341,-2.600430,5.661397,8.201221,0.402248,-0.241167,-0.550565
50342,-2.479517,7.858161,8.503285,0.154276,-0.160719,-0.633882
50343,-2.524963,9.027595,8.026731,-0.793915,-0.034251,-0.717386
50344,-2.900907,8.121285,7.626565,-1.769562,0.100663,-0.756420
50345,-3.394534,6.219921,6.822615,-2.232096,0.119714,-0.821975
50346,-3.448092,4.504621,6.203562,-2.400287,0.092357,-0.922609
50347,-3.407737,3.298717,5.710524,-2.248736,-0.001507,-1.025653
50348,-3.164933,2.782789,5.206907,-1.765836,-0.155407,-1.110007
50349,-2.978795,3.104868,6.081232,-1.573946,-0.237991,-1.129122
50350,-2.844995,2.806729,7.496596,-1.778436,-0.219812,-1.120135
50351,-2.666854,2.034545,9.338679,-2.128064,-0.040137,-1.056171
50352,-2.463831,0.672447,10.080514,-2.374777,0.228118,-0.970211
50353,-2.404262,-0.726022,9.330147,-1.890837,0.503349,-0.896370
50354,-2.805643,-1.263693,8.601025,-0.741348,0.636577,-0.875834
50355,-2.916936,0.032824,8.541112,0.419471,0.662242,-0.880014
50356,-3.205375,2.222874,8.749308,1.043782,0.711260,-0.860985
50357,-3.808444,4.425482,8.754538,1.153753,0.711500,-0.890366
50358,-4.463127,6.123573,8.107360,0.399379,0.703100,-0.936493
50359,-4.726664,6.327028,7.045536,-0.729498,0.776428,-0.996097
50360,-4.947750,5.431387,5.653242,-1.090269,0.709875,-1.077041
50361,-5.135933,4.787839,4.772346,-1.294913,0.597677,-1.197608
50362,-5.561904,4.104425,4.224851,-1.528755,0.466257,-1.321029
50363,-5.383113,3.462081,4.495030,-1.591699,0.262657,-1.446488
50364,-4.640580,2.603330,5.228607,-1.763827,0.147832,-1.541012
50365,-3.966045,1.644021,6.298592,-2.016181,0.114440,-1.585626
50366,-3.561072,0.870501,7.038183,-2.000602,0.166308,-1.596064
50367,-3.276892,0.396151,7.311785,-1.687240,0.241385,-1.595523
50368,-3.351182,0.232362,7.672863,-1.551744,0.393416,-1.581116
50369,-3.581021,-0.042334,7.667003,-1.659442,0.537104,-1.593799
50370,-3.680936,-0.157769,6.845472,-1.685158,0.643446,-1.585477
50371,-4.428696,-0.169502,6.504508,-1.708225,0.704109,-1.586233
50372,-5.265848,-0.276479,5.847643,-1.851678,0.692450,-1.610243
50373,-5.914504,-0.250053,4.939457,-1.860700,0.572327,-1.655778
50374,-5.851774,-0.225985,5.835735,-1.929979,0.377876,-1.713051
50375,-5.340717,-0.550351,6.384904,-2.241046,0.277174,-1.747748
50376,-5.173440,-1.000675,6.608726,-2.479713,0.198126,-1.764199
50377,-5.187231,-1.432116,5.680315,-2.608062,0.121488,-1.758762
50378,-5.118083,-2.316383,6.119854,-2.846544,0.124759,-1.756272
50379,-4.869003,-3.886241,6.489343,-3.215505,0.220914,-1.730196
50380,-4.677562,-5.626199,7.060119,-2.859837,0.358669,-1.692739
50381,-4.941485,-6.274923,8.244477,-1.704455,0.398742,-1.660133
50382,-5.126731,-4.899876,9.127275,-1.060438,0.462732,-1.598855
50383,-5.348204,-3.316136,8.510382,-1.011252,0.561356,-1.536765
50384,-5.594308,-2.277233,7.587365,-1.247913,0.630789,-1.480470
50385,-5.934338,-2.273618,6.650371,-1.853263,0.680453,-1.506913
50386,-6.334735,-3.511894,5.558389,-2.300363,0.660326,-1.588128
50387,-6.482481,-5.019954,5.416120,-2.349732,0.539798,-1.687285
50388,-6.126485,-5.997207,5.280373,-1.937979,0.341671,-1.755030
50389,-5.844835,-5.506214,5.732401,-1.395095,0.155404,-1.792105
50390,-5.506756,-4.783352,6.360228,-1.492110,0.037063,-1.775711
50391,-5.067893,-4.592373,6.389791,-1.698626,-0.016937,-1.754889
50392,-4.884206,-4.991449,6.323505,-1.885174,-0.007455,-1.740156
50393,-4.855750,-5.654877,6.143776,-1.904114,0.020491,-1.739415
50394,-4.842416,-6.122798,6.061667,-1.746739,0.051217,-1.752461
50395,-4.684848,-6.672819,6.353270,-1.563919,0.130108,-1.759512
50396,-4.602892,-7.079047,6.239168,-1.270002,0.227448,-1.780075
50397,-4.667799,-6.417035,6.137183,-0.988781,0.278728,-1.767132
50398,-4.693067,-5.007800,5.906384,-1.128389,0.264154,-1.768588
50399,-4.440856,-4.161476,5.466901,-1.595900,0.200736,-1.829617
50400,-4.314440,-4.889431,5.398393,-2.458753,0.162854,-1.859771
50401,-3.924268,-7.343784,5.840731,-3.017945,0.117808,-1.865134
50402,-3.666001,-9.939897,5.618566,-2.956248,0.144471,-1.801825
50403,-4.279477,-10.559504,4.020372,-1.618090,0.017655,-1.877561
50404,-3.888285,-8.687903,5.219602,-0.718138,-0.069846,-1.893066
50405,-3.061273,-7.722881,6.012156,-0.755862,0.060891,-1.859998
50406,-2.533691,-7.141660,7.624477,-0.891524,0.236442,-1.751101
50407,-2.017156,-7.100669,8.299832,-1.476466,0.520633,-1.625750
50408,-2.335786,-7.965983,7.624622,-1.965690,0.858449,-1.507571
50409,-2.902985,-9.238501,6.565060,-2.073941,1.090128,-1.426021
50410,-3.547712,-10.617140,5.162267,-1.828909,1.192503,-1.394862
50411,-4.079479,-11.680874,3.980833,-1.119784,1.178255,-1.405152
50412,-4.909764,-11.777618,3.774937,-0.152334,1.035484,-1.495032
50413,-4.856757,-10.178353,4.408375,0.561192,0.803764,-1.609615
50414,-4.025512,-7.745032,5.429831,0.729044,0.615536,-1.625643
50415,-3.138000,-5.936538,6.383941,0.202101,0.531378,-1.607515
50416,-2.893398,-6.372964,6.222264,-1.024339,0.600245,-1.582621
50417,-3.346908,-9.072593,4.888810,-1.649777,0.638594,-1.574679
50418,-3.390428,-11.429227,3.718023,-1.098475,0.534206,-1.601372
50419,-2.832150,-11.990727,3.897628,-0.112834,0.466128,-1.640749
50420,-2.514021,-10.775526,4.478349,0.577798,0.476816,-1.688407
50421,-2.518442,-9.077130,4.836809,0.720874,0.523268,-1.650414
50422,-2.489948,-7.082994,5.028833,0.333934,0.561046,-1.573061
50423,-2.240527,-5.395497,4.345922,-0.429675,0.515540,-1.546360
50424,-2.486267,-5.494075,3.176132,-1.585690,0.554366,-1.573183
50425,-3.167272,-8.409405,2.150865,-2.489126,0.498905,-1.669979
50426,-3.651732,-12.031165,0.523102,-1.801686,0.146950,-1.793489
50427,-3.237068,-12.639702,0.064138,0.003770,-0.349165,-1.977245
50428,-1.960815,-10.721517,1.552933,1.041965,-0.651437,-2.119286
50429,-0.509823,-8.745822,3.360987,1.466457,-0.749620,-2.137735
50430,0.839979,-6.672015,5.518508,1.260137,-0.683821,-2.016260
50431,2.088217,-5.564450,7.072055,0.292824,-0.373821,-1.885661
50432,2.025340,-6.791145,6.751087,-1.197935,0.153536,-1.737718
50433,0.804129,-10.097866,4.996030,-1.909059,0.553480,-1.589456
50434,-0.136580,-12.863824,3.351127,-1.025214,0.597428,-1.551619
50435,-0.466639,-12.627454,3.056970,0.132476,0.539050,-1.592130
50436,-0.574182,-10.884309,2.964544,0.655053,0.421627,-1.624483
50437,-0.398496,-8.611228,2.864497,0.847966,0.245498,-1.616229
50438,0.013887,-6.510199,2.848495,0.404449,0.068507,-1.609148
50439,0.843984,-5.635208,3.297905,-0.530154,0.014894,-1.601166
50440,1.139222,-7.211836,2.850935,-1.705055,0.129553,-1.587092
50441,0.752832,-10.357414,1.975102,-2.069185,0.224155,-1.585238
50442,0.455074,-12.903958,1.228147,-1.121123,0.098455,-1.631986
50443,0.854215,-12.860069,1.859277,0.097259,-0.064225,-1.703535
50444,1.275818,-11.205139,2.402915,0.738850,-0.150408,-1.730688
50445,1.699269,-8.888489,2.830419,1.026694,-0.260477,-1.675863
50446,2.375568,-6.830504,3.652121,0.677916,-0.306723,-1.594835
50447,2.983633,-6.185834,4.125924,-0.386728,-0.196756,-1.520109
50448,3.178487,-7.911784,3.885901,-1.557145,0.047883,-1.430144
50449,2.893488,-10.866969,3.071216,-1.830731,0.193815,-1.363434
50450,2.509792,-13.292541,2.527368,-1.117605,0.196526,-1.336995
50451,2.295615,-13.442531,2.705246,-0.116933,0.110604,-1.340635
50452,2.377984,-11.665123,3.035069,0.419596,0.057056,-1.323551
50453,2.417046,-9.527007,3.501797,0.639339,-0.035583,-1.311438
50454,2.587644,-7.766120,3.876788,0.339466,-0.099046,-1.300607
50455,2.908248,-7.216674,3.975902,-0.380062,-0.122448,-1.251558
50456,3.432515,-8.472551,3.620012,-1.035560,-0.092854,-1.176620
50457,3.780085,-10.719796,3.125272,-1.269862,-0.047586,-1.089773
50458,3.834655,-12.536515,2.792384,-0.831594,0.004796,-1.023954
50459,3.310018,-12.721829,3.091729,-0.128425,0.031635,-0.967834
50460,3.005272,-11.528409,3.517166,0.348405,0.050583,-0.941858
50461,2.710691,-9.713606,3.592877,0.626530,0.101513,-0.927769
50462,2.217448,-8.358858,3.607453,0.449828,0.146701,-0.915593
50463,2.326555,-7.740800,3.693008,-0.035980,0.162097,-0.894075
50464,2.876384,-7.746443,3.661643,-0.589261,0.178416,-0.853510
50465,3.673489,-8.275939,3.743426,-1.076592,0.169287,-0.799856
50466,4.342907,-9.789229,3.881012,-1.411299,0.222708,-0.705422
50467,4.420246,-12.025541,3.233933,-1.365187,0.276204,-0.621351
50468,4.200950,-13.322073,2.618573,-0.647754,0.228639,-0.551553
50469,3.934114,-12.619556,2.835271,0.214040,0.155724,-0.552719
50470,3.549520,-10.738502,2.971507,0.800286,0.142956,-0.610205
50471,3.158025,-8.639676,3.414093,1.177287,0.114612,-0.698335
50472,3.223619,-6.865918,3.382848,1.136091,0.045385,-0.804183
50473,3.627890,-5.529464,3.168407,0.818830,-0.017835,-0.875481
50474,4.287470,-4.867340,3.282230,0.200165,-0.085134,-0.907569
50475,5.326340,-5.791996,3.124715,-0.739002,0.013803,-0.897168
50476,5.525184,-8.303128,3.018945,-1.406009,0.216539,-0.825604
50477,5.358885,-10.831604,2.236361,-1.103025,0.232129,-0.746845
50478,5.454657,-11.565902,2.152917,-0.291593,0.115140,-0.664966
50479,5.571117,-10.889015,2.335354,0.014635,0.105372,-0.568884
50480,5.113623,-10.182589,2.111033,0.143387,0.115388,-0.463539
50481,4.622430,-9.347358,2.318033,0.120499,0.057238,-0.371126
50482,4.585071,-8.645315,2.460280,0.007617,-0.005590,-0.313885
50483,4.739476,-8.468885,2.644679,-0.210085,-0.037252,-0.268327
50484,4.900874,-9.212147,2.771634,-0.329134,-0.049939,-0.233373
50485,4.923931,-9.847387,2.659588,-0.179196,-0.062208,-0.216028
50486,4.856584,-9.938454,2.520366,0.055550,-0.092547,-0.187793
50487,5.083527,-9.308011,2.740994,0.250697,-0.124594,-0.163867
50488,5.255577,-8.688667,2.875526,0.263308,-0.122419,-0.141959
50489,5.090032,-8.412552,2.928960,0.188506,-0.112217,-0.116206
50490,5.204703,-8.417369,3.278697,0.152324,-0.105693,-0.101995
50491,5.174005,-8.245984,3.417452,0.096180,-0.081102,-0.076199
50492,4.941999,-7.973590,3.297165,0.052746,-0.072304,-0.061472
50493,4.790329,-8.053187,3.391732,-0.031348,-0.051351,-0.044612
50494,4.689682,-8.439084,3.693507,-0.027843,-0.011279,-0.030039
50495,4.579382,-8.847475,3.627649,-0.020146,0.017473,-0.015111
50496,4.417997,-9.297094,3.289253,0.048115,0.047973,-0.015274
50497,4.002111,-9.107002,2.693873,0.178149,0.046583,-0.034801
50498,3.839811,-8.467737,2.458502,0.194666,0.032748,-0.058653
50499,3.968233,-8.171570,2.389840,0.058304,0.021293,-0.074248
50500,4.227111,-8.542187,2.126423,-0.121427,0.029197,-0.069414
50501,4.440915,-9.123389,2.006004,-0.144760,0.006626,-0.074695
50502,4.905164,-9.234439,2.215027,-0.012711,-0.015481,-0.088267
50503,5.341514,-9.027241,2.606976,0.120547,-0.024854,-0.109218
50504,5.579263,-8.809068,2.397555,0.227613,-0.020114,-0.076220
50505,5.446245,-8.169662,2.473112,0.323612,-0.041916,-0.065032
50506,5.326570,-7.784626,2.563193,0.272225,-0.057386,-0.028607
50507,5.394380,-7.749572,2.512209,0.258286,-0.085351,-0.003739
50508,5.489336,-8.030287,2.747731,0.237009,-0.090816,0.046243
50509,5.331817,-8.030883,2.788824,0.309254,-0.114706,0.057772
50510,5.534633,-7.857376,2.928574,0.357190,-0.116216,0.064173
50511,5.562146,-7.479341,3.333211,0.349765,-0.060160,0.085487
50512,5.471256,-6.906638,3.803502,0.260800,0.004493,0.077529
50513,5.234879,-6.683160,3.925885,-0.068294,0.079248,0.098245
50514,5.319810,-7.169355,3.547244,-0.384871,0.133609,0.094764
50515,5.694708,-7.915720,3.015356,-0.490956,0.164195,0.078781
50516,6.126266,-8.317025,2.349768,-0.354327,0.209712,0.010741
50517,6.401184,-7.655753,2.171604,-0.086880,0.252038,-0.064386
50518,6.425120,-6.305712,1.437645,0.145406,0.230341,-0.139954
50519,6.959190,-5.061462,1.648804,0.241692,0.173139,-0.189812
50520,7.528022,-4.394330,1.904709,-0.191897,0.227537,-0.195214
50521,7.453410,-4.368020,1.441830,-0.903803,0.315773,-0.218287
50522,7.249070,-5.242913,0.871527,-1.449581,0.342034,-0.215269
50523,7.291114,-6.340288,-0.188398,-1.560185,0.262703,-0.225980
50524,7.472509,-6.747311,-0.919170,-1.313286,0.158088,-0.274943
50525,7.237143,-6.258204,-1.656559,-1.067159,0.028683,-0.337861
50526,6.513728,-5.984602,-2.000500,-1.055145,-0.100315,-0.416821
50527,5.563530,-6.159958,-1.925278,-1.079269,-0.266095,-0.520745
50528,4.702756,-6.309530,-1.195185,-0.930775,-0.468032,-0.618145
50529,4.450263,-6.373893,-0.213326,-0.836108,-0.622955,-0.707161
50530,4.560572,-6.272705,-0.157966,-0.808917,-0.725854,-0.794727
50531,4.825069,-6.212192,-0.135534,-0.909573,-0.753007,-0.862567
50532,4.794808,-6.355698,-0.020982,-1.125733,-0.704307,-0.895289
50533,4.520213,-6.512459,0.240575,-1.270516,-0.666101,-0.962541
50534,4.016327,-6.925770,1.145863,-1.453877,-0.583662,-1.014556
50535,3.232628,-7.696365,2.546063,-1.652197,-0.426341,-1.033179
50536,2.602186,-8.605444,3.426824,-1.597338,-0.350554,-1.064430
50537,2.645609,-9.172157,3.212551,-1.200162,-0.303473,-1.159643
50538,2.917429,-9.244334,3.080265,-0.917889,-0.157935,-1.285326
50539,3.250278,-8.704724,2.496344,-0.573538,-0.043225,-1.443085
50540,3.656728,-7.908624,2.007823,-0.444712,0.016276,-1.599406
50541,4.595103,-7.270078,1.484600,-0.460651,-0.007528,-1.741147
50542,5.634181,-6.791404,1.351244,-0.722199,-0.032789,-1.820617
50543,6.649931,-6.694679,1.481803,-1.116329,-0.048020,-1.868694
50544,7.371842,-7.167601,1.486839,-1.431861,-0.057679,-1.907330
50545,7.830479,-8.410800,1.562713,-1.587684,-0.066399,-1.920703
50546,8.009090,-9.608191,1.231186,-1.310588,-0.098612,-1.952618
50547,7.964207,-9.887642,0.767704,-0.663928,-0.159682,-1.980990
50548,7.337579,-8.811724,0.047394,-0.105742,-0.253250,-2.013696
50549,7.316528,-8.058201,-0.774834,0.204093,-0.331089,-2.008570
50550,7.560487,-7.904433,-0.617651,0.365542,-0.267837,-1.977789
50551,7.584109,-7.940224,-0.164871,0.614832,-0.189221,-1.955438
50552,7.542244,-7.786130,0.871121,0.843013,-0.113800,-1.939132
50553,7.730236,-7.244593,1.815628,0.974530,-0.049014,-1.921657
50554,7.834060,-6.582802,2.082440,0.938607,0.023356,-1.894833
50555,7.818709,-6.271430,1.707823,0.623082,0.081981,-1.825223
50556,7.816686,-6.033010,1.193801,0.224573,0.109207,-1.721673
50557,7.834880,-5.884833,0.594208,-0.149381,0.090272,-1.625165
50558,8.174084,-5.880451,0.318516,-0.519402,0.071139,-1.541734
50559,8.715716,-6.267187,0.432526,-0.845774,0.072491,-1.490670
50560,9.364055,-7.366657,0.541186,-1.007706,0.076756,-1.388037
50561,9.651996,-8.561257,0.544829,-1.001895,0.075349,-1.211057
50562,9.734901,-9.092851,0.350514,-0.706193,0.029060,-0.985500
50563,9.524434,-8.391463,-0.111146,-0.496354,-0.026513,-0.738182
50564,9.507723,-7.623851,-0.337248,-0.581656,-0.075228,-0.483805
50565,9.527528,-7.377602,-0.342467,-0.596294,-0.106303,-0.325025
50566,9.210639,-7.804197,-0.195387,-0.508810,-0.077613,-0.284057
50567,8.251330,-8.301005,-0.070012,-0.164648,-0.039122,-0.307309
50568,7.460717,-7.964524,0.130549,0.526233,-0.101850,-0.389759
50569,7.225952,-6.598819,0.382378,1.107226,-0.155265,-0.479789
50570,7.322085,-5.086473,0.680083,1.396857,-0.181377,-0.537978
50571,7.636756,-3.825775,0.929923,1.406602,-0.253627,-0.563382
50572,8.281882,-3.145096,0.910827,1.028206,-0.287980,-0.515974
50573,9.002625,-3.039168,0.736987,0.275868,-0.232017,-0.469634
50574,9.514253,-3.557531,0.436042,-0.558739,-0.082160,-0.407507
50575,9.518402,-4.670450,0.418301,-0.983326,0.037339,-0.346027
50576,9.283111,-5.681070,0.127184,-0.943218,0.080546,-0.318976
50577,8.722299,-6.165113,-0.343384,-0.464532,0.065305,-0.330050
50578,8.499734,-5.512854,0.032611,0.067410,0.000399,-0.342386
50579,8.480053,-4.447300,0.538952,0.268179,-0.006273,-0.400986
50580,8.308802,-3.628348,0.870300,0.196867,-0.007454,-0.481179
50581,8.413340,-3.380709,0.645452,-0.004404,0.043716,-0.485751
50582,8.592087,-3.308710,0.627829,-0.182541,0.066222,-0.541917
50583,8.878680,-3.136838,0.286426,-0.199867,0.069230,-0.585995
50584,9.205623,-2.901343,0.072295,-0.234523,0.077541,-0.601886
50585,9.528427,-2.652599,-0.213872,-0.304983,0.087359,-0.617631
50586,9.605191,-2.968210,-0.465356,-0.484320,0.140484,-0.617111
50587,9.447641,-3.748666,-0.515320,-0.641557,0.208524,-0.630380
50588,9.331668,-4.552861,-0.346950,-0.470569,0.184691,-0.677584
50589,9.466571,-4.864805,-0.225995,-0.039989,0.120656,-0.718106
50590,9.569152,-4.257172,-0.054253,0.354291,0.049031,-0.735262
50591,9.592110,-3.542488,0.109124,0.386931,0.052893,-0.734889
50592,9.494709,-3.101158,0.201386,0.194455,0.096373,-0.715996
50593,9.278394,-3.147533,0.233947,-0.063529,0.130328,-0.691625
50594,9.121262,-3.568122,0.164932,-0.165350,0.140798,-0.697338
50595,9.079747,-3.913312,0.228516,-0.197260,0.145147,-0.700342
50596,9.124649,-4.139885,0.351272,-0.135027,0.148064,-0.699275
50597,9.197066,-4.014535,0.457346,0.004045,0.141475,-0.697284
50598,9.226281,-3.615587,0.589429,0.032782,0.154273,-0.680669
50599,9.261839,-3.327546,0.620144,-0.034065,0.172760,-0.672701
50600,9.317542,-3.208036,0.598628,-0.146953,0.191225,-0.646045
50601,9.333425,-3.328940,0.492668,-0.276370,0.207163,-0.625036
50602,9.388305,-3.612973,0.299411,-0.333363,0.213422,-0.603446
50603,9.549889,-3.815957,0.242238,-0.306151,0.204353,-0.583973
50604,9.704206,-3.925016,0.269868,-0.231421,0.183709,-0.561409
50605,9.879688,-4.007351,0.384262,-0.127963,0.173086,-0.543912
50606,9.813882,-4.058230,0.444489,-0.007106,0.163074,-0.521010
50607,9.725685,-4.023111,0.626214,0.155084,0.143346,-0.504453
50608,9.686785,-3.883896,0.717053,0.319942,0.116437,-0.483586
50609,9.688265,-3.626165,0.733174,0.436118,0.096912,-0.460081
50610,9.688411,-3.297449,0.723982,0.504481,0.078475,-0.427175
50611,9.798799,-2.914149,0.814044,0.507119,0.063731,-0.395021
50612,9.837393,-2.587553,0.812234,0.400473,0.061871,-0.342736
50613,9.945599,-2.604620,0.779600,0.173359,0.079885,-0.292475
50614,9.891228,-2.791229,0.738830,0.006325,0.106201,-0.254656
50615,9.771065,-2.971864,0.657452,-0.064909,0.116416,-0.209244
50616,9.697251,-3.191222,0.456052,-0.119465,0.117303,-0.172537
50617,9.635916,-3.342777,0.268529,-0.084637,0.113985,-0.148392
50618,9.544640,-3.240906,0.295432,-0.010024,0.112550,-0.132185
50619,9.494554,-3.148043,0.281239,-0.011088,0.107580,-0.102850
50620,9.434277,-3.181763,0.262730,-0.003650,0.103732,-0.081507
50621,9.361772,-3.287934,0.228767,0.037557,0.084472,-0.066779
50622,9.338119,-3.231757,0.218861,0.097183,0.073734,-0.051302
50623,9.339689,-3.162090,0.275645,0.118941,0.057206,-0.026224
50624,9.368344,-3.191228,0.289393,0.137088,0.040227,-0.006329
50625,9.393876,-3.168414,0.291154,0.173122,0.023506,0.005445
50626,9.385367,-3.081397,0.290641,0.214959,0.013109,0.011564
50627,9.343374,-2.863749,0.333962,0.237314,-0.001764,0.016530
50628,9.318197,-2.754106,0.439974,0.240403,-0.003816,0.013210
50629,9.283577,-2.749165,0.323738,0.237615,-0.013527,0.004418
50630,9.295129,-2.749754,0.369714,0.249160,-0.016346,-0.006254
50631,9.323933,-2.706551,0.353821,0.245862,-0.013563,-0.012549
50632,9.308178,-2.607425,0.440317,0.274435,-0.016663,-0.026716
50633,9.335150,-2.514055,0.485170,0.294591,-0.018874,-0.039387
50634,9.316986,-2.431210,0.586287,0.283088,-0.011914,-0.039505
50635,9.395111,-2.364226,0.644070,0.245475,-0.019609,-0.043092
50636,9.484098,-2.360233,0.622932,0.203373,-0.012884,-0.042253
50637,9.550295,-2.359751,0.592961,0.149933,-0.007177,-0.043319
50638,9.528332,-2.425092,0.542830,0.120708,0.005521,-0.049083
50639,9.518076,-2.490692,0.533797,0.122052,0.005002,-0.055633
50640,9.550976,-2.500619,0.601686,0.136123,0.006697,-0.061608
50641,9.646053,-2.529183,0.578856,0.140199,0.006542,-0.064240
50642,9.687724,-2.485582,0.674959,0.134933,0.014913,-0.067178
50643,9.606842,-2.439389,0.674033,0.114079,0.018704,-0.062231
50644,9.605012,-2.515907,0.575718,0.073985,0.017293,-0.048734
50645,9.563639,-2.570642,0.575948,0.068421,0.014510,-0.044158
50646,9.561804,-2.517462,0.639149,0.080851,0.019063,-0.036305
50647,9.528612,-2.452581,0.711550,0.080474,0.019882,-0.040191
50648,9.506793,-2.519691,0.662523,0.063189,0.016749,-0.035511
50649,9.504597,-2.531108,0.607768,0.064792,0.013559,-0.031675
50650,9.505675,-2.599270,0.639747,0.072880,0.013251,-0.031096
50651,9.455228,-2.568475,0.628355,0.086960,0.014934,-0.037060
50652,9.507069,-2.523646,0.691037,0.099088,0.014420,-0.033244
50653,9.453830,-2.511494,0.695871,0.097017,0.024205,-0.034936
50654,9.477236,-2.504007,0.708854,0.108547,0.021077,-0.033783
50655,9.494765,-2.462420,0.723649,0.108892,0.026193,-0.035608
50656,9.560605,-2.463401,0.695951,0.089888,0.032071,-0.028767
50657,9.535615,-2.482629,0.708282,0.065312,0.035324,-0.023261
50658,9.524591,-2.480012,0.672600,0.060082,0.037816,-0.026427
50659,9.553608,-2.507399,0.684491,0.051205,0.039669,-0.028929
50660,9.576781,-2.503732,0.770927,0.042219,0.039805,-0.030816
50661,9.586465,-2.580731,0.642214,0.038413,0.043405,-0.035282
50662,9.556283,-2.633892,0.612396,0.039705,0.042716,-0.030070
50663,9.530897,-2.581723,0.595333,0.072382,0.039051,-0.029032
50664,9.490933,-2.479964,0.596604,0.075862,0.036290,-0.034324
