// Start Time: Unknown
// Update Rate: 100.0Hz
// Filter Profile: human (46.1)
// Firmware Version: 4.3.5
PacketCounter,Acc_X,Acc_Y,Acc_Z,Gyr_X,Gyr_Y,Gyr_Z
38227,9.621168,-1.566303,1.637125,-0.024510,0.011505,-0.011254
38228,9.641967,-1.555815,1.663625,-0.021867,0.009488,-0.014803
38229,9.661468,-1.559724,1.650501,-0.013921,0.012467,-0.008314
38230,9.662206,-1.512150,1.679542,-0.013411,0.012037,-0.012054
38231,9.650783,-1.546714,1.633622,-0.014315,0.011642,-0.009546
38232,9.651232,-1.578456,1.646166,-0.014710,0.010819,-0.010777
38233,9.672433,-1.600675,1.684492,-0.011371,0.009477,-0.007391
38234,9.661777,-1.588482,1.666686,0.004850,0.011689,-0.009318
38235,9.662476,-1.540775,1.695900,0.007793,0.009525,-0.007162
38236,9.660731,-1.521545,1.645661,0.005344,0.013483,-0.012560
38237,9.671293,-1.531807,1.665801,0.004438,0.013088,-0.010052
38238,9.651218,-1.493492,1.669416,0.001498,0.015250,-0.012209
38239,9.651144,-1.492347,1.670870,-0.008289,0.015923,-0.012693
38240,9.629647,-1.547730,1.618300,-0.010004,0.016105,-0.012151
38241,9.690528,-1.532031,1.657733,-0.003155,0.017594,-0.013823
38242,9.660810,-1.547329,1.665947,-0.007062,0.013942,-0.009995
38243,9.640512,-1.588514,1.653128,0.000182,0.016254,-0.010434
38244,9.680196,-1.549847,1.654972,0.008788,0.013115,-0.013640
38245,9.669072,-1.504646,1.625858,0.010406,0.011959,-0.009709
38246,9.669584,-1.535758,1.638763,0.004173,0.011011,-0.016252
38247,9.660196,-1.508445,1.660795,0.002871,0.009793,-0.014977
38248,9.640706,-1.502313,1.675639,0.001155,0.009975,-0.014436
38249,9.649110,-1.541026,1.615762,-0.002259,0.008117,-0.013850
38250,9.640214,-1.546423,1.649342,-0.000975,0.011557,-0.014629
38251,9.629656,-1.533694,1.631558,0.001965,0.009397,-0.012470
38252,9.640320,-1.543761,1.651211,0.001179,0.007751,-0.014933
38253,9.630330,-1.563664,1.644743,-0.000228,0.005563,-0.009184
38254,9.661104,-1.531974,1.678383,0.001077,0.006780,-0.010460
38255,9.660086,-1.545151,1.639211,-0.003951,0.006073,-0.013808
38256,9.649594,-1.532490,1.620979,-0.001840,0.006714,-0.013117
38257,9.649681,-1.531150,1.621732,-0.000949,0.009330,-0.015127
38258,9.670390,-1.520298,1.648396,-0.008709,0.007440,-0.010954
38259,9.679951,-1.544884,1.628235,-0.009038,0.012031,-0.015665
38260,9.659900,-1.585916,1.614832,-0.006597,0.008081,-0.010263
38261,9.621357,-1.608164,1.654861,0.001081,0.006779,-0.010459
38262,9.651554,-1.543892,1.676776,0.013828,0.001742,-0.008300
38263,9.620891,-1.494420,1.660635,0.018441,0.003850,-0.005685
38264,9.601364,-1.488911,1.674986,0.006151,0.003041,-0.008105
38265,9.629962,-1.485932,1.629008,0.001888,0.006201,-0.008494
38266,9.680848,-1.491409,1.660188,-0.007835,0.000191,-0.010482
38267,9.691052,-1.548683,1.651226,-0.009120,0.008832,-0.011692
38268,9.701133,-1.526434,1.659113,-0.010729,0.009981,-0.015626
38269,9.692216,-1.531834,1.692625,-0.011142,0.011379,-0.016361
38270,9.681184,-1.566044,1.646709,-0.009553,0.012450,-0.011930
38271,9.662140,-1.592948,1.673361,-0.005333,0.013736,-0.010546
38272,9.661498,-1.559545,1.662906,0.003150,0.011865,-0.008772
38273,9.651824,-1.533049,1.685148,0.003933,0.013512,-0.006307
38274,9.632141,-1.527751,1.700113,0.002261,0.009247,-0.006763
38275,9.621493,-1.515637,1.682283,0.001848,0.010645,-0.007498
38276,9.602440,-1.542728,1.708734,-0.002370,0.009358,-0.008883
38277,9.620420,-1.528409,1.644371,-0.001979,0.010181,-0.007651
38278,9.620919,-1.560273,1.657146,-0.001611,0.013227,-0.005921
38279,9.651926,-1.561558,1.703208,-0.000416,0.013476,-0.002722
38280,9.660760,-1.554592,1.671803,-0.001721,0.012257,-0.001448
38281,9.671128,-1.565864,1.691957,-0.002157,0.015877,-0.001686
38282,9.669920,-1.580234,1.653537,-0.006486,0.013620,0.001401
38283,9.659138,-1.569004,1.635774,-0.006853,0.010574,-0.000329
38284,9.650514,-1.608074,1.681258,-0.001628,0.015446,-0.005424
38285,9.689539,-1.616800,1.655276,0.010657,0.016264,-0.002990
38286,9.699873,-1.627827,1.675814,0.019941,0.013821,0.000760
38287,9.649489,-1.653682,1.658165,0.035689,0.012056,0.001621
38288,9.610624,-1.676546,1.699019,0.055202,0.005341,0.006120
38289,9.592325,-1.689735,1.765606,0.076835,-0.000736,0.011313
38290,9.574342,-1.656319,1.860109,0.096214,-0.003986,0.021278
38291,9.584602,-1.668008,1.880192,0.111895,-0.006744,0.026611
38292,9.625550,-1.728145,1.917328,0.128099,-0.007726,0.028698
38293,9.623618,-1.710787,1.867496,0.144167,-0.005233,0.036241
38294,9.663589,-1.659705,1.909698,0.152151,-0.000046,0.043222
38295,9.682882,-1.698380,1.910775,0.151645,0.007020,0.048412
38296,9.723425,-1.792410,1.962828,0.159200,0.018045,0.055614
38297,9.732000,-1.773465,1.975004,0.176320,0.028496,0.057607
38298,9.791438,-1.793291,2.031460,0.175726,0.036835,0.067736
38299,9.780139,-1.803041,2.071583,0.170039,0.051141,0.075950
38300,9.757023,-1.817517,2.053922,0.163913,0.054793,0.085490
38301,9.805513,-1.893849,2.118104,0.152091,0.057278,0.099892
38302,9.773059,-1.981776,2.158564,0.157801,0.064386,0.116061
38303,9.781082,-2.050764,2.251296,0.160125,0.062986,0.131401
38304,9.799449,-2.085299,2.390364,0.160377,0.063458,0.161664
38305,9.776173,-1.998548,2.467399,0.151318,0.066424,0.188132
38306,9.879905,-2.068532,2.480249,0.137213,0.068709,0.211239
38307,9.921862,-2.188918,2.468476,0.124346,0.084616,0.240329
38308,10.015464,-2.209173,2.583009,0.110824,0.105825,0.283483
38309,9.998978,-2.196124,2.747933,0.074868,0.136136,0.319757
38310,9.937625,-2.319372,2.861471,0.043586,0.156465,0.360754
38311,9.959217,-2.624685,2.953198,-0.008067,0.181221,0.399073
38312,10.011622,-3.121589,3.044501,0.019728,0.205432,0.433822
38313,10.063478,-3.084241,3.139670,0.085817,0.225410,0.496718
38314,10.031701,-3.373894,3.216198,0.100987,0.250796,0.547044
38315,10.033583,-3.678674,3.270555,0.193264,0.263489,0.600536
38316,10.012484,-3.712099,3.313843,0.325353,0.276322,0.651765
38317,9.962113,-3.682071,3.382443,0.427149,0.287304,0.721643
38318,9.995848,-3.708339,3.474830,0.508296,0.299864,0.790814
38319,10.093978,-3.770896,3.552503,0.570426,0.312979,0.863197
38320,10.304395,-3.881607,3.649648,0.615575,0.333180,0.939542
38321,10.551967,-3.968666,3.753344,0.639070,0.367717,1.013151
38322,10.623187,-3.989949,3.741660,0.623491,0.410870,1.092863
38323,10.508687,-3.944423,3.733748,0.570430,0.447740,1.172600
38324,10.361467,-3.902738,3.770123,0.483007,0.488555,1.246416
38325,10.182579,-4.034816,3.725853,0.393547,0.516854,1.318045
38326,10.017892,-4.297026,3.751950,0.338768,0.535641,1.378304
38327,9.984551,-4.673538,3.638866,0.325790,0.550462,1.439821
38328,9.963013,-5.012630,3.633605,0.371535,0.568201,1.500633
38329,10.055315,-5.330752,3.665950,0.456104,0.577501,1.564647
38330,10.075315,-5.488926,3.616739,0.575285,0.602502,1.613743
38331,10.133883,-5.444863,3.618790,0.690734,0.635168,1.653645
38332,10.064319,-5.288712,3.669939,0.765650,0.655001,1.701743
38333,9.970956,-5.240150,3.617951,0.780351,0.678323,1.746102
38334,9.804232,-5.358585,3.556786,0.784798,0.692443,1.793542
38335,9.654308,-5.521614,3.582228,0.810103,0.705216,1.819730
38336,9.582192,-5.604136,3.660834,0.845594,0.712514,1.837719
38337,9.506287,-5.706291,3.705142,0.881343,0.723434,1.853567
38338,9.351765,-5.854516,3.798399,0.918810,0.730749,1.859653
38339,9.212466,-5.921347,3.819542,0.971449,0.746439,1.859743
38340,8.985181,-5.995841,3.824043,1.040772,0.759666,1.856431
38341,8.721033,-5.916008,3.713009,1.082620,0.751128,1.870515
38342,8.582049,-5.761716,3.777564,1.091813,0.755125,1.867356
38343,8.368854,-5.777569,3.849146,1.079893,0.763674,1.854994
38344,8.246686,-5.936553,3.954407,1.085688,0.764471,1.846148
38345,8.147925,-6.169191,3.975659,1.115574,0.763318,1.837989
38346,8.059605,-6.516434,4.061070,1.171199,0.764151,1.835212
38347,7.918975,-6.693423,4.170598,1.269367,0.764279,1.821793
38348,7.897308,-6.644671,4.368081,1.354812,0.777888,1.821944
38349,7.818487,-6.447203,4.491027,1.398315,0.795386,1.819254
38350,7.755706,-6.299686,4.488902,1.380606,0.808790,1.820026
38351,7.674390,-6.225686,4.534540,1.326683,0.819636,1.821471
38352,7.516204,-6.228487,4.495973,1.241570,0.819156,1.820993
38353,7.404249,-6.287427,4.538640,1.161144,0.811010,1.821689
38354,7.261302,-6.414539,4.631736,1.101850,0.800747,1.826453
38355,7.090719,-6.566470,4.764043,1.069657,0.795205,1.831792
38356,6.970444,-6.788596,4.857254,1.084701,0.788439,1.834446
38357,6.799483,-7.052473,4.889435,1.135879,0.784051,1.837410
38358,6.748012,-7.250895,4.857928,1.213697,0.783763,1.844384
38359,6.654238,-7.327855,4.833046,1.317207,0.778853,1.856123
38360,6.523377,-7.034978,4.857293,1.390780,0.773402,1.867041
38361,6.324432,-6.702319,4.894005,1.403302,0.759814,1.878470
38362,6.160006,-6.423897,5.061394,1.353257,0.741505,1.878989
38363,5.934639,-6.311116,5.151691,1.262473,0.717197,1.889316
38364,5.763865,-6.421762,5.334267,1.175399,0.688257,1.894255
38365,5.558960,-6.618766,5.345281,1.118600,0.663351,1.902982
38366,5.411817,-6.840591,5.365336,1.122571,0.634162,1.910827
38367,5.263903,-6.952370,5.524812,1.172192,0.611629,1.912804
38368,5.175714,-6.876809,5.589791,1.248332,0.595625,1.914875
38369,4.990325,-6.701705,5.713750,1.313058,0.582316,1.912440
38370,4.774370,-6.479857,5.826487,1.341376,0.565879,1.916699
38371,4.552686,-6.382791,5.950704,1.324014,0.553333,1.917085
38372,4.321043,-6.347606,5.889535,1.301967,0.541135,1.910090
38373,4.245752,-6.441725,5.889263,1.279822,0.518788,1.914221
38374,4.155070,-6.403129,6.007389,1.274635,0.507943,1.906484
38375,4.021982,-6.329654,6.059314,1.263327,0.487887,1.902658
38376,3.900566,-6.234955,6.056502,1.238297,0.455627,1.912541
38377,3.822920,-6.151422,6.109403,1.199415,0.420721,1.922818
38378,3.647150,-6.210636,6.169677,1.162802,0.395772,1.928297
38379,3.448067,-6.479031,6.172233,1.171108,0.355094,1.928133
38380,3.394604,-6.730430,6.272984,1.243139,0.315603,1.949016
38381,3.264044,-6.622488,6.439009,1.371139,0.303546,1.950212
38382,2.995282,-6.232910,6.520482,1.451021,0.279536,1.957024
38383,2.820607,-5.674328,6.606505,1.435063,0.248732,1.966596
38384,2.755958,-5.325479,6.613678,1.333919,0.223249,1.972858
38385,2.587417,-5.364136,6.508818,1.226617,0.191265,1.969087
38386,2.479311,-5.602937,6.518663,1.175225,0.157952,1.974748
38387,2.327969,-5.759776,6.552900,1.187425,0.130423,1.984367
38388,2.188710,-5.705004,6.693015,1.231187,0.093367,1.985093
38389,2.115675,-5.555861,6.876018,1.277264,0.070820,1.992226
38390,2.041656,-5.238785,7.080687,1.288233,0.058968,1.996929
38391,1.864557,-4.901693,7.136080,1.249882,0.045289,2.001226
38392,1.725461,-4.519671,7.089729,1.166050,0.021874,1.998078
38393,1.679185,-4.370990,7.082357,1.025995,-0.002288,2.007851
38394,1.641917,-4.475385,7.192555,0.917450,-0.023337,2.017194
38395,1.519155,-4.691167,7.191709,0.840972,-0.051468,2.022220
38396,1.487573,-4.926223,7.194555,0.829795,-0.080867,2.031212
38397,1.393561,-5.007138,7.286100,0.891072,-0.111001,2.034703
38398,1.236211,-4.951892,7.393351,0.968648,-0.138663,2.036791
38399,1.151687,-4.640231,7.480632,1.022386,-0.163791,2.043779
38400,1.106888,-4.163160,7.570000,1.000982,-0.189496,2.048134
38401,1.086350,-3.887878,7.583516,0.903753,-0.211343,2.065911
38402,1.004983,-3.794618,7.528943,0.791520,-0.247535,2.075619
38403,0.937558,-3.892100,7.568364,0.680742,-0.273570,2.087846
38404,0.845833,-4.067730,7.615824,0.622646,-0.295557,2.094770
38405,0.608419,-4.113423,7.634589,0.638903,-0.327415,2.098032
38406,0.464195,-3.924646,7.651250,0.690869,-0.365744,2.091281
38407,0.345458,-3.652708,7.597869,0.738675,-0.402141,2.084280
38408,0.163406,-3.459258,7.218825,0.770468,-0.457138,2.071400
38409,0.274950,-3.467060,7.002484,0.774612,-0.519545,2.074446
38410,0.435522,-3.615751,7.441984,0.811283,-0.539319,2.067735
38411,0.478337,-3.437703,7.996148,0.834220,-0.535269,2.060443
38412,0.445908,-2.938941,8.552242,0.851775,-0.543425,2.037947
38413,0.434471,-2.428410,8.805866,0.775383,-0.543389,2.030131
38414,0.354646,-2.143511,8.790210,0.665385,-0.544668,2.012381
38415,0.257022,-2.262710,8.566162,0.561235,-0.557956,1.986903
38416,0.243591,-2.562269,8.188400,0.528667,-0.578480,1.974696
38417,0.210606,-2.613669,7.910264,0.550628,-0.592056,1.945538
38418,0.131777,-2.367143,7.882654,0.608521,-0.615735,1.911518
38419,0.128274,-2.138800,7.889181,0.579110,-0.627218,1.885191
38420,0.120553,-1.694187,8.010244,0.475412,-0.654827,1.872624
38421,0.245203,-1.224909,8.230765,0.297001,-0.680895,1.849618
38422,0.258903,-1.011226,8.486237,0.077652,-0.699234,1.817401
38423,0.256533,-1.336270,8.655226,-0.127598,-0.715995,1.785611
38424,0.312805,-1.928047,8.435874,-0.239087,-0.735933,1.762311
38425,0.437976,-2.480711,8.219666,-0.221674,-0.747613,1.721714
38426,0.587327,-2.883112,8.159579,-0.146283,-0.747074,1.710739
38427,0.620748,-2.835229,8.284292,-0.029022,-0.747619,1.694862
38428,0.626176,-2.514785,8.517607,0.046810,-0.747969,1.683755
38429,0.659677,-2.291154,8.752365,0.036734,-0.736864,1.680215
38430,0.652629,-2.332721,8.934582,0.013415,-0.732651,1.666215
38431,0.788564,-2.401149,9.111187,0.017611,-0.722282,1.648245
38432,0.884166,-2.469985,9.331222,0.028977,-0.695105,1.631024
38433,0.922225,-2.360647,9.488244,0.038595,-0.667527,1.613401
38434,0.909863,-2.109307,9.389381,0.002879,-0.624991,1.595781
38435,0.833203,-2.011973,9.417531,-0.061019,-0.597660,1.568603
38436,0.756353,-1.952995,9.655608,-0.135584,-0.583753,1.534764
38437,0.715602,-1.974062,9.864222,-0.177090,-0.581594,1.510601
38438,0.824866,-2.027909,10.079764,-0.204840,-0.585188,1.484807
38439,0.806389,-2.065472,10.098243,-0.196247,-0.575920,1.454994
38440,0.588864,-1.996244,10.033165,-0.249495,-0.589535,1.426707
38441,0.343792,-1.901761,9.877662,-0.349184,-0.613180,1.403640
38442,0.032026,-1.734773,9.783669,-0.472459,-0.643860,1.347612
38443,-0.059834,-1.606653,9.843624,-0.603758,-0.709789,1.264308
38444,0.148371,-1.853559,9.903360,-0.727727,-0.743806,1.184487
38445,0.423269,-2.458804,9.976114,-0.736502,-0.744782,1.105366
38446,0.570560,-3.034925,9.939541,-0.587182,-0.725720,1.028491
38447,0.582037,-3.307074,10.087417,-0.272555,-0.682050,0.951298
38448,0.669135,-2.976744,10.250090,0.079894,-0.622223,0.853587
38449,0.788070,-2.355325,10.429468,0.358163,-0.548922,0.748311
38450,0.864394,-1.590644,10.676712,0.538736,-0.451798,0.621166
38451,0.896587,-0.936521,10.792053,0.624308,-0.355192,0.485849
38452,0.955250,-0.524083,10.850505,0.636259,-0.261597,0.342708
38453,0.943324,-0.278891,10.779056,0.614683,-0.159574,0.193842
38454,0.933750,0.141667,10.601300,0.566271,-0.072742,0.028069
38455,0.955212,0.524318,10.441040,0.479137,0.008064,-0.157506
38456,1.076372,0.554180,10.259026,0.336397,0.081743,-0.326379
38457,1.225542,0.183666,10.106882,0.223929,0.154591,-0.500713
38458,1.344037,-0.421163,9.943475,0.182172,0.213555,-0.669652
38459,1.367019,-0.971808,9.791638,0.243874,0.261949,-0.837372
38460,1.385024,-1.209838,9.739569,0.366433,0.306286,-0.997476
38461,1.369920,-1.243561,9.734649,0.487733,0.336535,-1.154492
38462,1.387937,-1.009455,9.882732,0.569172,0.371874,-1.301113
38463,1.418659,-0.490826,10.108317,0.611922,0.403011,-1.463180
38464,1.380837,0.107515,10.216461,0.613832,0.436953,-1.634211
38465,1.358206,0.712129,10.356881,0.578051,0.473720,-1.815819
38466,1.391119,1.150707,10.422333,0.548493,0.505521,-2.026626
38467,1.467047,1.448759,10.448079,0.554461,0.539005,-2.256966
38468,1.451203,1.850317,10.248514,0.565273,0.563725,-2.491739
38469,1.408106,2.668350,10.073408,0.495884,0.553512,-2.731421
38470,1.382811,3.781198,10.026490,0.240974,0.531289,-2.973722
38471,1.608950,4.644683,10.066616,-0.239281,0.494816,-3.195643
38472,2.060636,4.795298,9.880262,-0.837990,0.467869,-3.393235
38473,2.592800,3.760615,9.844925,-1.384704,0.472088,-3.586276
38474,2.917199,1.978140,9.780305,-1.675864,0.505736,-3.748478
38475,3.151116,-0.065854,9.800028,-1.638007,0.530593,-3.903353
38476,3.268309,-1.753033,9.743170,-1.270746,0.549485,-4.021098
38477,3.333328,-2.601690,9.666878,-0.705962,0.570092,-4.139456
38478,3.267477,-2.465666,9.672765,-0.187274,0.561770,-4.230579
38479,3.150616,-1.697596,9.655310,0.141794,0.533004,-4.297361
38480,3.181063,-0.937121,9.833386,0.213993,0.493579,-4.345468
38481,3.233643,-0.410518,9.807242,0.102085,0.448935,-4.384868
38482,3.314544,-0.161020,9.516617,-0.090096,0.398197,-4.431139
38483,3.612211,-0.605550,9.245882,-0.297721,0.367053,-4.449856
38484,3.809609,-1.398517,9.095090,-0.409267,0.361270,-4.445668
38485,4.071581,-2.100056,9.247529,-0.409533,0.363935,-4.455891
38486,4.254008,-2.639304,9.621387,-0.317807,0.392709,-4.450381
38487,4.414078,-2.817660,9.984594,-0.201111,0.436104,-4.432876
38488,4.458276,-2.698317,10.162775,-0.108465,0.486212,-4.413888
38489,4.476443,-2.459884,10.291111,-0.076715,0.538085,-4.391523
38490,4.508725,-2.285736,9.988702,-0.071521,0.587255,-4.382486
38491,4.333114,-2.097500,9.173727,-0.009498,0.592106,-4.398335
38492,4.381441,-2.392216,8.961881,0.089224,0.603428,-4.391634
38493,4.572468,-2.975760,8.996693,0.276339,0.626517,-4.361963
38494,4.770173,-3.239999,9.204176,0.497561,0.656032,-4.333466
38495,4.905644,-2.897944,9.568319,0.682674,0.703211,-4.309974
38496,4.884063,-2.156165,10.067155,0.706388,0.750265,-4.275824
38497,4.748210,-1.220960,10.342284,0.584010,0.796222,-4.238031
38498,4.806284,-0.561562,10.489537,0.295337,0.830494,-4.214840
38499,4.969036,-0.420391,10.103836,0.005653,0.860201,-4.202507
38500,5.021556,-0.681616,9.345897,-0.193860,0.885019,-4.195109
38501,5.124458,-1.524758,9.117985,-0.248832,0.936251,-4.170038
38502,5.175028,-2.471120,9.256607,-0.127654,0.994285,-4.121308
38503,5.276954,-2.933749,9.695127,0.080214,1.050170,-4.077038
38504,5.206024,-2.551160,10.017885,0.317225,1.118535,-4.060882
38505,4.995716,-1.636995,10.246118,0.404345,1.141251,-4.042531
38506,4.908488,-0.782153,10.339857,0.296842,1.142004,-4.020983
38507,4.955467,-0.395238,10.338890,0.026414,1.121747,-3.974233
38508,5.048730,-0.556577,10.293459,-0.244098,1.100520,-3.934857
38509,5.059307,-0.996479,9.900063,-0.410895,1.093816,-3.891126
38510,4.929818,-1.445951,9.633818,-0.441738,1.075237,-3.849408
38511,4.719285,-1.692278,9.385899,-0.369525,1.058705,-3.799361
38512,4.647667,-2.088509,9.525969,-0.246850,1.050625,-3.729992
38513,4.583157,-2.351374,9.684590,-0.097829,1.033310,-3.659211
38514,4.601724,-2.277036,9.964656,0.037580,1.017083,-3.578218
38515,4.290368,-1.869425,10.066585,0.144272,1.010052,-3.516671
38516,3.983346,-1.156675,10.462254,0.198151,1.011476,-3.483964
38517,3.517188,-0.788933,10.370172,0.132055,1.036726,-3.455224
38518,3.247220,-0.775999,10.374422,0.018960,1.016984,-3.413036
38519,3.329189,-0.633028,10.258826,-0.072795,0.999709,-3.397002
38520,3.294490,-0.401549,9.660237,-0.207064,0.983135,-3.354852
38521,3.012009,-0.072652,9.269769,-0.336530,0.939429,-3.331886
38522,2.773282,-0.199861,9.109445,-0.487247,0.906819,-3.306992
38523,2.631855,-0.898821,9.130274,-0.625558,0.849247,-3.220929
38524,2.701601,-1.846720,9.328037,-0.637210,0.795370,-3.138528
38525,2.704046,-2.648085,9.349827,-0.465689,0.765481,-3.063039
38526,2.497596,-2.963786,9.441958,-0.145839,0.748514,-2.997643
38527,2.156342,-2.880737,9.401763,0.179719,0.715716,-2.926334
38528,1.907962,-2.154432,9.177367,0.406785,0.657323,-2.876516
38529,1.696856,-1.163241,9.127017,0.433242,0.598137,-2.843260
38530,1.429080,-0.276955,9.009243,0.240255,0.533501,-2.795179
38531,1.227800,0.197132,9.034722,-0.093012,0.458463,-2.777217
38532,1.290847,-0.277026,9.329872,-0.436549,0.400607,-2.732983
38533,1.589117,-1.237281,9.336039,-0.654864,0.377212,-2.685006
38534,1.755448,-2.379180,9.309071,-0.666908,0.384277,-2.619808
38535,1.613717,-3.201809,9.274583,-0.455660,0.394902,-2.564353
38536,1.427100,-3.632133,8.973337,-0.142938,0.399680,-2.489848
38537,1.042406,-3.564590,8.647886,0.169715,0.368856,-2.407323
38538,0.756451,-3.180483,8.499207,0.421614,0.313085,-2.325648
38539,0.626958,-2.807558,8.561192,0.565143,0.238138,-2.247160
38540,0.560460,-2.584181,8.762847,0.592378,0.166647,-2.137944
38541,0.573825,-2.611323,9.021386,0.574002,0.100705,-2.029044
38542,0.795115,-2.635695,9.263691,0.544760,0.047087,-1.911886
38543,0.929683,-2.543506,9.233517,0.506988,0.019883,-1.800860
38544,0.769207,-2.228606,8.981096,0.419135,-0.001135,-1.680043
38545,0.596014,-1.762851,8.927892,0.299228,-0.046835,-1.595594
38546,0.706872,-1.595748,9.026626,0.075632,-0.072449,-1.512423
38547,0.374320,-2.088587,8.822959,-0.156984,-0.068916,-1.423936
38548,0.246539,-2.891112,8.937287,-0.309634,-0.135741,-1.323811
38549,0.391662,-3.888338,9.087264,-0.289360,-0.155271,-1.230399
38550,0.391462,-4.717889,9.217725,-0.115942,-0.175940,-1.111064
38551,0.424750,-4.698366,9.282095,0.190420,-0.214074,-1.009234
38552,0.615330,-4.062345,9.320217,0.416651,-0.242068,-0.905636
38553,0.640084,-3.114469,9.381407,0.484303,-0.266778,-0.832675
38554,0.643726,-2.380215,9.683747,0.336192,-0.277376,-0.751219
38555,0.462325,-2.181169,10.076944,0.061257,-0.276836,-0.668342
38556,0.473468,-2.601544,10.335293,-0.215481,-0.269697,-0.599437
38557,0.478215,-3.325799,10.320151,-0.369657,-0.249094,-0.533952
38558,0.366382,-4.042994,10.240573,-0.378470,-0.229274,-0.467237
38559,0.310141,-4.470765,10.218330,-0.245364,-0.225637,-0.391352
38560,0.428576,-4.593065,10.213060,-0.066605,-0.227258,-0.316585
38561,0.472617,-4.337637,10.281855,0.101519,-0.213640,-0.237744
38562,0.394166,-3.939223,10.386039,0.184804,-0.205495,-0.163066
38563,0.331749,-3.630037,10.581092,0.187019,-0.187194,-0.078128
38564,0.351941,-3.470847,10.740249,0.123252,-0.167978,0.000685
38565,0.416644,-3.490420,10.800265,0.051324,-0.148384,0.081217
38566,0.381615,-3.717884,10.765996,-0.001168,-0.133091,0.170850
38567,0.417913,-3.912847,10.755758,0.002946,-0.125740,0.260198
38568,0.483867,-4.163732,10.718027,0.040017,-0.114672,0.356866
38569,0.569882,-4.364522,10.755002,0.145677,-0.105194,0.462640
38570,0.698237,-4.309735,10.931464,0.300340,-0.085524,0.568274
38571,0.685015,-4.028154,10.953873,0.442843,-0.058540,0.668482
38572,0.618403,-3.596460,10.947043,0.524231,-0.034412,0.773009
38573,0.668685,-3.291494,11.040531,0.551365,-0.014129,0.878178
38574,0.831446,-3.135315,11.135152,0.543292,0.016576,0.988844
38575,0.831811,-3.093398,11.219278,0.539756,0.059559,1.100948
38576,0.892278,-3.045455,11.169627,0.564608,0.096000,1.212483
38577,0.994272,-2.906823,11.170312,0.594389,0.133875,1.329613
38578,1.103566,-2.608538,11.286394,0.622025,0.177951,1.440986
38579,1.288028,-2.054369,11.416956,0.616303,0.228134,1.517699
38580,1.386097,-1.494715,11.462188,0.518613,0.286658,1.597655
38581,1.380034,-1.061496,11.579394,0.359748,0.335975,1.660679
38582,1.306319,-0.880423,11.631477,0.168048,0.391345,1.710432
38583,1.072357,-1.057467,11.529057,0.008373,0.445644,1.758107
38584,0.907865,-1.348663,11.347223,-0.070099,0.482324,1.801785
38585,0.911628,-1.612332,11.263391,-0.078330,0.511253,1.855750
38586,0.945442,-1.811081,11.112039,-0.052913,0.529734,1.913550
38587,1.047956,-1.915066,10.997172,0.005449,0.563714,1.986367
38588,1.122047,-1.863420,10.885733,0.084072,0.584642,2.066804
38589,1.255457,-1.784381,10.825655,0.142308,0.605770,2.149287
38590,1.342647,-1.691040,10.681133,0.181547,0.641793,2.247294
38591,1.368057,-1.463196,10.547403,0.178690,0.670612,2.355731
38592,1.332486,-1.220444,10.379530,0.136254,0.691433,2.466812
38593,1.362615,-1.043251,10.252002,0.044543,0.707428,2.581100
38594,1.412342,-1.054114,10.177237,-0.076923,0.717254,2.687981
38595,1.601783,-1.153114,10.134742,-0.195970,0.731791,2.804207
38596,1.702478,-1.354241,9.982458,-0.299940,0.742595,2.916387
38597,1.730405,-1.564015,9.786251,-0.358323,0.750710,3.038337
38598,1.686953,-1.757503,9.734962,-0.383886,0.752570,3.152520
38599,1.699430,-1.877739,9.536395,-0.363001,0.748024,3.261807
38600,1.721781,-1.942717,9.472783,-0.324111,0.732505,3.368313
38601,1.662359,-1.996109,9.377655,-0.270055,0.727346,3.476889
38602,1.576092,-1.949502,9.307925,-0.222114,0.707373,3.578398
38603,1.558745,-1.834534,9.258096,-0.185794,0.685336,3.676866
38604,1.571527,-1.685075,9.245572,-0.164899,0.669029,3.758551
38605,1.602980,-1.518435,9.242892,-0.144479,0.644353,3.835100
38606,1.521340,-1.283623,9.257726,-0.135106,0.630320,3.901445
38607,1.409943,-1.212559,9.246751,-0.133656,0.614487,3.961621
38608,1.311852,-1.100351,9.132764,-0.130960,0.607969,4.011892
38609,1.240292,-0.991913,9.098168,-0.113599,0.601551,4.054235
38610,1.158240,-0.747729,9.028806,-0.116752,0.593128,4.078259
38611,1.059713,-0.378803,9.046697,-0.137594,0.595580,4.098031
38612,1.040137,-0.048721,9.173773,-0.200420,0.593712,4.112618
38613,1.008458,0.194355,9.327398,-0.266541,0.608953,4.114061
38614,0.916725,0.247647,9.452127,-0.331343,0.631186,4.115461
38615,0.792470,0.331231,9.428042,-0.372510,0.643338,4.117777
38616,0.571503,0.504364,9.186695,-0.388770,0.635399,4.116731
38617,0.409324,0.891054,8.890953,-0.423889,0.607687,4.120548
38618,0.333983,1.180368,8.786683,-0.513810,0.560583,4.132234
38619,0.291441,1.379164,8.835869,-0.657910,0.495979,4.147080
38620,0.335271,1.348527,8.846907,-0.801915,0.429741,4.163300
38621,0.275941,1.178701,8.988673,-0.910693,0.366994,4.179070
38622,0.218644,0.823354,9.083631,-0.957085,0.296744,4.192528
38623,0.141155,0.585649,9.136579,-0.928028,0.230627,4.199993
38624,0.142062,0.414359,9.137843,-0.841880,0.169596,4.195107
38625,0.206781,0.459657,9.117814,-0.738936,0.119394,4.187398
38626,0.298880,0.634075,9.106294,-0.651355,0.072536,4.169595
38627,0.356203,0.891946,9.061998,-0.572921,0.035456,4.145908
38628,0.373842,1.079655,9.204450,-0.536861,-0.010105,4.129469
38629,0.458256,1.231813,9.296728,-0.514964,-0.066159,4.111910
38630,0.602636,1.331971,9.457306,-0.502811,-0.109796,4.092968
38631,0.636221,1.428528,9.686805,-0.498657,-0.133921,4.070367
38632,0.793736,1.572786,9.734225,-0.512325,-0.165685,4.056820
38633,0.831313,1.778569,9.796874,-0.541110,-0.187837,4.032244
38634,0.818740,1.946808,9.907817,-0.597668,-0.218923,4.003224
38635,0.785868,2.117374,9.881852,-0.677161,-0.244057,3.968145
38636,0.861516,2.267713,9.851329,-0.771859,-0.284628,3.917130
38637,0.930702,2.365260,9.880189,-0.870819,-0.322411,3.862802
38638,0.943860,2.261139,9.897611,-0.966612,-0.363417,3.810677
38639,0.962269,2.212124,9.964603,-1.048530,-0.409913,3.759012
38640,0.930515,2.138408,10.089531,-1.127788,-0.456180,3.698876
38641,0.935139,2.065551,10.036809,-1.217285,-0.503528,3.645276
38642,0.897834,2.060076,10.047051,-1.319623,-0.547326,3.583815
38643,0.986295,1.761192,9.984268,-1.453392,-0.610057,3.527053
38644,0.968326,1.471179,9.835458,-1.548065,-0.677762,3.465389
38645,1.258208,0.882451,10.078216,-1.594760,-0.760786,3.394266
38646,1.496853,0.267217,10.104595,-1.526926,-0.814807,3.327524
38647,1.638360,-0.130384,10.192053,-1.375634,-0.831990,3.256468
38648,1.559834,-0.263533,9.926061,-1.215067,-0.850925,3.199703
38649,1.489367,0.120513,9.954009,-1.068750,-0.858898,3.140040
38650,1.403024,0.861961,10.167771,-1.039133,-0.864699,3.070315
38651,1.416986,1.422172,10.487207,-1.168620,-0.858418,2.995927
38652,1.427996,1.807386,10.787454,-1.333636,-0.862224,2.885481
38653,1.475311,1.612217,10.974096,-1.531226,-0.847723,2.769737
38654,1.508022,1.192550,10.978638,-1.656215,-0.829645,2.639767
38655,1.560426,0.760255,10.931581,-1.701773,-0.800121,2.499527
38656,1.698161,0.466270,10.948377,-1.683389,-0.762136,2.355343
38657,1.741851,0.277363,10.963474,-1.657733,-0.696778,2.209930
38658,1.659916,0.033217,10.873950,-1.639818,-0.631948,2.073517
38659,1.538499,-0.195022,10.760233,-1.559779,-0.573053,1.927554
38660,1.485473,-0.274354,10.876686,-1.388298,-0.493111,1.744572
38661,1.423622,-0.093222,10.938746,-1.196393,-0.410516,1.554156
38662,1.462435,0.344194,11.076903,-1.011663,-0.321412,1.346902
38663,1.517110,0.719957,11.146537,-0.905185,-0.220516,1.125549
38664,1.463128,0.805775,11.141263,-0.844334,-0.112600,0.899691
38665,1.486593,0.699701,11.078369,-0.779409,-0.011753,0.655335
38666,1.589475,0.398303,10.918908,-0.740493,0.082891,0.414398
38667,1.603629,0.062998,10.729995,-0.691266,0.184143,0.185876
38668,1.440391,-0.100102,10.418028,-0.600551,0.275646,-0.066915
38669,1.374633,-0.420616,10.268527,-0.475500,0.363589,-0.313587
38670,1.367648,-0.890187,10.168764,-0.298912,0.448936,-0.527040
38671,1.286496,-1.251290,9.984416,-0.067082,0.530587,-0.724275
38672,1.197211,-1.329174,9.916970,0.160764,0.611515,-0.911534
38673,1.190490,-1.129290,9.826026,0.319698,0.685015,-1.081900
38674,1.145942,-0.757193,9.637862,0.361223,0.759158,-1.238566
38675,1.219348,-0.146918,9.414097,0.300706,0.833295,-1.390890
38676,1.254371,0.417288,9.257257,0.158190,0.908589,-1.563740
38677,1.229409,0.803741,9.203615,-0.040789,0.976901,-1.720845
38678,1.068599,0.915437,9.130826,-0.229763,1.024744,-1.880690
38679,0.951569,0.935656,9.000580,-0.388470,1.053576,-2.032110
38680,0.969653,0.908706,8.852722,-0.539827,1.085529,-2.182715
38681,1.095502,0.663816,8.520724,-0.696505,1.127640,-2.317414
38682,1.277033,-0.029652,8.192837,-0.834719,1.184306,-2.437682
38683,1.444340,-0.779583,7.645557,-0.926745,1.260074,-2.531261
38684,1.420528,-1.462314,7.311087,-0.932096,1.326323,-2.620413
38685,1.228257,-1.997754,6.964195,-0.899239,1.379002,-2.685423
38686,0.927634,-2.235371,6.602693,-0.843174,1.398037,-2.724802
38687,0.657257,-2.148277,6.453386,-0.808862,1.393237,-2.766549
38688,0.333000,-1.935424,6.444339,-0.885115,1.367487,-2.797558
38689,0.249693,-1.769421,6.406006,-1.129529,1.323818,-2.790690
38690,0.450913,-1.890868,6.186084,-1.488481,1.279475,-2.773950
38691,0.691778,-2.208744,6.046989,-1.882098,1.252038,-2.759031
38692,0.794350,-3.065963,5.762121,-2.279590,1.224409,-2.703296
38693,0.774884,-3.961349,5.410763,-2.519996,1.205886,-2.648473
38694,0.531598,-4.807745,5.259851,-2.574062,1.175984,-2.625836
38695,0.156300,-5.395172,5.161230,-2.482490,1.131910,-2.610615
38696,-0.143706,-5.487749,5.094680,-2.307436,1.081682,-2.599120
38697,-0.297735,-5.157860,5.096440,-2.146765,1.035544,-2.603109
38698,-0.234116,-4.649981,5.042650,-2.085069,0.996974,-2.620785
38699,-0.125223,-4.341676,4.858642,-2.179847,0.954319,-2.624723
38700,0.119780,-4.515616,4.397705,-2.417013,0.922744,-2.601002
38701,0.292020,-5.082298,3.806940,-2.688617,0.880408,-2.554838
38702,0.360392,-5.903400,3.262021,-2.880552,0.827336,-2.524629
38703,0.407636,-6.624625,3.096852,-2.934931,0.772284,-2.518209
38704,0.318964,-7.115460,3.244914,-2.807759,0.726206,-2.542773
38705,0.134741,-7.159261,3.590228,-2.566961,0.663476,-2.610168
38706,0.056085,-6.977604,3.903667,-2.335685,0.583096,-2.679471
38707,0.240460,-6.634117,4.107393,-2.164309,0.519661,-2.737041
38708,0.570570,-6.483241,4.087807,-2.109526,0.467459,-2.797168
38709,1.033791,-6.763404,3.613718,-2.152851,0.434979,-2.822151
38710,1.493356,-7.322709,3.139971,-2.192496,0.424744,-2.854733
38711,1.919467,-7.922212,2.771510,-2.185725,0.405733,-2.915559
38712,2.046437,-8.320486,2.413688,-2.085090,0.395948,-2.992363
38713,2.108171,-8.809179,2.341327,-1.925834,0.374440,-3.075823
38714,2.170787,-9.355140,2.530005,-1.706322,0.298543,-3.142724
38715,2.600637,-9.873199,2.883237,-1.551529,0.183894,-3.151721
38716,3.325397,-10.045283,3.356542,-1.539447,0.088809,-3.065099
38717,3.927793,-9.657522,4.001897,-1.733861,-0.017325,-2.925220
38718,4.395043,-8.966132,4.440218,-2.104908,-0.098027,-2.780462
38719,4.573293,-8.580495,4.708699,-2.577234,-0.118165,-2.659617
38720,4.474762,-8.528981,4.837886,-2.970447,-0.103198,-2.585117
38721,4.309628,-8.973376,4.542291,-3.158570,-0.064436,-2.565754
38722,4.233831,-9.983541,4.115659,-3.039464,-0.006281,-2.603421
38723,4.233124,-11.044185,3.578404,-2.592878,0.064286,-2.672103
38724,4.300395,-11.507851,3.187548,-1.958142,0.147080,-2.770101
38725,4.404891,-11.322654,2.722039,-1.360524,0.169935,-2.836130
38726,4.656000,-10.793159,2.529908,-0.982434,0.150966,-2.859000
38727,5.118261,-10.177997,2.672635,-0.866416,0.099610,-2.830564
38728,5.756401,-9.767771,2.892334,-0.915416,0.019562,-2.764602
38729,6.250494,-9.668986,3.202175,-1.028071,-0.068082,-2.682274
38730,6.682429,-9.946796,3.572303,-1.092484,-0.125483,-2.595041
38731,6.847075,-10.185122,3.816324,-1.049183,-0.149462,-2.508127
38732,6.792038,-10.208189,3.844668,-0.911275,-0.176862,-2.433449
38733,6.677380,-10.110867,3.755327,-0.778482,-0.200568,-2.378879
38734,6.647238,-9.930864,3.633052,-0.718420,-0.234973,-2.300786
38735,6.663982,-9.728727,3.484529,-0.679296,-0.264438,-2.235067
38736,6.838413,-9.749936,3.290115,-0.661623,-0.306391,-2.180417
38737,7.123602,-10.188072,3.224720,-0.556789,-0.340885,-2.127101
38738,7.431186,-10.506435,3.340286,-0.309824,-0.375985,-2.072681
38739,7.735657,-10.353138,3.455728,0.080762,-0.387106,-2.038463
38740,7.709905,-9.794374,3.644472,0.498780,-0.394337,-2.003159
38741,7.531312,-8.891807,3.807237,0.836874,-0.412320,-1.972206
38742,7.387905,-7.952056,3.918150,1.052592,-0.447799,-1.937511
38743,7.292647,-7.035444,3.947272,1.106267,-0.487547,-1.912965
38744,7.315338,-6.358009,3.940791,1.003937,-0.534388,-1.889980
38745,7.580028,-5.985434,3.990420,0.790352,-0.579393,-1.872459
38746,7.861891,-5.817044,3.883514,0.560314,-0.603435,-1.869471
38747,8.185305,-5.906067,3.998835,0.384669,-0.603315,-1.869567
38748,8.492303,-5.850376,4.108930,0.265784,-0.594794,-1.860883
38749,8.728921,-5.752297,4.216656,0.185179,-0.566649,-1.854736
38750,8.938667,-5.415962,4.268882,0.105198,-0.534704,-1.834550
38751,9.045884,-4.951071,4.238851,0.017359,-0.496901,-1.828381
38752,9.152490,-4.518754,4.156510,-0.107504,-0.458076,-1.818590
38753,9.242582,-4.334064,4.067388,-0.252220,-0.417753,-1.805562
38754,9.403384,-4.259922,3.893569,-0.389277,-0.376798,-1.787492
38755,9.513752,-4.194493,3.753029,-0.511237,-0.339122,-1.772800
38756,9.604649,-4.281223,3.520891,-0.611918,-0.298001,-1.762331
38757,9.743563,-4.442016,3.376003,-0.669466,-0.255997,-1.748437
38758,9.971516,-4.623130,3.281340,-0.685723,-0.213159,-1.730040
38759,10.259358,-4.695541,3.386734,-0.666349,-0.174529,-1.705271
38760,10.606719,-4.631452,3.382295,-0.629922,-0.134106,-1.664218
38761,10.781944,-4.537205,3.393175,-0.591282,-0.086447,-1.615361
38762,10.749820,-4.372639,3.282373,-0.546896,-0.052982,-1.556677
38763,10.704649,-4.319823,3.141127,-0.492132,-0.031682,-1.491145
38764,10.621036,-4.121033,2.995763,-0.406586,-0.009540,-1.424982
38765,10.462912,-3.819243,2.922989,-0.328886,0.005610,-1.375809
38766,10.385008,-3.613385,2.855903,-0.261653,-0.001972,-1.307046
38767,10.449162,-3.585338,2.836965,-0.199057,-0.005250,-1.248300
38768,10.515738,-3.605110,2.851181,-0.120927,0.001823,-1.195765
38769,10.402071,-3.504828,2.898254,-0.052135,0.014593,-1.141130
38770,10.336933,-3.355273,2.810389,-0.015817,0.025321,-1.071380
38771,10.291662,-3.127249,2.769851,-0.002579,0.036699,-1.006665
38772,10.294126,-3.036854,2.686777,-0.018195,0.046007,-0.932219
38773,10.243714,-2.760515,2.625129,-0.045343,0.050908,-0.867863
38774,10.192527,-2.381861,2.569663,-0.111551,0.056965,-0.796156
38775,10.086486,-2.239377,2.484067,-0.211004,0.057298,-0.728220
38776,10.032102,-2.207532,2.432551,-0.287344,0.052480,-0.657973
38777,9.908075,-2.170878,2.356546,-0.348065,0.048654,-0.590201
38778,9.819747,-2.250689,2.286757,-0.384949,0.048790,-0.533159
38779,9.771880,-2.299582,2.220644,-0.386155,0.049859,-0.496334
38780,9.780444,-2.373450,2.208114,-0.371901,0.050761,-0.446068
38781,9.771131,-2.426796,2.156884,-0.366619,0.050947,-0.405377
38782,9.830751,-2.463568,2.117499,-0.338872,0.047072,-0.358618
38783,9.818084,-2.399518,2.116815,-0.291526,0.050970,-0.322987
38784,9.743396,-2.259410,2.134799,-0.240379,0.052201,-0.292511
38785,9.637707,-2.105311,2.147468,-0.190522,0.044413,-0.261727
38786,9.611224,-1.957609,2.151495,-0.156580,0.030796,-0.229626
38787,9.555615,-1.906997,2.137643,-0.131698,0.015633,-0.208415
38788,9.621308,-1.901817,2.099454,-0.101749,0.006905,-0.192659
38789,9.637814,-2.055067,2.075228,-0.079337,-0.000884,-0.171309
38790,9.655206,-2.077014,2.011623,-0.037848,-0.007244,-0.153271
38791,9.678999,-2.100288,2.007783,0.007715,-0.012272,-0.133624
38792,9.649617,-2.026781,2.030916,0.049518,-0.020234,-0.109158
38793,9.649616,-1.904750,2.041158,0.085513,-0.024963,-0.084724
38794,9.646628,-1.739027,2.081898,0.104411,-0.029867,-0.067588
38795,9.615971,-1.636782,2.094578,0.106220,-0.037430,-0.052585
38796,9.619088,-1.506829,2.203413,0.093971,-0.033198,-0.043772
38797,9.620349,-1.468023,2.191608,0.075892,-0.032288,-0.036636
38798,9.621426,-1.396806,2.169677,0.056399,-0.029881,-0.039179
38799,9.590504,-1.463067,2.231405,0.039637,-0.025252,-0.038386
38800,9.594047,-1.470968,2.189072,0.021510,-0.024050,-0.036949
38801,9.546961,-1.492838,2.162684,0.008495,-0.016733,-0.035277
38802,9.559756,-1.580149,2.159611,-0.001065,-0.018682,-0.031019
38803,9.560650,-1.611015,2.167882,-0.001704,-0.016733,-0.015327
38804,9.581882,-1.613842,2.153793,0.008966,-0.019782,-0.000293
38805,9.582006,-1.547470,2.132102,0.022670,-0.021167,0.001656
38806,9.579828,-1.502155,2.160823,0.022693,-0.021443,0.007367
38807,9.595927,-1.448691,2.217426,0.017914,-0.022418,0.009498
38808,9.568874,-1.478504,2.178705,0.008987,-0.017882,0.005966
38809,9.571875,-1.557188,2.156690,0.011049,-0.019412,0.006216
38810,9.572357,-1.590201,2.165271,0.017857,-0.015338,-0.000288
38811,9.581723,-1.568920,2.173350,0.020918,-0.009871,-0.000859
38812,9.547523,-1.564639,2.066378,0.021935,-0.009410,-0.003318
38813,9.575333,-1.567597,2.112766,0.026749,-0.010891,-0.000287
38814,9.568716,-1.566959,2.052648,0.030179,-0.013351,-0.001775
38815,9.614769,-1.528123,2.116760,0.038067,-0.013722,-0.000409
38816,9.617463,-1.539231,2.075660,0.041470,-0.013736,-0.007065
38817,9.604284,-1.566807,2.156821,0.034956,-0.014300,-0.010168
38818,9.574755,-1.549365,2.149530,0.035995,-0.011931,-0.006373
38819,9.584090,-1.494009,2.147534,0.023308,-0.014446,-0.011854
38820,9.534143,-1.505673,2.162517,0.016085,-0.012231,-0.016400
38821,9.560355,-1.598469,2.088487,0.008231,-0.014308,-0.012594
38822,9.494418,-1.631530,2.034823,0.018193,-0.018386,-0.011525
38823,9.527436,-1.691347,2.009740,0.032617,-0.020372,-0.007606
38824,9.523214,-1.631859,2.078931,0.052507,-0.023906,-0.010097
38825,9.516699,-1.596891,2.007983,0.065205,-0.025494,-0.011422
38826,9.524240,-1.561027,2.055669,0.068309,-0.028757,-0.014176
38827,9.525097,-1.558191,2.053851,0.067990,-0.031741,-0.015982
38828,9.546962,-1.591551,2.049647,0.066934,-0.031695,-0.024948
38829,9.548043,-1.587327,2.047889,0.079257,-0.029468,-0.032179
38830,9.579136,-1.598221,2.053118,0.091620,-0.027498,-0.033702
38831,9.570414,-1.514762,2.012228,0.094706,-0.028348,-0.041630
38832,9.558070,-1.504675,2.082713,0.089950,-0.029327,-0.039485
38833,9.612152,-1.531410,2.035007,0.085891,-0.030893,-0.035349
38834,9.631660,-1.517837,2.061140,0.077713,-0.029636,-0.026002
38835,9.573258,-1.548060,2.067248,0.084936,-0.027238,-0.026114
38836,9.573849,-1.511381,2.055289,0.076778,-0.030340,-0.017829
38837,9.563155,-1.483628,2.074456,0.071004,-0.033936,-0.013742
38838,9.593024,-1.397974,2.047288,0.055886,-0.033811,-0.014443
38839,9.583081,-1.436616,2.086810,0.036979,-0.034196,-0.015446
38840,9.586572,-1.480099,2.054273,0.027002,-0.034498,-0.017570
38841,9.578908,-1.531390,2.053445,0.026254,-0.031506,-0.024744
38842,9.628072,-1.501958,2.074745,0.030696,-0.029171,-0.027637
38843,9.620120,-1.519173,2.063875,0.035118,-0.028800,-0.036774
38844,9.609628,-1.490069,2.083053,0.046099,-0.023691,-0.036069
38845,9.569913,-1.510720,2.117111,0.046075,-0.023478,-0.041785
38846,9.602759,-1.501606,2.071363,0.049564,-0.023990,-0.037029
38847,9.593175,-1.537943,2.112020,0.055806,-0.026393,-0.035747
38848,9.584239,-1.488718,2.080812,0.067863,-0.023246,-0.032334
38849,9.642344,-1.436523,2.111643,0.069259,-0.024203,-0.034073
38850,9.645913,-1.478021,2.080733,0.062089,-0.024653,-0.027701
38851,9.617236,-1.491473,2.083280,0.059026,-0.025758,-0.026011
38852,9.627660,-1.499342,2.101075,0.071760,-0.022974,-0.026335
38853,9.636989,-1.441277,2.097663,0.068640,-0.021687,-0.029836
38854,9.649457,-1.461761,2.075783,0.065842,-0.017405,-0.031559
38855,9.620689,-1.474917,2.079116,0.061765,-0.018938,-0.027397
38856,9.670151,-1.476862,2.112610,0.064129,-0.015089,-0.030563
38857,9.611817,-1.507007,2.120521,0.064450,-0.014095,-0.035026
38858,9.612547,-1.502536,2.120386,0.074133,-0.010404,-0.027432
38859,9.616455,-1.577221,2.102180,0.072771,-0.009461,-0.025699
38860,9.586811,-1.558281,2.095749,0.076316,-0.010137,-0.015230
38861,9.594989,-1.467842,2.082763,0.100747,-0.006805,-0.025397
38862,9.570346,-1.314918,2.092232,0.092810,-0.008490,-0.032954
38863,9.559955,-1.317655,2.124381,0.066868,-0.005958,-0.037173
38864,9.622300,-1.408960,2.159981,0.039551,-0.004658,-0.040171
38865,9.598874,-1.514055,2.106624,0.021466,0.004112,-0.041524
38866,9.624811,-1.572654,2.026297,0.034106,0.013657,-0.046050
