// Start Time: Unknown
// Update Rate: 100.0Hz
// Filter Profile: human (46.1)
// Firmware Version: 4.3.5
PacketCounter,Acc_X,Acc_Y,Acc_Z,Gyr_X,Gyr_Y,Gyr_Z
33539,9.748885,0.448622,1.250467,0.056351,0.070421,-0.001446
33540,9.721125,0.457223,1.277750,0.056852,0.078357,-0.000133
33541,9.688683,0.482774,1.322486,0.066259,0.086387,0.004871
33542,9.709405,0.400834,1.422187,0.067333,0.107434,0.002785
33543,9.654285,0.285705,1.465998,0.065112,0.125015,0.008210
33544,9.670395,0.236765,1.462657,0.071345,0.139916,0.011314
33545,9.832476,0.251567,1.543460,0.088496,0.167409,0.012593
33546,10.007419,0.289980,1.606841,0.107752,0.201258,0.024336
33547,10.225449,0.310300,1.739800,0.120038,0.228231,0.037797
33548,10.328364,0.240745,1.757940,0.128761,0.269143,0.043722
33549,10.282970,0.278002,1.805662,0.153396,0.299118,0.054794
33550,10.259281,0.324103,1.852726,0.162571,0.326777,0.060528
33551,10.162936,0.359607,1.928295,0.171228,0.356336,0.065350
33552,10.083844,0.345477,1.991157,0.168552,0.388384,0.075996
33553,10.075086,0.285138,2.053944,0.168479,0.425320,0.088045
33554,10.222045,0.156485,2.094319,0.184578,0.458315,0.104647
33555,10.378238,0.122915,2.113376,0.211328,0.502855,0.117419
33556,10.447529,0.111464,2.162254,0.265623,0.566523,0.113669
33557,10.480323,0.280207,2.308090,0.317028,0.621864,0.103863
33558,10.535729,0.463717,2.490734,0.342477,0.675961,0.098486
33559,10.540930,0.576041,2.706710,0.343681,0.733322,0.090523
33560,10.557329,0.764815,2.850441,0.317591,0.800814,0.077679
33561,10.577572,0.940256,3.019462,0.268332,0.869698,0.067667
33562,10.560395,0.981236,3.107431,0.198069,0.930495,0.064919
33563,10.541599,0.939588,3.141374,0.118284,0.982506,0.067807
33564,10.455432,0.791911,3.159968,0.064412,1.038851,0.075659
33565,10.363134,0.452053,3.169971,0.030020,1.084683,0.080813
33566,10.312458,0.205561,3.208287,0.038744,1.146947,0.089149
33567,10.211866,0.014362,3.245741,0.070051,1.214555,0.089066
33568,10.107315,-0.102772,3.279261,0.113093,1.269639,0.088613
33569,10.065076,-0.111830,3.376206,0.145649,1.329565,0.097161
33570,10.042834,-0.045608,3.557173,0.144564,1.375389,0.109540
33571,10.033047,-0.027063,3.766828,0.114824,1.425264,0.127962
33572,9.951726,-0.042385,3.945515,0.073199,1.478414,0.159069
33573,9.827122,-0.097610,4.111091,0.027823,1.531051,0.189565
33574,9.698060,-0.220501,4.233832,-0.004779,1.575918,0.231123
33575,9.610203,-0.331274,4.362236,-0.006378,1.636493,0.287997
33576,9.468030,-0.483204,4.598734,0.006189,1.719511,0.340201
33577,9.332861,-0.553928,4.867294,0.006048,1.811846,0.396809
33578,9.252180,-0.689036,5.001171,-0.009581,1.901860,0.461849
33579,9.488890,-0.963346,5.045294,-0.009813,1.973004,0.534903
33580,9.899918,-1.188990,5.014239,0.027071,2.031834,0.604315
33581,10.150914,-1.357576,5.031920,0.083100,2.066034,0.651778
33582,10.117969,-1.334599,5.090579,0.135029,2.073880,0.673119
33583,9.960057,-1.253464,5.160834,0.172090,2.062869,0.673546
33584,9.762287,-1.030859,5.320052,0.196781,2.047148,0.655876
33585,9.541623,-0.842577,5.414337,0.188502,2.041700,0.642432
33586,9.330935,-0.699232,5.528859,0.140763,2.044407,0.636045
33587,9.098237,-0.626446,5.527265,0.075203,2.046790,0.646789
33588,9.048099,-0.636083,5.545305,0.025513,2.059396,0.656715
33589,8.945808,-0.702996,5.759578,-0.028476,2.086590,0.676292
33590,8.779259,-0.721985,5.939805,-0.083179,2.107852,0.694865
33591,8.557976,-0.739552,6.169398,-0.119496,2.111260,0.710159
33592,8.419261,-0.762240,6.318828,-0.141136,2.101830,0.730157
33593,8.256809,-0.745115,6.426355,-0.128829,2.094187,0.739896
33594,7.951322,-0.711662,6.528878,-0.086092,2.076254,0.755723
33595,7.809603,-0.864922,6.627903,-0.074424,2.051035,0.736201
33596,7.779871,-1.032938,6.467661,-0.029488,2.036071,0.715222
33597,7.589992,-0.986798,6.614162,0.048360,2.018480,0.691394
33598,7.474271,-0.902626,6.712573,0.061241,2.001839,0.672111
33599,7.285612,-0.779403,6.770758,0.049277,1.984702,0.655253
33600,6.985469,-0.684004,6.876544,0.026636,1.949242,0.637332
33601,6.811696,-0.657744,6.946584,-0.018773,1.914342,0.625193
33602,6.776004,-0.745071,7.030173,-0.035719,1.896622,0.625174
33603,6.680191,-0.835765,7.112627,-0.023228,1.881203,0.625750
33604,6.439569,-0.969539,7.110570,0.018620,1.857062,0.617905
33605,6.182622,-1.009286,7.221073,0.071580,1.813186,0.603852
33606,5.874124,-1.001265,7.217557,0.101215,1.756541,0.588286
33607,5.642725,-1.038844,7.210085,0.143555,1.706352,0.562377
33608,5.485273,-1.040719,7.297792,0.198764,1.662576,0.526289
33609,5.414978,-1.006835,7.426628,0.239733,1.600117,0.504903
33610,5.412560,-1.085545,7.656566,0.257111,1.573417,0.503341
33611,5.305552,-1.092467,7.686434,0.250407,1.559004,0.501436
33612,5.051945,-1.114619,7.693516,0.275205,1.543194,0.502481
33613,4.719394,-1.164709,7.748942,0.316122,1.516192,0.485205
33614,4.377099,-1.146054,7.757973,0.354095,1.467131,0.456952
33615,4.236510,-1.147349,8.019834,0.384782,1.424707,0.436435
33616,4.242249,-1.079533,8.123793,0.364604,1.402748,0.431181
33617,4.063619,-1.050763,8.103805,0.370917,1.357999,0.435215
33618,3.953348,-1.114840,8.143252,0.423326,1.313342,0.440164
33619,4.000081,-1.121412,8.296213,0.426580,1.302016,0.452511
33620,3.747977,-1.146887,8.219888,0.434160,1.288326,0.456014
33621,3.488601,-1.153967,8.176908,0.516053,1.262258,0.457243
33622,3.218521,-0.977600,8.324527,0.562916,1.240192,0.438939
33623,3.018403,-1.013346,8.332842,0.606929,1.148483,0.435251
33624,3.251803,-1.235629,8.299799,0.666518,1.081669,0.451453
33625,3.438408,-1.219056,8.353121,0.697073,1.058980,0.470095
33626,3.504969,-1.222858,8.504769,0.703257,1.034860,0.489367
33627,3.200424,-1.170906,8.516101,0.701820,1.004397,0.516252
33628,2.885422,-1.060353,8.669884,0.687971,0.982908,0.507496
33629,2.594114,-0.803774,8.858824,0.669301,0.945861,0.490382
33630,2.400160,-0.704237,8.919335,0.637493,0.914575,0.483636
33631,2.337682,-0.577451,9.030384,0.567992,0.917054,0.479196
33632,2.087922,-0.357179,9.181742,0.504121,0.898024,0.472326
33633,2.078060,-0.517313,8.991176,0.460370,0.834358,0.495381
33634,2.371755,-0.635458,8.922830,0.414108,0.842153,0.518922
33635,2.199841,-0.736882,9.003333,0.390379,0.878681,0.535164
33636,1.885908,-0.789880,9.011971,0.387024,0.833112,0.550665
33637,1.851081,-0.696407,9.133848,0.394725,0.804283,0.535673
33638,1.912455,-0.606828,9.023987,0.395490,0.762233,0.541987
33639,1.946577,-0.718681,8.922233,0.413999,0.739367,0.564068
33640,1.726596,-0.700295,8.943767,0.463508,0.737636,0.550816
33641,1.585872,-0.539817,9.115882,0.483639,0.715892,0.537014
33642,1.569564,-0.536220,8.906658,0.481151,0.675699,0.551480
33643,1.438079,-0.184302,9.143225,0.527678,0.649255,0.543361
33644,1.490054,-0.396726,8.749931,0.486224,0.584880,0.562445
33645,1.723399,-0.117560,8.828018,0.505386,0.601547,0.547278
33646,1.511481,-0.066312,8.836619,0.466988,0.581694,0.554883
33647,1.453800,-0.008615,8.899202,0.433986,0.593060,0.523743
33648,1.172456,0.335423,9.097685,0.407879,0.577647,0.483447
33649,1.080925,0.348685,9.072878,0.374324,0.536713,0.470819
33650,1.051023,0.356241,9.045080,0.372077,0.536922,0.440260
33651,1.024388,0.474641,9.129779,0.363432,0.526818,0.408790
33652,1.052041,0.635133,9.175944,0.355956,0.501467,0.389524
33653,1.210485,0.468504,9.122754,0.309596,0.489730,0.377094
33654,1.148130,0.582374,9.394365,0.286630,0.528465,0.345733
33655,0.687994,0.552526,9.563055,0.199678,0.493875,0.314812
33656,0.679469,0.614335,9.648546,0.211489,0.447456,0.270136
33657,0.734257,0.803673,9.755280,0.224414,0.475037,0.225029
33658,0.726864,0.710222,9.766898,0.260177,0.484907,0.183634
33659,0.584569,0.673408,9.664372,0.372075,0.480945,0.122614
33660,0.684490,0.474929,9.655046,0.449148,0.462138,0.085015
33661,0.685473,0.683405,9.869976,0.454980,0.426455,0.044818
33662,0.653810,0.740365,9.945270,0.470452,0.404677,-0.026890
33663,0.511013,1.111737,9.906390,0.487560,0.362847,-0.094782
33664,0.703933,1.301797,9.814361,0.497243,0.330417,-0.165040
33665,0.826010,1.318121,9.774344,0.431527,0.359837,-0.241623
33666,0.684571,1.358182,9.625717,0.382792,0.322887,-0.315642
33667,0.703352,1.473641,9.493430,0.353372,0.300511,-0.389975
33668,0.664423,1.627062,9.430535,0.301954,0.260681,-0.464185
33669,0.733091,1.663901,9.243156,0.258643,0.233738,-0.549514
33670,0.832795,1.714549,9.287157,0.182387,0.205073,-0.628388
33671,0.782490,1.824178,9.405313,0.127207,0.198073,-0.724685
33672,0.880356,1.928371,9.321797,0.105234,0.195985,-0.846076
33673,0.928907,2.181885,9.459138,0.055181,0.220354,-0.984802
33674,1.037454,2.184730,9.537114,-0.040116,0.267376,-1.139165
33675,1.089200,2.272757,9.636444,-0.143078,0.324062,-1.311762
33676,0.900351,2.366792,9.744563,-0.244792,0.347867,-1.486174
33677,0.880446,2.375587,9.754667,-0.299693,0.328913,-1.645064
33678,0.755823,2.407072,10.041981,-0.337928,0.335192,-1.802431
33679,0.668305,2.222441,10.082830,-0.367703,0.356534,-1.967875
33680,0.538742,2.029254,10.384375,-0.354368,0.408715,-2.115452
33681,0.467052,1.522074,10.469885,-0.372269,0.464816,-2.218591
33682,0.233049,1.032113,10.388251,-0.318338,0.498901,-2.295693
33683,0.062729,0.285478,10.186932,-0.318093,0.444164,-2.371245
33684,0.062565,-0.293155,9.990496,-0.204607,0.368672,-2.450608
33685,0.131671,-0.902303,9.932504,-0.108889,0.298067,-2.504704
33686,0.174088,-1.341559,9.809461,0.007146,0.243035,-2.507367
33687,-0.014062,-1.711093,9.682898,0.116504,0.185476,-2.449332
33688,-0.283783,-1.929788,9.797528,0.229825,0.117390,-2.366590
33689,-0.339304,-1.918283,9.801917,0.322181,0.065587,-2.246386
33690,-0.325597,-1.858585,9.747176,0.370156,0.026224,-2.118678
33691,-0.285605,-1.754907,9.615936,0.388085,-0.001438,-1.973068
33692,-0.390775,-1.729501,9.548199,0.383429,0.018361,-1.817532
33693,-0.628070,-1.699734,9.449859,0.374564,0.029835,-1.652605
33694,-0.838408,-1.633937,9.407709,0.414438,0.044000,-1.523922
33695,-0.928324,-1.348649,9.486231,0.433462,0.048769,-1.404397
33696,-1.193031,-1.164244,9.557445,0.401175,0.062296,-1.297747
33697,-1.394092,-1.185535,9.566151,0.330445,0.018856,-1.191341
33698,-1.456130,-1.112191,9.419161,0.242719,-0.024345,-1.097795
33699,-1.495743,-1.125213,9.304493,0.196128,-0.064142,-1.027097
33700,-1.475578,-0.908820,9.399109,0.198663,-0.089230,-0.969776
33701,-1.188675,-0.900064,9.542475,0.128550,-0.098534,-0.937034
33702,-1.028575,-0.919210,9.557520,0.132916,-0.101107,-0.889629
33703,-0.920584,-0.736578,9.678998,0.156662,-0.126903,-0.831337
33704,-0.813100,-0.579958,9.702480,0.079019,-0.137881,-0.753599
33705,-0.614386,-0.530987,9.648953,-0.005661,-0.120859,-0.684399
33706,-0.401932,-0.416063,9.613207,-0.031884,-0.057696,-0.598949
33707,-0.462595,-0.248638,9.676050,-0.072519,0.011021,-0.529962
33708,-0.538239,-0.187250,9.568886,-0.167917,0.034135,-0.459224
33709,-0.602802,-0.169088,9.422325,-0.228409,0.020215,-0.397307
33710,-0.788900,-0.140448,9.178125,-0.284852,-0.011758,-0.338733
33711,-0.908094,-0.243311,9.342368,-0.249301,-0.098883,-0.314087
33712,-0.863194,-0.234138,9.621870,-0.242448,-0.195606,-0.291165
33713,-0.500215,-0.309491,9.456085,-0.328048,-0.234608,-0.256828
33714,-0.290750,-0.157764,9.205674,-0.303983,-0.187996,-0.218808
33715,-0.262171,0.107990,9.475558,-0.263663,-0.144148,-0.192761
33716,-0.318717,0.357994,9.791462,-0.364934,-0.065238,-0.192116
33717,-0.429943,0.471704,9.712070,-0.496588,-0.010220,-0.212550
33718,-0.457126,0.527509,9.616535,-0.516197,0.014293,-0.216704
33719,-0.389210,0.675624,9.708280,-0.541931,0.034740,-0.217875
33720,-0.388733,0.621506,10.032841,-0.592081,0.051037,-0.222804
33721,-0.389409,0.636240,10.001222,-0.701057,0.021770,-0.242052
33722,-0.284148,0.356576,9.728966,-0.762698,0.017457,-0.229917
33723,-0.294804,0.184617,9.533207,-0.752104,-0.007052,-0.256169
33724,0.014951,0.200750,9.534394,-0.747393,-0.024279,-0.326936
33725,0.150538,0.214332,9.853326,-0.764648,0.037532,-0.331944
33726,-0.192666,-0.038454,9.837448,-0.810980,0.073029,-0.323254
33727,-0.456581,-0.415223,9.695420,-0.753582,0.082985,-0.367581
33728,-0.545468,-0.072456,9.390175,-0.753025,0.058906,-0.453175
33729,-0.396896,0.294776,9.469473,-0.821253,0.066317,-0.501301
33730,-0.416703,0.259569,9.847127,-0.894994,0.072304,-0.518233
33731,-0.448362,0.040243,9.816923,-0.969889,0.065328,-0.521490
33732,-0.275175,0.086941,9.642246,-1.013398,0.063456,-0.562606
33733,-0.145319,-0.203157,9.660781,-1.089155,0.088853,-0.576203
33734,-0.206013,-0.342863,9.081840,-1.157914,0.072369,-0.617056
33735,-0.002802,-0.259622,9.126655,-1.064487,0.077579,-0.690103
33736,-0.027736,-0.117715,9.490664,-1.068661,0.099474,-0.744685
33737,-0.138106,0.231879,9.372572,-1.204668,0.077570,-0.815569
33738,0.086211,0.783592,9.656015,-1.261503,0.056479,-0.896769
33739,0.179715,1.265998,9.906498,-1.360789,0.055663,-0.973968
33740,0.206500,1.367230,9.735961,-1.545036,0.038615,-1.027119
33741,0.365586,1.054408,9.349138,-1.604976,0.029403,-1.100954
33742,0.397701,0.547668,9.310160,-1.601579,0.032959,-1.171327
33743,0.197426,-0.238100,9.182201,-1.605880,0.032783,-1.230097
33744,0.072856,-1.225180,9.036691,-1.612589,0.008737,-1.291660
33745,-0.007064,-2.432140,8.920986,-1.572438,0.000337,-1.321281
33746,-0.139829,-3.845681,8.735156,-1.469938,-0.012133,-1.288372
33747,0.000751,-4.926579,8.309797,-1.206399,-0.066754,-1.249120
33748,0.670585,-4.769031,8.136815,-0.740373,-0.081542,-1.249267
33749,0.936295,-4.012205,8.785240,-0.525923,-0.080183,-1.215339
33750,0.828389,-3.598409,9.094599,-0.502680,-0.111067,-1.172664
33751,0.687873,-3.249516,9.490764,-0.512506,-0.127168,-1.118568
33752,0.338429,-3.180769,9.661697,-0.605271,-0.134124,-1.036338
33753,0.135461,-3.384185,9.575532,-0.664731,-0.138906,-0.952292
33754,0.176342,-3.831931,9.416823,-0.655906,-0.148160,-0.842341
33755,0.391079,-4.297565,9.169689,-0.577598,-0.149051,-0.738861
33756,0.616923,-4.542597,9.126414,-0.390141,-0.150047,-0.649275
33757,0.796547,-4.377079,9.404568,-0.230052,-0.143557,-0.563340
33758,0.771122,-4.358202,9.495220,-0.167521,-0.124737,-0.475541
33759,0.668644,-4.373711,9.474491,-0.119454,-0.123981,-0.379442
33760,0.532742,-4.475672,9.513544,-0.109036,-0.126316,-0.268492
33761,0.546031,-4.718642,9.477765,-0.092118,-0.141370,-0.154904
33762,0.752329,-4.920950,9.473479,-0.022621,-0.126288,-0.064777
33763,0.898647,-4.927318,9.609768,0.045339,-0.090154,0.025352
33764,0.803103,-4.910907,9.620203,0.091631,-0.062369,0.098503
33765,0.694663,-4.626467,9.637964,0.136968,-0.044521,0.151874
33766,0.729997,-4.305606,9.739160,0.137406,-0.018785,0.208199
33767,0.777553,-3.925937,9.734448,0.102300,0.026026,0.248296
33768,0.759168,-3.594803,9.834825,0.047218,0.066156,0.275277
33769,0.740162,-3.314259,9.788222,-0.052249,0.096762,0.286980
33770,0.693649,-2.947354,9.561859,-0.129176,0.125678,0.282521
33771,0.672058,-2.639089,9.655858,-0.195402,0.132093,0.262969
33772,0.641050,-2.689254,9.628348,-0.299909,0.146442,0.261507
33773,0.687690,-2.822288,9.671059,-0.354974,0.172128,0.251126
33774,0.642897,-3.038360,9.626659,-0.360439,0.204510,0.246551
33775,0.531873,-3.220899,9.657966,-0.318884,0.235540,0.245676
33776,0.412146,-3.461654,9.546493,-0.265395,0.239807,0.248340
33777,0.304105,-3.668480,9.482740,-0.163597,0.239677,0.244591
33778,0.257648,-3.779309,9.462129,-0.029977,0.235159,0.244634
33779,0.219047,-3.725188,9.412527,0.096460,0.218004,0.245341
33780,0.264847,-3.718253,9.389272,0.197615,0.205098,0.268268
33781,0.337770,-3.823118,9.326520,0.300558,0.213757,0.306410
33782,0.279202,-3.842457,9.223733,0.438075,0.221995,0.330652
33783,0.218611,-3.922520,9.204513,0.556512,0.221616,0.354184
33784,0.120723,-3.951795,9.189223,0.642982,0.223036,0.386634
33785,0.013482,-3.924738,9.100477,0.723442,0.228870,0.410985
33786,-0.097916,-3.837801,9.009459,0.781451,0.225064,0.453068
33787,-0.186198,-3.631356,8.857299,0.811140,0.236525,0.468771
33788,-0.468491,-3.326697,8.579782,0.817827,0.195372,0.474433
33789,-0.603259,-3.254250,8.265915,0.767738,0.109103,0.464961
33790,-0.587393,-3.348261,8.059786,0.694775,0.027297,0.467867
33791,-0.493922,-3.410168,7.992185,0.609791,-0.057938,0.471214
33792,-0.500052,-3.298763,8.077407,0.526008,-0.131810,0.468261
33793,-0.439364,-3.233985,8.259737,0.425121,-0.178503,0.487530
33794,-0.436059,-3.301189,8.508136,0.307361,-0.187002,0.518044
33795,-0.447161,-3.404781,8.708827,0.201445,-0.190503,0.575818
33796,-0.346581,-3.499230,9.020012,0.092658,-0.135853,0.633405
33797,-0.413658,-3.377970,9.206983,0.009622,-0.064203,0.676660
33798,-0.602604,-3.281476,9.253734,-0.050912,-0.052084,0.712189
33799,-0.672810,-3.435065,9.350364,-0.103432,-0.055018,0.746383
33800,-0.604255,-3.689318,9.324796,-0.160381,-0.046010,0.799010
33801,-0.641593,-3.976565,9.308055,-0.170171,-0.024919,0.834521
33802,-0.771779,-4.315611,9.182386,-0.082397,-0.043771,0.879384
33803,-0.682274,-4.492095,9.345344,0.034785,-0.106327,0.943693
33804,-0.468280,-4.637138,9.402336,0.148543,-0.151161,1.006787
33805,-0.029115,-4.482622,9.455648,0.250914,-0.151796,1.095403
33806,-0.129981,-4.085555,9.546395,0.315367,-0.092774,1.165932
33807,-0.636454,-3.877379,9.552295,0.401449,-0.110657,1.212555
33808,-0.685664,-3.670038,9.573684,0.473271,-0.180934,1.263232
33809,-0.361222,-3.341591,9.890792,0.469601,-0.180461,1.305183
33810,0.042351,-3.179012,9.847014,0.394126,-0.154718,1.367744
33811,0.124798,-2.892085,9.710215,0.369968,-0.078591,1.431536
33812,-0.134527,-3.295314,9.241350,0.421613,-0.005504,1.497782
33813,-0.102579,-3.587013,9.276109,0.502974,0.070392,1.526313
33814,-0.079121,-3.377819,9.457741,0.514401,0.146231,1.566653
33815,-0.553161,-3.051724,9.670680,0.461622,0.141597,1.602415
33816,-0.266053,-2.852358,9.348808,0.503798,0.094785,1.625594
33817,0.147959,-2.508448,9.261182,0.539945,0.175392,1.599920
33818,-0.195479,-2.563270,9.323634,0.499595,0.255368,1.538791
33819,-0.599022,-2.485717,9.395093,0.563029,0.241812,1.482602
33820,-0.814515,-2.236970,9.891002,0.608637,0.237566,1.435097
33821,-0.660353,-1.744795,10.271992,0.482471,0.288662,1.424189
33822,-0.659510,-0.945775,10.175222,0.176539,0.423546,1.484541
33823,-1.617926,-0.546790,9.798166,-0.146442,0.451856,1.561336
33824,-1.977378,-1.217769,9.325929,-0.231125,0.286996,1.574135
33825,-1.451073,-2.130625,9.028340,0.004316,0.158842,1.519807
33826,-0.919580,-2.832070,8.876812,0.421999,0.220120,1.374379
33827,-1.454918,-2.789368,8.601569,0.866675,0.149419,1.240737
33828,-1.468275,-1.343683,9.238236,1.141688,-0.014104,1.119550
33829,-1.486635,-0.175491,9.264207,1.090160,-0.135617,1.073978
33830,-1.148885,0.242699,9.113812,0.946462,-0.318850,1.073549
33831,-0.553171,-0.262156,8.823922,0.688816,-0.393966,1.070945
33832,-0.755247,-0.667474,8.841174,0.649437,-0.506662,1.007250
33833,-0.309610,-0.664957,8.579979,0.688024,-0.649226,0.897187
33834,-0.306671,0.153123,8.487846,0.754002,-0.687540,0.696680
33835,-0.530647,0.991663,8.545339,0.697515,-0.773570,0.532240
33836,-0.139746,1.204268,8.346759,0.605805,-0.789255,0.333953
33837,-0.110992,1.487699,8.260509,0.521864,-0.788122,0.140744
33838,-0.216084,1.739161,8.280718,0.424111,-0.797365,-0.061717
33839,-0.303260,1.740384,8.236107,0.289254,-0.845446,-0.242247
33840,-0.259159,1.443208,8.325574,0.159062,-0.906216,-0.388503
33841,-0.329863,0.854001,8.392926,0.077337,-0.985810,-0.485677
33842,-0.481265,0.246329,8.437940,0.116173,-1.118070,-0.556800
33843,-0.268652,-0.073557,8.277648,0.284504,-1.312952,-0.617798
33844,-0.207608,-0.286726,8.182909,0.479685,-1.531491,-0.669536
33845,0.033219,-0.457395,7.988345,0.679794,-1.787413,-0.735791
33846,0.095645,-0.472131,7.564457,0.934198,-2.053792,-0.789610
33847,0.177137,-0.323883,7.251762,1.338657,-2.407285,-0.834938
33848,0.427492,-0.099852,6.778265,1.411720,-2.676292,-0.914515
33849,0.676972,-0.002275,6.251891,1.622119,-2.984678,-0.986604
33850,0.980879,0.261354,5.954042,1.680552,-3.273547,-1.025351
33851,1.551441,0.199349,5.282192,1.731479,-3.560463,-1.058783
33852,2.410012,0.193882,4.687478,1.742513,-3.801154,-1.042812
33853,2.838077,-0.133648,3.917523,1.705727,-3.985551,-1.003662
33854,3.269332,-0.258726,4.040381,1.654448,-4.195154,-0.965311
33855,4.122308,-0.182931,4.123953,1.595421,-4.321410,-0.957402
33856,4.685539,0.591024,4.793296,1.542460,-4.343878,-0.946923
33857,4.749559,1.230085,5.546095,1.458004,-4.330866,-0.901092
33858,5.114559,1.980272,6.126107,1.307425,-4.252935,-0.841842
33859,5.823100,2.297148,6.322061,1.107236,-4.140354,-0.745818
33860,6.607429,1.790709,6.420035,0.885442,-3.964686,-0.640247
33861,6.999988,1.625368,6.872162,0.728818,-3.661933,-0.583523
33862,6.621373,1.998001,7.787892,0.593570,-3.524550,-0.503101
33863,6.451130,1.943172,8.108113,0.390832,-3.500202,-0.390414
33864,6.701264,2.115714,7.768783,0.222239,-3.440782,-0.328972
33865,6.958869,2.002737,7.439834,0.163929,-3.439212,-0.246549
33866,7.510473,1.330054,7.173749,0.167339,-3.406685,-0.158428
33867,7.905580,1.011053,6.906898,0.227547,-3.275895,-0.100844
33868,7.937104,0.842263,6.879679,0.305525,-3.216000,-0.020158
33869,8.255109,0.366301,6.934575,0.290121,-3.158927,0.047482
33870,8.483735,0.390149,6.623984,0.336354,-3.024509,0.085815
33871,8.171160,0.776480,6.791282,0.450617,-2.991057,0.109431
33872,8.602242,1.059220,6.520043,0.459936,-2.972256,0.130979
33873,9.240719,1.666303,6.376346,0.540727,-2.918774,0.137898
33874,9.603385,2.162312,6.522867,0.606559,-2.756304,0.193131
33875,9.489014,2.166738,6.440702,0.497376,-2.574864,0.242113
33876,9.621481,1.727064,6.064511,0.360907,-2.456096,0.278062
33877,10.179413,1.269889,5.722134,0.333255,-2.362859,0.355982
33878,10.818640,1.015211,5.641977,0.310726,-2.221946,0.415339
33879,11.089791,0.980870,5.574631,0.230661,-2.085797,0.459878
33880,11.095615,0.926222,5.139236,0.025198,-1.965546,0.509576
33881,10.763382,0.917676,4.900849,-0.018886,-1.898862,0.522916
33882,10.725472,1.418244,5.399902,0.196394,-1.808203,0.459986
33883,10.296310,1.927347,5.724590,0.230527,-1.621359,0.411725
33884,9.983683,1.848054,5.294957,0.144058,-1.525528,0.407563
33885,10.205296,1.645932,4.555148,0.114734,-1.471997,0.430822
33886,10.577013,1.571212,3.870098,0.127718,-1.439494,0.505427
33887,10.956605,1.536197,3.170217,0.146455,-1.447349,0.615600
33888,11.377209,1.431345,2.527799,0.168087,-1.472590,0.741487
33889,11.861948,1.418020,2.370719,0.289464,-1.491547,0.811814
33890,12.183491,1.596772,2.572131,0.400443,-1.413691,0.820203
33891,11.907482,1.922297,2.860140,0.369551,-1.289396,0.797026
33892,11.428010,2.072676,2.962572,0.326440,-1.187700,0.746142
33893,10.984836,2.485524,3.035769,0.348570,-1.132821,0.669167
33894,10.810171,2.989310,3.096914,0.333274,-1.097674,0.595442
33895,10.845626,3.440696,2.936174,0.237564,-1.042042,0.517272
33896,10.849694,3.721269,2.697941,0.120788,-0.951044,0.465813
33897,10.681704,3.736203,2.476921,-0.001852,-0.872398,0.448256
33898,10.632943,3.776934,2.264070,-0.117600,-0.828929,0.407085
33899,10.779475,3.829241,2.162293,-0.233381,-0.792360,0.313691
33900,11.003817,3.771133,2.057875,-0.390306,-0.705136,0.215074
33901,10.975402,3.355141,2.064975,-0.531843,-0.622709,0.139870
33902,10.870409,2.996593,2.143273,-0.660463,-0.566046,0.073589
33903,10.861204,2.633697,2.119705,-0.778100,-0.508826,0.019440
33904,10.743293,2.415705,2.237021,-0.869334,-0.451613,0.004703
33905,10.593881,2.004057,2.254014,-0.986818,-0.398020,0.035558
33906,10.413417,1.488242,2.096539,-1.068506,-0.351153,0.079282
33907,10.350356,1.017021,1.973133,-1.098370,-0.318317,0.107985
33908,10.296735,0.689286,1.841186,-1.066343,-0.274491,0.098768
33909,10.128854,0.426129,1.707913,-0.999679,-0.208075,0.084521
33910,9.902475,0.182051,1.611656,-0.891847,-0.186522,0.067445
33911,9.823062,0.039656,1.545200,-0.758373,-0.168459,0.057460
33912,9.777511,-0.064001,1.455346,-0.613172,-0.148353,0.058524
33913,9.728303,-0.116962,1.535124,-0.480655,-0.145525,0.058674
33914,9.750312,0.030677,1.435212,-0.384486,-0.128235,0.057767
33915,9.748572,0.309997,1.449939,-0.314281,-0.108388,0.053257
33916,9.739588,0.512347,1.544785,-0.293891,-0.096110,0.063177
33917,9.824601,0.564019,1.577867,-0.315307,-0.086444,0.069765
33918,9.883536,0.517405,1.448860,-0.327454,-0.067092,0.073653
33919,9.882109,0.502164,1.410373,-0.341325,-0.051840,0.082974
33920,9.905847,0.418633,1.306599,-0.399843,-0.044625,0.097314
33921,9.828740,0.336267,1.054475,-0.483930,-0.042011,0.126924
33922,9.842766,0.452314,0.782038,-0.569762,-0.043550,0.139939
33923,9.944683,1.002085,0.758087,-0.666406,-0.021135,0.150199
33924,10.120438,1.494590,1.177129,-0.835517,0.027775,0.143871
33925,10.006646,1.432087,1.501247,-1.056526,0.066487,0.143757
33926,9.960548,1.033105,1.434325,-1.193309,0.067869,0.141644
33927,9.951763,0.655298,1.287071,-1.220196,0.075342,0.140054
33928,9.912488,0.317996,1.323526,-1.179274,0.064805,0.147214
33929,9.893668,-0.137979,1.227022,-1.062875,0.044233,0.152130
33930,9.852648,-0.371632,1.160141,-0.850350,0.039335,0.141285
33931,9.841210,-0.350934,1.318379,-0.610377,0.028519,0.138593
33932,9.832740,-0.227968,1.427979,-0.400647,0.028314,0.124522
33933,9.810534,-0.115719,1.642940,-0.208902,0.013621,0.115278
33934,9.802855,-0.239694,1.536212,-0.061281,-0.002914,0.104239
33935,9.859125,-0.225518,1.307054,0.104163,-0.007849,0.090975
33936,9.893988,0.034450,1.295824,0.236225,0.006115,0.076690
33937,9.776277,0.280503,1.312866,0.293987,0.013553,0.060481
33938,9.803011,0.446828,1.280898,0.306062,0.009851,0.043517
33939,9.765057,0.524864,1.268226,0.281964,0.016157,0.040753
33940,9.755241,0.598030,1.235520,0.244184,0.005237,0.035654
33941,9.770205,0.680531,1.234759,0.184318,-0.003461,0.034420
33942,9.822652,0.612919,1.141630,0.119835,-0.006192,0.033003
33943,9.849365,0.434481,1.101214,0.074145,-0.001209,0.030823
33944,9.784228,0.386685,1.018382,0.062568,-0.002365,0.031811
33945,9.773791,0.472036,1.071855,0.067842,-0.004058,0.030391
33946,9.766819,0.542959,1.072630,0.060564,-0.006071,0.023638
33947,9.710899,0.551427,1.110799,0.056502,-0.004302,0.021515
33948,9.719665,0.534351,1.126341,0.048117,-0.008620,0.015618
33949,9.726552,0.589597,1.211778,0.043875,-0.013875,0.013895
33950,9.720441,0.489546,1.226809,0.018328,-0.014023,0.013726
33951,9.743143,0.369604,1.135359,0.006075,-0.020245,0.014329
33952,9.754961,0.222660,1.096207,0.016582,-0.017510,0.020962
33953,9.782816,0.101101,1.073398,0.028129,-0.021725,0.024461
33954,9.803550,0.051871,1.052175,0.055326,-0.014263,0.036074
33955,9.854844,-0.003626,1.046418,0.070985,-0.011005,0.043957
33956,9.857214,0.034988,0.976465,0.103462,-0.008322,0.049406
33957,9.825636,0.223487,1.031682,0.115488,-0.009148,0.049179
33958,9.777473,0.271995,1.068770,0.119117,-0.019640,0.047592
33959,9.814388,0.247739,1.063390,0.119401,-0.023276,0.044279
33960,9.777217,0.323234,1.047142,0.131312,-0.016543,0.042193
33961,9.774312,0.335782,1.097294,0.130247,-0.018009,0.045086
33962,9.726057,0.255557,1.046208,0.134784,-0.027905,0.038557
33963,9.750341,0.321130,1.058685,0.152465,-0.027935,0.031123
33964,9.712441,0.283415,1.040743,0.151181,-0.036422,0.034453
33965,9.740026,0.333672,0.999765,0.156198,-0.039862,0.028918
33966,9.778049,0.425988,0.992058,0.143839,-0.041583,0.022991
33967,9.780400,0.482333,1.004893,0.112801,-0.030951,0.023046
33968,9.780491,0.497316,1.087878,0.071890,-0.032560,0.019244
33969,9.783994,0.480002,1.032331,0.031189,-0.032451,0.019546
33970,9.844943,0.524502,1.041483,0.011900,-0.027423,0.022503
33971,9.791132,0.419043,1.113318,-0.024547,-0.022053,0.024474
33972,9.776986,0.259955,1.043859,-0.035962,-0.025383,0.022877
33973,9.858016,0.256609,1.034862,-0.017285,-0.026229,0.021753
33974,9.826641,0.333553,1.086833,-0.008255,-0.018565,0.011919
33975,9.807577,0.322454,1.121168,0.000428,-0.020990,0.009751
33976,9.808758,0.248437,1.050071,0.018811,-0.021296,0.007194
33977,9.827352,0.331556,1.080993,0.040348,-0.013333,0.002617
33978,9.800864,0.452416,1.098313,0.049352,-0.014094,-0.007377
33979,9.769367,0.532881,1.150821,0.041293,-0.013654,-0.016303
33980,9.818179,0.425010,1.128932,0.026368,-0.008725,-0.019037
33981,9.844898,0.306974,1.109091,0.015254,-0.012594,-0.019193
33982,9.831513,0.266925,1.040154,0.017885,-0.007697,-0.017482
33983,9.822902,0.284358,1.023057,0.023048,0.001242,-0.016104
33984,9.817073,0.302087,1.040851,0.025979,0.002489,-0.017666
33985,9.824706,0.345995,1.040200,0.039821,0.005893,-0.023162
33986,9.817791,0.438281,1.127225,0.031660,0.008575,-0.029431
33987,9.795459,0.431318,1.129873,0.009360,0.008389,-0.031633
33988,9.807723,0.345658,1.112946,-0.003564,0.005556,-0.031105
33989,9.799020,0.347958,1.010673,-0.003952,0.013657,-0.034436
33990,9.778501,0.398468,1.031018,-0.003945,0.022077,-0.034295
33991,9.719516,0.412749,1.037960,-0.011209,0.023132,-0.036279
33992,9.740375,0.312024,1.039243,-0.004148,0.020360,-0.038384
33993,9.799623,0.092534,1.159517,-0.002537,0.020714,-0.038451
33994,9.854976,-0.062573,0.950011,-0.000947,0.010455,-0.029403
