// Start Time: Unknown
// Update Rate: 100.0Hz
// Filter Profile: human (46.1)
// Firmware Version: 4.3.5
PacketCounter,Acc_X,Acc_Y,Acc_Z,Gyr_X,Gyr_Y,Gyr_Z
44735,9.500901,-2.263396,1.904765,0.142611,-0.043823,-0.016125
44736,9.495620,-2.240345,1.974144,0.128525,-0.044520,-0.021015
44737,9.494306,-2.246638,2.025922,0.111529,-0.046332,-0.027759
44738,9.476123,-2.282303,2.126227,0.102481,-0.043808,-0.039159
44739,9.567363,-2.331930,2.206662,0.099297,-0.046302,-0.045880
44740,9.735534,-2.354768,2.330443,0.116607,-0.029426,-0.057523
44741,9.822657,-2.463579,2.557338,0.148503,-0.014197,-0.058939
44742,10.037645,-2.636626,2.792627,0.211507,0.021606,-0.051216
44743,10.277506,-2.597938,2.844391,0.267894,0.089683,-0.022997
44744,10.363804,-2.832894,2.824072,0.323785,0.191703,0.025652
44745,10.227489,-3.091605,2.801912,0.379935,0.286022,0.083451
44746,10.185484,-3.031333,2.946440,0.408018,0.373266,0.149141
44747,10.322525,-3.084081,3.380799,0.418167,0.467795,0.204036
44748,10.495804,-2.896350,3.417594,0.360942,0.576672,0.273728
44749,10.615956,-2.569396,3.496360,0.234068,0.653294,0.381655
44750,10.644927,-2.158221,3.546490,-0.001812,0.749001,0.525434
44751,10.439966,-2.206999,3.293669,-0.270846,0.841952,0.649931
44752,10.009486,-3.304511,3.080368,-0.452085,0.902260,0.763290
44753,9.666445,-4.734729,2.827755,-0.402822,0.920455,0.861967
44754,9.462342,-5.926705,2.754931,-0.102562,0.925946,0.942918
44755,9.213833,-6.547798,2.821271,0.393471,0.906637,0.988295
44756,9.234757,-6.481906,3.379358,0.954351,0.881331,1.014238
44757,9.359726,-5.778393,4.130359,1.519243,0.886052,1.004051
44758,9.470656,-4.573231,4.810098,1.936299,0.945841,0.961720
44759,9.378201,-2.924140,5.120456,2.059698,1.058283,0.887453
44760,9.118310,-1.421005,5.101893,1.852668,1.213629,0.776493
44761,8.739914,-0.756876,4.886995,1.348931,1.407061,0.669329
44762,8.359439,-0.669545,4.920385,0.669560,1.589486,0.580247
44763,8.141779,-0.934027,5.251063,-0.072847,1.740790,0.487218
44764,8.058360,-1.653846,5.318321,-0.802785,1.849508,0.439959
44765,7.980254,-2.835448,5.090485,-1.397934,1.902125,0.478973
44766,7.795528,-5.124215,4.533652,-1.587898,1.925331,0.552235
44767,7.215906,-8.041891,3.564780,-1.263750,1.800179,0.684743
44768,6.600851,-10.349672,3.390063,-0.375836,1.522735,0.868648
44769,6.621194,-11.418452,3.559037,0.862353,1.134416,1.055752
44770,7.533429,-10.873365,3.560897,2.187353,0.732218,1.234859
44771,8.781015,-9.151945,3.815123,3.362609,0.482177,1.380168
44772,9.660599,-6.753387,4.015742,4.147978,0.401989,1.489244
44773,9.991900,-4.593797,4.414400,4.420124,0.455849,1.564526
44774,9.902505,-2.891687,5.061146,4.194430,0.592693,1.585214
44775,9.780262,-1.890800,5.665914,3.662339,0.785956,1.503757
44776,9.442050,-1.376678,5.882095,2.978335,1.051670,1.326690
44777,9.054942,-0.775940,6.015828,2.183600,1.336909,1.145097
44778,8.498381,-0.307433,6.597469,1.379077,1.582260,0.967258
44779,8.017859,0.000166,7.184835,0.544547,1.774695,0.839689
44780,7.804404,-0.065306,7.543518,-0.352556,1.916291,0.824722
44781,7.601563,-1.101526,7.224032,-1.173589,2.020903,0.879256
44782,7.381650,-3.377428,6.233938,-1.660580,2.082142,0.975400
44783,7.048658,-6.284772,5.369569,-1.721278,2.079184,1.127091
44784,6.420491,-8.668284,4.790792,-1.300961,1.950954,1.352230
44785,5.563765,-10.138033,4.311975,-0.442294,1.680089,1.580684
44786,5.201194,-10.196173,4.505138,0.711984,1.271961,1.771753
44787,5.890230,-8.353538,5.105907,1.854955,0.917738,1.888919
44788,6.474416,-5.806594,5.141415,2.634677,0.736400,1.997732
44789,6.412620,-3.531193,5.323780,2.986718,0.680756,2.052458
44790,5.837902,-1.443064,6.002426,2.924410,0.707161,1.980815
44791,5.375080,-0.023722,6.858860,2.545938,0.754427,1.789521
44792,5.044565,0.707106,7.657404,1.973101,0.927054,1.455524
44793,4.288597,0.751312,7.674671,1.300760,1.162919,1.078358
44794,3.163655,0.940490,7.665274,0.636917,1.395108,0.623264
44795,1.944752,1.147612,7.320152,-0.137076,1.546117,0.158532
44796,1.224933,1.162693,7.384136,-1.049553,1.591021,-0.205636
44797,1.447222,0.634558,7.830996,-2.062490,1.617796,-0.457942
44798,2.426590,-0.917017,7.904426,-2.927802,1.670517,-0.622640
44799,3.206660,-3.939297,6.328971,-3.563348,1.672813,-0.562466
44800,2.759701,-8.089994,3.975545,-3.718513,1.556124,-0.261326
44801,1.835655,-11.341726,3.254997,-3.114812,1.231649,0.058263
44802,1.772629,-13.094584,3.821998,-1.861297,0.684905,0.382440
44803,3.006406,-13.228218,4.447677,-0.273227,0.098247,0.751428
44804,4.828552,-11.931130,4.970081,1.276383,-0.350713,1.080342
44805,6.374382,-9.249343,5.968240,2.551396,-0.561176,1.344616
44806,6.863877,-6.016326,7.242472,3.259803,-0.528485,1.465856
44807,6.590149,-3.546303,8.279813,3.313626,-0.358927,1.459553
44808,6.080162,-2.069036,9.005136,2.950023,-0.110264,1.271081
44809,5.494601,-0.905403,9.299523,2.367654,0.183849,0.996999
44810,4.990787,0.323202,9.995581,1.640720,0.470901,0.643278
44811,4.394362,1.932387,10.873828,0.677676,0.742483,0.322272
44812,3.928278,2.687761,11.129977,-0.570651,0.974750,0.112363
44813,3.744100,2.060397,11.061342,-1.831914,1.140474,-0.012737
44814,4.367434,-0.183567,10.334431,-2.818357,1.319583,-0.051733
44815,4.251649,-4.292547,8.597079,-3.351913,1.446869,0.059793
44816,3.101149,-8.706577,6.551303,-3.209548,1.385748,0.360216
44817,2.137125,-11.040528,6.604664,-2.260438,1.091273,0.599712
44818,2.472727,-12.143455,6.727724,-0.906469,0.626549,0.893184
44819,3.708098,-11.892208,6.830946,0.636090,0.194987,1.193894
44820,4.688320,-10.046388,6.997257,2.031994,-0.080211,1.455720
44821,5.098449,-7.142106,7.629556,3.016366,-0.183507,1.630465
44822,4.952906,-3.784366,8.596033,3.439829,-0.139445,1.653965
44823,4.578517,-1.204183,9.232296,3.234911,0.040201,1.518300
44824,4.039068,-0.016677,9.245433,2.625139,0.297939,1.261521
44825,3.477038,0.840026,9.703986,1.904334,0.619885,0.861747
44826,3.002373,1.980916,10.538338,1.109974,0.952976,0.345152
44827,2.765581,2.721714,10.591675,0.086412,1.271350,-0.145999
44828,2.302334,2.447845,9.922828,-1.112168,1.527020,-0.497985
44829,1.967508,1.628857,9.488827,-2.250188,1.676544,-0.727563
44830,2.352028,-0.101776,9.095020,-3.137711,1.799533,-0.884935
44831,2.852955,-3.584787,7.771916,-3.683294,1.886277,-0.854066
44832,1.763808,-7.846228,5.139795,-3.863641,1.823512,-0.508766
44833,-0.106049,-10.970782,3.765912,-3.368713,1.507146,-0.121540
44834,-1.099351,-12.612413,4.104172,-2.240259,0.965997,0.184998
44835,-0.426506,-12.801688,4.506466,-0.723617,0.292753,0.496065
44836,1.141621,-11.322978,5.048479,0.891243,-0.260390,0.775933
44837,2.468696,-8.324046,5.769220,2.201542,-0.577947,0.998420
44838,2.850456,-5.317984,6.696820,2.973971,-0.640994,1.134536
44839,2.213460,-3.359063,7.568934,3.173075,-0.568952,1.158861
44840,1.524947,-2.206189,8.755333,2.923383,-0.448347,1.016957
44841,1.347058,-2.320658,9.295857,2.365784,-0.250914,0.781745
44842,1.315683,-2.726233,9.417669,1.745440,0.049198,0.448128
44843,0.976581,-1.846158,10.171963,1.130380,0.375991,0.005601
44844,0.807400,-0.040087,10.832869,0.216228,0.646655,-0.403259
44845,0.799671,0.945086,10.964083,-1.037222,0.886986,-0.624976
44846,1.015610,-0.022055,11.384445,-2.311401,1.111587,-0.688940
44847,1.540772,-2.967684,10.844331,-3.315838,1.288149,-0.613691
44848,1.256204,-7.669989,8.405626,-3.713283,1.387025,-0.330518
44849,-0.168343,-12.388884,6.614756,-3.249066,1.261271,0.027723
44850,-1.332443,-15.252839,5.678314,-1.989892,0.807916,0.444219
44851,-1.111229,-15.161368,5.809075,-0.268762,0.170183,0.857838
44852,0.486641,-12.517567,6.839256,1.417988,-0.310069,1.189561
44853,1.754524,-9.283217,7.627905,2.662453,-0.534882,1.492270
44854,1.693668,-6.973319,8.114880,3.393779,-0.541000,1.741075
44855,0.838847,-5.148957,8.615609,3.696488,-0.519506,1.866809
44856,0.512356,-3.212772,9.600952,3.658209,-0.501215,1.839144
44857,0.789790,-1.597122,10.858559,3.327480,-0.317702,1.642611
44858,0.888122,-0.502221,11.438688,2.728085,-0.012906,1.375230
44859,0.321329,0.777626,11.985150,2.013589,0.321235,1.014943
44860,-0.464663,2.095538,12.345984,1.118665,0.640337,0.599630
44861,-0.886601,2.539380,12.257757,0.067819,0.895347,0.214844
44862,-0.610535,1.660797,11.258667,-0.984527,1.082364,-0.072404
44863,-0.242747,-0.707320,9.498831,-1.880316,1.209803,-0.169472
44864,-0.528095,-4.395599,7.586533,-2.416080,1.268531,-0.070406
44865,-1.293849,-8.046282,6.673929,-2.402888,1.136816,0.173623
44866,-1.497626,-10.838456,7.025792,-1.801739,0.836126,0.483593
44867,-1.142201,-11.739924,8.025145,-0.622570,0.436402,0.783880
44868,-0.239751,-10.898954,8.778571,0.840650,0.042977,1.080489
44869,0.243818,-9.131308,8.499003,2.143925,-0.228232,1.393961
44870,-0.270325,-6.346954,8.236458,3.038001,-0.389042,1.616043
44871,-0.784106,-3.282771,8.786973,3.462810,-0.454196,1.612494
44872,-0.653882,-0.941504,9.458951,3.354388,-0.414552,1.462253
44873,-0.451478,0.005046,9.967355,2.822195,-0.211127,1.224578
44874,-0.500122,0.142152,10.013032,2.065324,0.090946,0.913202
44875,-0.729384,0.728901,10.448542,1.354198,0.408281,0.477386
44876,-0.683914,1.718680,11.146992,0.615882,0.696025,0.022720
44877,-0.447906,2.359042,11.381114,-0.222897,0.983625,-0.335520
44878,-0.118785,1.627454,11.102682,-1.130014,1.243071,-0.544795
44879,-0.056341,-0.350886,10.317124,-1.963618,1.422375,-0.567301
44880,-0.794632,-3.491167,8.606211,-2.580160,1.505530,-0.369079
44881,-2.531697,-7.291306,6.811444,-2.688270,1.413430,-0.004023
44882,-4.045110,-10.528919,6.266572,-2.034855,1.030189,0.411588
44883,-4.119851,-11.891951,7.008627,-0.630770,0.431859,0.756228
44884,-2.771969,-11.448918,6.972197,1.116367,-0.118336,1.064665
44885,-2.401050,-9.316423,6.840843,2.723673,-0.502889,1.360679
44886,-2.838921,-5.867674,7.310731,3.864113,-0.784688,1.531999
44887,-2.837076,-2.679453,7.643926,4.330469,-0.981372,1.563769
44888,-2.155738,-0.354438,8.512931,4.254098,-1.065104,1.493867
44889,-1.197600,1.086347,9.784826,3.825338,-0.974559,1.290614
44890,-0.572662,2.869213,11.133361,3.217188,-0.759332,0.950217
44891,-0.174323,5.367793,12.373205,2.379664,-0.445665,0.440571
44892,-0.006607,7.273389,13.022912,1.198235,-0.033092,-0.124807
44893,0.052244,7.591004,12.623347,-0.206658,0.410531,-0.655443
44894,0.172625,6.492771,11.835098,-1.533253,0.796703,-1.125076
44895,0.746107,4.413832,10.546615,-2.657155,1.112423,-1.465904
44896,1.087971,1.645559,9.287051,-3.492349,1.392117,-1.638911
44897,0.629637,-1.681763,8.344887,-4.040539,1.582505,-1.584672
44898,-0.635017,-5.593838,7.438402,-4.213106,1.583853,-1.268464
44899,-2.251149,-9.511053,6.533610,-3.754902,1.354365,-0.803499
44900,-3.378345,-12.202518,6.369683,-2.472584,0.852996,-0.374153
44901,-2.963446,-13.177744,6.007796,-0.559747,0.193483,0.045925
44902,-1.851466,-11.832022,5.768331,1.430957,-0.381347,0.408842
44903,-1.198038,-8.881200,5.652753,2.967492,-0.779809,0.705513
44904,-0.905700,-5.626306,6.305594,3.874590,-0.990051,0.889980
44905,-0.690553,-3.016878,7.113335,4.197569,-1.065978,0.937178
44906,-0.122291,-0.711697,8.409820,4.112462,-1.029589,0.874787
44907,0.422271,1.539297,9.719308,3.588995,-0.800669,0.736679
44908,-0.104176,3.517635,10.758675,2.796872,-0.466422,0.484337
44909,-1.061269,5.457551,11.581564,1.795857,-0.163023,0.110896
44910,-1.413835,6.423584,11.795995,0.568853,0.136209,-0.286387
44911,-1.058976,6.417938,11.765700,-0.684135,0.438980,-0.671848
44912,-0.407816,5.367537,11.207262,-1.889684,0.716112,-0.994839
44913,-0.040788,3.476227,10.496879,-2.934666,0.945113,-1.179517
44914,-0.326253,1.242215,9.979459,-3.721323,1.090985,-1.210704
44915,-0.600742,-1.311453,9.566254,-4.158319,1.161116,-1.121033
44916,-1.393683,-4.612854,8.520390,-4.181860,1.187229,-0.882187
44917,-3.314570,-8.434189,7.330339,-3.598291,1.045647,-0.525343
44918,-4.851830,-11.800042,6.701920,-2.226233,0.648486,-0.203109
44919,-4.757076,-13.336309,6.756388,-0.191239,0.081355,0.063714
44920,-2.922925,-11.727838,7.039309,1.962964,-0.486982,0.256172
44921,-1.156519,-7.629483,6.922880,3.516028,-0.812098,0.432536
44922,-0.775345,-3.402910,7.799974,4.233671,-0.877628,0.547585
44923,-0.882982,0.027594,9.149985,4.191894,-0.832957,0.532985
44924,-0.612592,2.170224,10.488738,3.589459,-0.669538,0.388851
44925,-1.321117,4.059063,11.342885,2.569022,-0.376233,0.139594
44926,-2.030371,5.539136,11.638416,1.194645,-0.113878,-0.214387
44927,-1.867841,6.268238,11.579691,-0.302999,0.121808,-0.615026
44928,-0.712486,6.246898,11.643121,-1.728846,0.412593,-1.017797
44929,0.436793,5.494667,11.452674,-3.061512,0.718661,-1.289053
44930,1.220110,4.766121,11.480832,-4.300788,1.028805,-1.426859
44931,1.974107,3.335490,11.248682,-5.407551,1.350006,-1.414676
44932,1.996502,0.375786,9.318732,-6.130126,1.702447,-1.350372
44933,0.736400,-4.097528,7.067381,-6.209958,1.889178,-1.205487
44934,-0.547553,-8.548232,5.163419,-5.595890,1.865365,-1.032496
44935,-2.623043,-13.036528,3.437101,-4.420624,1.701286,-0.623910
44936,-5.457009,-16.208703,4.120587,-2.491239,1.204708,-0.184856
44937,-5.823900,-16.683640,5.263339,-0.038523,0.512822,0.158258
44938,-3.760644,-13.827187,5.397523,2.321821,-0.093661,0.449021
44939,-2.306739,-9.130304,5.034097,3.970783,-0.437874,0.725900
44940,-1.909155,-4.052753,5.742491,4.709264,-0.600979,0.852644
44941,-1.904894,0.067478,6.964857,4.525773,-0.584512,0.758879
44942,-2.686703,2.206474,8.328424,3.583101,-0.426411,0.545240
44943,-4.102820,2.430310,9.112610,2.275491,-0.279104,0.264867
44944,-3.900640,2.288360,9.785848,1.036073,-0.220780,-0.094531
44945,-2.681173,2.821366,10.427710,-0.130597,-0.101643,-0.485677
44946,-1.855977,3.738613,10.342832,-1.355777,0.081388,-0.836086
44947,-1.612042,3.288183,9.470485,-2.670243,0.273899,-1.040793
44948,-1.503960,1.337905,8.618333,-3.757012,0.400032,-1.102150
44949,-1.618740,-1.806132,7.218590,-4.412025,0.439914,-1.093643
44950,-2.230303,-5.511456,5.871396,-4.478092,0.404001,-1.019487
44951,-3.839870,-10.975972,3.260669,-3.904124,0.287345,-0.767385
44952,-6.472140,-16.990432,2.110163,-2.116532,-0.152022,-0.471274
44953,-6.264793,-20.088099,3.334225,1.004776,-0.937016,-0.315168
44954,-2.151419,-17.112470,5.254336,4.673325,-1.622629,-0.186775
44955,0.658243,-11.257549,4.903715,7.449588,-1.759431,0.153902
44956,0.996461,-6.185716,5.397289,9.203624,-1.744959,0.505688
44957,2.024121,-2.695517,5.933948,9.959866,-1.590336,0.663810
44958,0.874470,0.671568,7.184925,9.844078,-1.268525,0.664654
44959,-1.172992,5.541222,9.723749,8.999915,-0.968308,0.514544
44960,-1.203418,9.659798,10.510472,6.935926,-0.570289,0.318815
44961,-0.757949,11.274106,10.557485,4.127815,-0.160619,0.202582
44962,0.387842,11.473392,11.604044,1.286264,0.219566,0.050176
44963,1.075273,10.311018,12.078115,-1.286406,0.587037,0.012686
44964,0.763112,8.375842,11.559034,-3.351164,0.826833,0.115785
44965,-0.293491,5.917178,10.438153,-4.777967,0.989223,0.208282
44966,-1.587341,2.479490,9.886090,-5.510024,1.053937,0.183504
44967,-2.028767,-1.730330,8.218966,-5.589712,0.970918,0.152032
44968,-3.260961,-6.718264,6.395952,-4.876205,0.879432,0.298366
44969,-4.860760,-11.664605,6.822017,-2.981884,0.555473,0.288592
44970,-4.331634,-15.033416,8.057377,0.027630,0.117756,0.177285
44971,-1.874742,-12.874810,8.316461,3.133792,-0.333582,0.083629
44972,-0.215876,-5.381622,7.225732,5.032160,-0.525990,0.134784
44973,-0.870236,1.611190,7.183282,5.293892,-0.476893,0.149384
44974,-2.658596,5.875851,8.667752,4.369815,-0.251351,-0.005677
44975,-3.952211,7.081483,9.220802,2.750530,-0.092639,-0.185456
44976,-2.556655,6.500588,10.250154,0.999480,-0.016124,-0.289635
44977,-0.811910,5.874589,10.671871,-0.691082,0.142498,-0.330659
44978,-0.580521,6.049838,10.810645,-2.247281,0.319896,-0.331266
44979,-0.722957,6.553637,11.230155,-3.712460,0.467371,-0.362985
44980,-0.263292,7.093113,10.912544,-5.245189,0.605693,-0.412438
44981,0.070078,6.948183,9.560058,-6.876928,0.810171,-0.395932
44982,-0.552104,5.513779,7.656707,-8.449783,1.071156,-0.318566
44983,-1.365768,1.901160,5.696826,-9.709458,1.248674,-0.224547
44984,-2.089529,-3.606952,3.199468,-10.260864,1.373661,-0.048158
44985,-4.863927,-12.473190,0.918270,-9.297752,1.450736,0.253053
44986,-7.947343,-23.793745,4.373052,-5.592953,1.094852,0.145240
44987,-4.784957,-29.013950,4.248577,0.028821,0.079126,0.037731
44988,-0.081849,-18.773408,3.403365,5.005514,-0.726586,0.235646
44989,0.199976,-5.271466,4.003901,7.156394,-0.858986,0.432886
44990,-1.039969,4.048868,6.230187,6.792103,-0.674720,0.440305
44991,-3.229118,9.980657,9.182990,4.537339,-0.236981,0.283969
44992,-3.818788,10.556087,11.190045,1.305192,0.145364,0.107397
44993,-1.607560,6.490960,10.771943,-1.813014,0.468329,-0.008524
44994,-0.212070,2.196390,10.053130,-3.913005,0.829055,-0.071256
44995,0.043391,0.185498,9.566789,-5.182909,1.033237,-0.126213
44996,-0.034764,-0.021693,9.199059,-6.189388,1.232624,-0.130785
44997,-0.565130,-1.893108,7.324256,-6.941232,1.453722,-0.068027
44998,-1.941336,-7.287343,2.475492,-7.068639,1.591914,0.116298
44999,-6.573091,-15.527230,0.300486,-5.529452,1.451586,0.212244
45000,-9.138535,-22.856217,1.741855,-2.129303,0.617747,0.110994
45001,-4.579579,-22.561250,2.639141,2.078055,-0.494424,0.232566
45002,0.004857,-13.774106,3.553262,5.206868,-0.953335,0.469396
45003,-0.060937,-4.767789,5.298748,6.246614,-0.843187,0.626497
45004,-1.062411,1.613531,7.307095,5.558992,-0.621566,0.636578
45005,-1.025627,5.057554,8.840178,3.719812,-0.264312,0.566933
45006,-1.382697,5.551374,9.504003,1.307717,0.208317,0.437804
45007,-1.641047,3.603183,9.112550,-1.036365,0.629756,0.334246
45008,-1.978968,0.874455,8.222805,-2.772580,0.910649,0.224496
45009,-1.736534,-0.897061,7.976129,-3.883090,1.077537,0.103537
45010,-0.492662,-2.240482,7.603400,-4.594149,1.206259,0.032051
45011,0.156058,-3.796683,6.653703,-5.092850,1.436947,0.113290
45012,-0.374123,-6.922051,3.527015,-5.203912,1.522357,0.251085
45013,-3.672259,-11.707443,-1.037210,-4.672082,1.438215,0.590001
45014,-9.624032,-16.608726,-0.628852,-2.799759,0.882090,0.764619
45015,-10.483986,-18.651914,1.546842,0.173265,-0.238995,0.799403
45016,-4.179382,-15.282080,3.196840,3.162710,-1.129548,0.905610
45017,-0.611422,-9.066507,4.568431,5.133234,-1.230282,0.980151
45018,-1.079823,-3.545580,6.206459,5.710452,-1.062490,1.002581
45019,-1.986329,0.222006,7.470524,5.171567,-0.857869,0.981745
45020,-2.505037,2.449189,9.001823,3.853419,-0.541717,0.811473
45021,-3.056500,3.467350,9.942997,2.100051,-0.146062,0.553399
45022,-3.237548,3.902140,10.347376,0.228228,0.193904,0.252929
45023,-2.935668,3.531167,10.116926,-1.552679,0.517327,-0.017413
45024,-2.170479,1.825094,9.566014,-2.998162,0.819101,-0.277176
45025,-1.245626,0.052631,8.990268,-4.041541,1.109744,-0.489655
45026,-0.578760,-2.506544,7.642994,-4.770817,1.399569,-0.576032
45027,-1.307897,-6.076139,4.160512,-5.160622,1.576025,-0.445668
45028,-5.066246,-10.616157,0.534034,-4.907477,1.527145,-0.107469
45029,-10.518850,-14.892331,-0.060316,-3.573736,1.023243,0.087139
45030,-11.916054,-17.353754,1.154414,-1.202774,-0.035606,0.182606
45031,-6.794767,-15.698908,2.737764,1.477201,-1.066862,0.371669
45032,-2.713251,-11.021665,3.821546,3.509472,-1.450216,0.557811
45033,-2.526271,-6.239646,5.013056,4.501608,-1.531584,0.699618
45034,-3.339933,-3.016680,6.255522,4.519360,-1.540467,0.767006
45035,-3.532119,-1.476836,7.573262,3.942579,-1.454495,0.724645
45036,-3.197145,-0.872413,8.135228,3.075696,-1.268939,0.543826
45037,-3.343971,0.058075,8.740953,2.088952,-0.958135,0.275842
45038,-3.552996,1.346155,9.532476,1.003736,-0.664073,-0.033826
45039,-3.245330,2.222132,9.854784,-0.183050,-0.410001,-0.335323
45040,-2.575616,1.449368,9.671356,-1.318927,-0.124302,-0.566629
45041,-2.143385,-0.272899,9.212659,-2.244777,0.110227,-0.760393
45042,-1.762564,-3.006647,7.379634,-2.913562,0.274805,-0.835031
45043,-3.093292,-6.506584,4.487858,-3.157762,0.318646,-0.716819
45044,-5.547049,-9.570040,3.332355,-2.753084,0.116665,-0.588269
45045,-7.117338,-11.847488,2.802749,-1.711075,-0.406181,-0.447175
45046,-6.624479,-12.501273,3.582225,-0.193791,-1.061654,-0.292685
45047,-4.360389,-11.001077,5.348716,1.411375,-1.584041,-0.145434
45048,-2.337437,-8.402247,6.815548,2.672999,-1.836035,0.010032
45049,-1.845481,-5.599433,7.897872,3.379397,-1.863463,0.101369
45050,-2.162507,-3.314075,8.888294,3.390635,-1.759017,0.104666
45051,-2.682878,-2.171208,9.260332,2.918197,-1.596396,0.040185
45052,-2.808095,-1.178418,9.836358,2.223988,-1.352140,-0.197901
45053,-2.831957,0.250961,10.542356,1.371040,-1.037776,-0.538019
45054,-2.489856,1.274671,11.186435,0.321982,-0.716485,-0.881238
45055,-1.867465,1.516498,11.380037,-0.831802,-0.367289,-1.153094
45056,-1.152411,0.421804,10.939094,-1.913856,-0.031889,-1.363823
45057,-0.403611,-2.201553,9.796548,-2.709989,0.267330,-1.516506
45058,-0.876118,-5.433523,7.423667,-3.142508,0.447088,-1.501850
45059,-2.479529,-8.549373,5.173218,-3.067446,0.412265,-1.376715
45060,-4.291747,-10.684100,4.195742,-2.498764,0.120844,-1.227914
45061,-4.935497,-11.870376,4.435422,-1.517860,-0.366674,-1.039112
45062,-3.969476,-11.906994,5.447976,-0.299860,-0.923696,-0.832386
45063,-2.213468,-10.936123,6.173966,0.859416,-1.388611,-0.581012
45064,-1.069270,-9.211168,6.953902,1.787857,-1.668666,-0.331141
45065,-0.793916,-7.114010,7.945503,2.352537,-1.788121,-0.185323
45066,-1.003993,-5.104737,8.849024,2.434358,-1.807819,-0.135182
45067,-0.948538,-3.808633,9.444109,2.151292,-1.711836,-0.172313
45068,-0.955000,-2.855193,9.484816,1.620565,-1.495255,-0.310469
45069,-1.107086,-2.084040,9.388672,0.957165,-1.237764,-0.512862
45070,-0.914102,-1.543792,9.634751,0.231352,-0.979186,-0.762279
45071,-0.315807,-1.350450,10.062161,-0.508050,-0.708997,-1.020083
45072,0.276802,-1.731191,10.089597,-1.234737,-0.442603,-1.201027
45073,0.520394,-3.130741,9.588219,-1.866765,-0.218028,-1.297084
45074,0.177491,-5.024117,8.050715,-2.316937,-0.084340,-1.303874
45075,-0.963029,-7.751989,6.001039,-2.432799,-0.095957,-1.196392
45076,-2.299620,-10.002129,4.927616,-2.120672,-0.319044,-1.055007
45077,-2.861101,-11.605517,4.677687,-1.393430,-0.767069,-0.867755
45078,-1.897082,-11.963940,5.496603,-0.287029,-1.293073,-0.705581
45079,-0.016792,-11.101228,6.475792,0.906386,-1.737967,-0.533181
45080,1.467801,-9.671695,7.214057,1.913556,-2.010256,-0.302382
45081,1.797980,-7.694565,8.165610,2.652640,-2.092691,-0.124279
45082,1.251600,-5.330843,9.026002,2.940071,-2.056179,-0.053011
45083,0.696490,-3.611425,9.556311,2.785404,-1.969844,-0.063957
45084,0.647745,-2.831961,9.635777,2.308987,-1.763179,-0.191315
45085,0.445631,-2.261128,9.453033,1.688242,-1.452226,-0.394873
45086,0.251313,-1.248006,10.161232,1.021959,-1.168449,-0.719337
45087,0.862587,0.078220,11.008572,0.211674,-0.871416,-1.074241
45088,1.633201,0.588428,11.279326,-0.801244,-0.548259,-1.321146
45089,2.039191,-0.548805,10.860406,-1.860150,-0.251124,-1.428374
45090,2.319107,-2.898047,9.974835,-2.665375,-0.047981,-1.470735
45091,2.537939,-6.054338,8.144260,-3.042307,0.049232,-1.431472
45092,1.912511,-9.112209,6.347813,-2.885519,-0.001580,-1.276982
45093,0.851091,-11.084127,5.308541,-2.219863,-0.263964,-1.085119
45094,0.229172,-11.878048,5.268030,-1.154310,-0.697775,-0.867062
45095,0.933903,-11.149617,6.550156,0.106638,-1.144064,-0.712342
45096,2.169100,-9.622298,7.588639,1.227758,-1.463886,-0.536009
45097,2.895094,-8.059755,7.990294,2.077604,-1.633691,-0.364188
45098,3.028015,-5.811212,8.932999,2.601524,-1.651238,-0.306296
45099,2.852467,-3.312380,10.097215,2.609453,-1.561720,-0.327622
45100,2.832662,-1.533457,10.747004,2.171512,-1.352771,-0.476453
45101,2.836254,-0.101119,10.875453,1.331833,-1.016096,-0.718039
45102,2.283250,0.920457,10.166748,0.197470,-0.637126,-0.995952
45103,1.929339,0.819780,9.389620,-1.048423,-0.338838,-1.279680
45104,2.336008,-0.443933,9.027816,-2.160291,-0.096275,-1.522584
45105,3.315823,-2.411974,9.096774,-2.931391,0.105156,-1.675891
45106,4.305731,-4.239942,9.146641,-3.353593,0.244936,-1.728259
45107,5.177657,-5.986033,8.942028,-3.436404,0.384321,-1.742414
45108,5.296532,-8.524212,6.269233,-3.225790,0.448347,-1.649650
45109,3.808982,-11.216612,3.886745,-2.582642,0.300963,-1.401010
45110,2.340493,-12.073510,3.842712,-1.568772,-0.049545,-1.207523
45111,2.153554,-12.046897,4.190167,-0.415534,-0.542806,-1.008396
45112,3.187179,-10.785100,5.413503,0.716039,-0.986263,-0.812400
45113,4.264122,-8.488606,6.907553,1.636044,-1.219759,-0.639479
45114,4.595615,-6.294093,7.914598,2.193322,-1.292862,-0.514283
45115,4.451550,-4.475180,8.352699,2.309468,-1.233769,-0.483957
45116,3.998645,-3.486459,8.413407,2.022226,-1.128063,-0.512897
45117,3.912023,-3.244772,8.021592,1.471118,-1.015115,-0.613613
45118,3.909238,-3.088939,7.630322,0.789785,-0.825058,-0.790634
45119,3.857912,-2.796476,7.740283,0.101505,-0.637700,-1.011015
45120,4.132168,-2.381158,7.951171,-0.600642,-0.462163,-1.199537
45121,4.300481,-2.974990,7.538305,-1.231528,-0.308551,-1.280716
45122,3.972477,-5.700987,5.585864,-1.556774,-0.238528,-1.226931
45123,3.238477,-9.483838,4.204899,-1.138708,-0.360522,-1.159878
45124,2.770692,-12.086581,3.529106,-0.063543,-0.673707,-1.067732
45125,3.009900,-12.067242,4.333857,1.457088,-1.166081,-0.960868
45126,4.365913,-9.572265,5.659196,2.874928,-1.574781,-0.854016
45127,5.807649,-7.195030,5.910809,3.759932,-1.877182,-0.601910
45128,6.584764,-5.579537,6.007868,4.096684,-2.064809,-0.257480
45129,6.589430,-4.353422,6.214981,3.994996,-2.203880,0.059145
45130,6.584633,-3.453866,6.492802,3.591195,-2.315767,0.280449
45131,6.818527,-2.636213,7.110779,3.089804,-2.361610,0.382900
45132,7.295080,-1.433465,8.598048,2.604335,-2.234547,0.333473
45133,7.478205,-0.057346,9.680418,2.071835,-1.933614,0.151107
45134,6.996003,1.065002,9.373285,1.336502,-1.557074,-0.086580
45135,6.083537,1.400192,8.500823,0.371373,-1.205349,-0.360547
45136,5.666571,1.626397,8.230844,-0.658432,-0.899038,-0.706823
45137,5.969871,1.327091,8.171764,-1.692843,-0.641443,-0.998726
45138,6.732626,0.308142,8.124607,-2.591606,-0.427491,-1.174744
45139,7.190954,-1.673864,7.379783,-3.210199,-0.270061,-1.220850
45140,7.268361,-4.440560,5.834136,-3.437027,-0.240061,-1.120379
45141,6.774535,-7.334213,4.304999,-3.156599,-0.372427,-0.900175
45142,6.271279,-9.195336,3.800753,-2.314694,-0.646533,-0.682109
45143,6.329462,-10.065262,4.319059,-0.953909,-1.029544,-0.485061
45144,7.626016,-8.819961,6.229767,0.700477,-1.355160,-0.396373
45145,8.687409,-6.617826,6.679216,2.063511,-1.497769,-0.285300
45146,8.559800,-4.513302,5.780589,2.859547,-1.552620,-0.084754
45147,7.979201,-2.801031,5.249974,3.053112,-1.613344,0.119643
45148,7.839638,-1.436282,5.750832,2.838941,-1.644420,0.189287
45149,8.178479,0.025517,6.837863,2.294539,-1.517095,0.057979
45150,8.540181,1.489609,7.355917,1.426651,-1.283343,-0.166324
45151,8.454173,2.867222,7.150429,0.237240,-0.990344,-0.386209
45152,7.989979,3.804102,6.803303,-1.138995,-0.704871,-0.644814
45153,7.463571,3.142316,6.189680,-2.534056,-0.480944,-0.862417
45154,7.371174,1.008378,5.529802,-3.596440,-0.361195,-1.013767
45155,7.492634,-3.163808,4.064945,-3.963497,-0.302822,-1.047845
45156,7.583591,-7.670246,2.731701,-3.458479,-0.437908,-0.959659
45157,7.670383,-10.656679,2.490536,-2.070499,-0.682948,-0.842165
45158,7.351656,-11.841837,2.668964,-0.042740,-1.019639,-0.703181
45159,8.154496,-10.314861,4.480551,2.306603,-1.398368,-0.628075
45160,9.279244,-7.746221,4.568677,4.170590,-1.606349,-0.499362
45161,9.586788,-5.075392,3.621051,5.298250,-1.739474,-0.177008
45162,9.311141,-2.245837,3.619109,5.619769,-1.779506,0.144992
45163,9.232014,-0.408727,4.025462,5.232263,-1.793873,0.359232
45164,9.656054,0.885452,5.277531,4.483957,-1.723678,0.423714
45165,10.446987,3.559432,8.238838,3.576508,-1.475639,0.196531
45166,10.709144,6.076954,8.979355,2.136796,-1.025837,-0.075390
45167,9.933419,6.626986,7.729724,0.314020,-0.634206,-0.252401
45168,8.747325,5.802729,6.407901,-1.554623,-0.324452,-0.504660
45169,7.876104,3.441752,5.139949,-3.096974,-0.152334,-0.748811
45170,8.221132,0.517977,4.603278,-3.951791,-0.054295,-0.955357
45171,8.764471,-2.387557,4.038641,-4.107131,0.007891,-1.033089
45172,8.934762,-5.427571,2.741640,-3.748944,-0.042681,-0.916815
45173,8.594952,-7.609485,2.384962,-2.749251,-0.228209,-0.739199
45174,8.533917,-8.384973,2.575466,-1.356679,-0.480400,-0.591342
45175,8.462320,-8.591140,2.903639,0.287517,-0.793382,-0.374593
45176,9.473109,-6.390501,4.871604,1.957342,-1.061644,-0.221212
45177,10.287771,-3.442566,5.411143,3.086661,-1.107314,-0.048473
45178,10.257887,-1.013603,4.923220,3.517798,-1.057465,0.179335
45179,9.903560,1.143265,5.093869,3.304194,-0.966946,0.362845
45180,9.782163,2.938254,5.877210,2.608779,-0.837952,0.384902
45181,9.920546,3.837243,7.043753,1.537398,-0.627837,0.239028
45182,10.180211,3.834855,6.766310,0.133060,-0.350220,0.074340
45183,10.043264,3.694121,5.621589,-1.381341,-0.095779,-0.101132
45184,9.318191,3.338596,4.260733,-2.781811,0.133707,-0.314828
45185,8.662801,2.113474,3.560066,-3.850720,0.254659,-0.532411
45186,8.502134,0.762466,3.556456,-4.526084,0.307580,-0.670916
45187,8.313952,-0.656434,2.929289,-4.946065,0.318339,-0.659420
45188,8.252156,-4.067583,0.614523,-4.937654,0.277598,-0.486027
45189,7.172839,-9.188816,-0.853132,-3.882020,0.122731,-0.351967
45190,6.858509,-12.682008,0.318922,-1.830111,-0.217444,-0.294091
45191,7.190465,-12.493795,2.853058,0.813451,-0.653818,-0.329224
45192,8.714895,-8.180970,3.939113,3.031353,-0.991022,-0.362080
45193,9.837766,-3.707167,3.192985,4.315837,-1.087988,-0.248879
45194,10.017838,-1.324862,2.454484,4.833070,-0.997688,-0.072369
45195,9.571902,-0.303018,2.518399,4.871914,-0.893520,0.039658
45196,9.280039,1.171422,4.088733,4.615662,-0.826050,-0.061596
45197,9.482216,3.326975,4.696007,3.796649,-0.696469,-0.303151
45198,9.624509,4.218251,3.746216,2.351038,-0.522451,-0.428254
45199,9.699387,4.853815,3.054130,0.614465,-0.280682,-0.654722
45200,9.225840,4.212557,2.847179,-1.102117,-0.096041,-0.900953
45201,8.934661,3.004096,3.233801,-2.537257,-0.025454,-1.073036
45202,9.255261,2.010925,3.948162,-3.689121,0.000891,-1.110361
45203,9.744744,0.362995,3.936444,-4.477504,0.075774,-1.039091
45204,9.746513,-2.049961,2.740538,-4.776602,0.108709,-0.933550
45205,9.249246,-4.224328,2.160090,-4.463999,0.091278,-0.835314
45206,8.587697,-6.200560,1.642224,-3.574553,-0.045247,-0.745498
45207,8.359939,-6.830954,1.774760,-2.172707,-0.329537,-0.680253
45208,8.577594,-6.304861,2.263742,-0.635027,-0.569373,-0.609632
45209,8.974775,-4.655211,2.924953,0.728481,-0.739223,-0.539985
45210,9.582854,-1.570021,3.670855,1.539443,-0.766978,-0.522358
45211,9.962010,1.271636,3.482471,1.461961,-0.702049,-0.506961
45212,10.205941,2.864307,3.065447,0.639191,-0.565536,-0.489026
45213,10.284337,3.214446,2.210042,-0.586634,-0.446782,-0.536844
45214,9.906551,2.965584,2.026800,-1.866567,-0.320827,-0.624154
45215,9.685357,2.523914,2.341517,-3.005768,-0.269593,-0.717469
45216,9.996148,1.610200,2.365071,-3.913435,-0.229779,-0.724251
45217,9.979364,0.267959,2.183139,-4.435236,-0.180217,-0.696368
45218,9.638463,-1.431234,1.572576,-4.633700,-0.163444,-0.616114
45219,8.972586,-3.468318,1.467418,-4.324268,-0.234826,-0.500256
45220,8.844536,-5.234104,1.899344,-3.245280,-0.408765,-0.459185
45221,9.629194,-6.464456,2.372123,-1.545133,-0.619429,-0.381466
45222,10.436610,-5.290028,3.558010,0.374859,-0.729238,-0.410982
45223,10.969623,-5.033821,4.169123,1.894519,-0.707334,-0.403250
45224,10.213982,-2.903986,4.273234,2.954892,-0.582220,-0.471992
45225,9.681313,-2.033842,3.285056,3.554144,-0.588353,-0.370553
45226,9.211950,-0.686185,2.768070,3.681566,-0.565806,-0.301474
45227,8.930075,-0.269272,2.776943,3.559692,-0.576709,-0.219162
45228,9.492325,0.477535,3.225868,3.341787,-0.590583,-0.239948
45229,10.473241,1.422074,3.165301,2.920690,-0.535230,-0.265693
45230,10.863822,2.590864,2.693817,2.239494,-0.420872,-0.253312
45231,10.678696,3.364053,2.454861,1.325658,-0.281279,-0.255840
45232,10.200305,2.975191,2.171877,0.340391,-0.151688,-0.275276
45233,9.832396,1.454683,1.609370,-0.421835,-0.063800,-0.334993
45234,9.669046,-0.404785,1.431976,-0.791840,-0.015862,-0.388624
45235,9.692823,-1.725266,1.405024,-0.813290,-0.014892,-0.357299
45236,9.739975,-2.268615,1.545413,-0.599027,-0.043560,-0.272041
45237,9.687001,-2.144174,1.526362,-0.292868,-0.066023,-0.172466
45238,9.586311,-1.698634,1.392677,0.008708,-0.089297,-0.093950
45239,9.611813,-1.332189,1.315857,0.263588,-0.082769,-0.031653
45240,9.643785,-1.174010,1.321553,0.456392,-0.095772,0.021895
45241,9.822222,-1.168696,1.454134,0.611943,-0.102867,0.081767
45242,9.961202,-0.931925,1.676251,0.718082,-0.094542,0.125986
45243,9.982669,-0.496580,1.912443,0.739753,-0.084418,0.160150
45244,9.987213,0.011472,2.067487,0.638083,-0.078001,0.175253
45245,10.044215,0.355001,1.910942,0.435375,-0.051973,0.202245
45246,9.822308,0.614689,1.694865,0.167428,-0.025433,0.209131
45247,9.615242,0.594638,1.623420,-0.111782,-0.029278,0.193299
45248,9.599573,0.205090,1.675601,-0.337660,-0.026435,0.170804
45249,9.680820,-0.265641,1.712906,-0.490831,-0.033030,0.160676
45250,9.742397,-0.700042,1.644313,-0.575704,-0.044048,0.171290
45251,9.815071,-1.025853,1.586572,-0.595799,-0.061509,0.179422
45252,9.919826,-1.206881,1.611637,-0.569807,-0.076493,0.178968
45253,9.911434,-1.159083,1.543817,-0.498092,-0.117868,0.195642
45254,9.815224,-0.683850,1.799399,-0.427582,-0.157618,0.215618
45255,9.605422,-0.120726,2.081680,-0.472850,-0.167791,0.237515
45256,9.671463,-0.955831,1.985224,-0.363146,-0.228823,0.283083
45257,9.637081,-0.630587,2.083427,0.022944,-0.241311,0.229885
45258,9.576231,0.962688,2.594463,0.319691,-0.232107,0.179320
45259,9.984430,1.274981,2.411279,0.407063,-0.215648,0.150605
45260,10.211087,0.864961,2.210389,0.524065,-0.133519,0.112580
45261,10.107905,0.711610,2.246764,0.648466,-0.059430,0.055079
45262,9.966853,0.471225,2.066810,0.725500,-0.026473,0.004830
45263,9.997924,0.313726,1.891482,0.753997,-0.003806,-0.028475
45264,9.977197,0.329878,1.845740,0.730544,0.023249,-0.047569
45265,9.984143,0.325364,1.682607,0.644646,0.040047,-0.044729
45266,10.000128,0.302847,1.491394,0.524541,0.060008,-0.032894
45267,9.988874,0.310604,1.474600,0.375204,0.074982,-0.012514
45268,9.907706,0.084058,1.425157,0.182345,0.103363,-0.000419
45269,9.711520,-0.486281,1.182077,0.041765,0.107461,0.023106
45270,9.507883,-1.011006,0.992723,0.016642,0.089796,0.032202
45271,9.509237,-1.195458,1.063446,0.069675,0.053434,0.040266
45272,9.540847,-1.140299,1.130781,0.129905,0.029024,0.050400
45273,9.572004,-0.873839,1.236850,0.152226,-0.000083,0.060890
45274,9.702956,-0.615580,1.295829,0.162999,-0.008553,0.062858
45275,9.678075,-0.504268,1.353245,0.156325,-0.013082,0.069266
45276,9.683517,-0.172794,1.435061,0.146658,-0.025603,0.066716
45277,9.783162,0.018904,1.588649,0.124163,-0.044543,0.055976
45278,9.891631,0.177985,1.739620,0.096999,-0.035721,0.047125
45279,9.908306,0.301020,1.801428,0.070712,-0.020330,0.037479
45280,9.835667,0.438583,1.850310,0.037152,-0.012331,0.025435
45281,9.906491,0.458926,1.761787,0.011598,-0.005603,0.010688
45282,9.882036,0.362783,1.779532,-0.003719,0.004988,-0.006551
45283,9.910353,0.336772,1.742510,-0.028036,0.015495,-0.013891
45284,9.828158,0.306436,1.595870,-0.074167,0.023401,-0.026743
45285,9.818353,0.109728,1.589232,-0.115715,0.024203,-0.028443
45286,9.774112,-0.185182,1.577732,-0.145777,0.028081,-0.024793
45287,9.767902,-0.309337,1.536695,-0.175134,0.018743,-0.025807
45288,9.720638,-0.458812,1.434326,-0.191142,0.016286,-0.024491
45289,9.696204,-0.555418,1.451796,-0.193111,0.012274,-0.023676
45290,9.698822,-0.713493,1.406179,-0.192831,0.009248,-0.017701
45291,9.728305,-0.726224,1.419321,-0.195777,-0.000517,-0.007043
45292,9.728191,-0.517120,1.459469,-0.200077,-0.009257,-0.001916
45293,9.817597,-0.538799,1.551859,-0.201515,-0.016930,-0.002057
45294,9.833891,-0.633812,1.654272,-0.188756,-0.010560,0.006220
45295,9.805403,-0.616371,1.771748,-0.144730,-0.006617,0.003540
45296,9.784303,-0.424738,1.716590,-0.113268,-0.011311,0.007615
45297,9.743934,-0.225927,1.750734,-0.096868,-0.012100,0.009956
45298,9.784478,-0.218990,1.757500,-0.085229,-0.009268,0.013002
45299,9.824122,-0.232220,1.792887,-0.074125,-0.002784,0.017009
45300,9.807969,-0.142595,1.688699,-0.067688,0.006750,0.014898
45301,9.795126,-0.200326,1.671162,-0.064534,0.018080,0.009910
45302,9.831003,-0.281536,1.659716,-0.069230,0.016952,0.008711
45303,9.840726,-0.276836,1.602996,-0.076454,0.024581,0.008502
45304,9.849545,-0.292405,1.574819,-0.094473,0.027217,0.009825
45305,9.791011,-0.252244,1.521593,-0.125832,0.033616,0.013680
45306,9.770326,-0.257586,1.479943,-0.157059,0.030701,0.015954
45307,9.788328,-0.294466,1.501960,-0.193075,0.026850,0.019323
45308,9.794604,-0.366995,1.476404,-0.221587,0.025242,0.018670
45309,9.792503,-0.405892,1.453129,-0.219336,0.025278,0.012544
