// Start Time: Unknown
// Update Rate: 100.0Hz
// Filter Profile: human (46.1)
// Firmware Version: 4.3.5
PacketCounter,Acc_X,Acc_Y,Acc_Z,Gyr_X,Gyr_Y,Gyr_Z
17343,9.723954,-0.909606,0.809881,0.028415,0.008428,0.005522
17344,9.757364,-0.912046,0.818872,0.021595,0.008101,0.007751
17345,9.754967,-0.932731,0.749501,0.024415,0.007732,0.005245
17346,9.717984,-0.922676,0.833655,0.025645,0.012386,0.004306
17347,9.725664,-0.940812,0.797767,0.026485,0.013466,-0.000202
17348,9.753498,-0.954508,0.827776,0.027876,0.011483,0.000410
17349,9.813812,-0.918495,0.808149,0.028250,0.006220,0.001186
17350,9.839463,-0.902275,0.854316,0.019232,0.005973,0.002185
17351,9.818111,-0.928251,0.863485,0.013256,0.011149,0.001296
17352,9.817990,-0.928548,0.864539,0.017599,0.007407,0.007478
17353,9.782121,-0.896835,0.874353,0.020846,0.009783,0.003417
17354,9.758532,-0.892747,0.900411,0.021855,0.008643,0.001859
17355,9.716073,-0.820648,0.873367,0.020078,0.007046,-0.002320
17356,9.736136,-0.866277,0.853036,0.017293,0.006589,-0.004939
17357,9.732710,-0.907735,0.857744,0.013084,0.008942,-0.003048
17358,9.701388,-0.935260,0.833831,0.007300,0.006654,-0.007510
17359,9.724874,-0.939136,0.809298,0.008394,0.000542,0.002738
17360,9.716999,-0.920909,0.846991,0.012447,0.004821,-0.000710
17361,9.771773,-0.896738,0.847262,0.013244,0.002307,-0.001489
17362,9.787406,-0.882457,0.860052,0.008441,0.004129,-0.000993
17363,9.775127,-0.854406,0.844217,0.009829,0.002148,-0.000378
17364,9.810883,-0.886298,0.835685,0.006830,0.000317,-0.002220
17365,9.771740,-0.896004,0.848424,0.004221,0.002064,-0.000496
17366,9.793018,-0.869700,0.840478,0.004470,0.002605,-0.006399
17367,9.795294,-0.899034,0.824055,0.005692,0.002838,-0.008737
17368,9.771836,-0.894005,0.849420,-0.000713,0.005267,-0.008076
17369,9.805376,-0.895319,0.857955,-0.003536,0.005642,-0.005574
17370,9.771853,-0.892841,0.850454,-0.003536,0.005642,-0.005574
17371,9.726092,-0.862238,0.826651,-0.009107,0.004724,-0.010816
17372,9.725032,-0.933300,0.814132,-0.011300,0.004798,-0.012043
17373,9.744087,-0.876203,0.823207,-0.008088,0.008003,-0.010980
17374,9.748524,-0.884705,0.877449,-0.014667,0.008224,-0.014664
17375,9.779954,-0.905875,0.816092,-0.016259,0.013249,-0.013105
17376,9.777726,-0.874435,0.833796,-0.015042,0.009063,-0.016834
17377,9.793394,-0.858827,0.847251,-0.018615,0.015534,-0.017281
17378,9.777817,-0.871230,0.836076,-0.022199,0.013167,-0.020515
17379,9.793525,-0.854969,0.849630,-0.018527,0.013870,-0.027523
17380,9.816959,-0.805663,0.912994,-0.021050,0.013950,-0.036042
17381,9.783631,-0.799783,0.906374,-0.023308,0.018991,-0.049064
17382,9.791901,-0.812498,0.870481,-0.018949,0.014148,-0.066312
17383,9.807941,-0.791365,0.884215,-0.017192,0.015464,-0.080436
17384,9.785730,-0.706278,0.924082,-0.017683,0.026234,-0.106176
17385,9.810027,-0.576494,1.002218,-0.032989,0.035250,-0.130260
17386,9.868801,-0.547033,0.914876,-0.055895,0.041992,-0.152732
17387,9.957637,-0.631766,0.826376,-0.064349,0.039166,-0.159771
17388,10.110877,-0.761056,0.758448,-0.053642,0.055650,-0.160381
17389,10.146252,-0.870885,0.816742,-0.052189,0.074884,-0.157828
17390,10.004470,-0.975062,0.801866,-0.055868,0.071074,-0.160241
17391,9.864678,-1.059743,0.855408,-0.059826,0.041882,-0.154971
17392,9.783685,-1.056567,0.828567,-0.048796,0.012313,-0.148399
17393,9.653571,-0.922639,0.805869,-0.024513,0.001196,-0.147890
17394,9.606899,-0.757025,0.881761,-0.028080,-0.007854,-0.156841
17395,9.586962,-0.696531,0.901988,-0.049737,-0.008771,-0.161028
17396,9.542523,-0.726810,1.008058,-0.074726,0.004709,-0.160655
17397,9.546922,-0.908712,1.037772,-0.096744,0.004027,-0.153842
17398,9.637820,-1.182141,1.065860,-0.102944,0.014579,-0.129901
17399,9.731110,-1.416488,1.091761,-0.079448,0.037220,-0.085973
17400,9.744300,-1.532094,1.172358,-0.033997,0.069958,-0.059123
17401,9.750401,-1.587919,1.145674,0.003594,0.087400,-0.023955
17402,9.751393,-1.731053,1.127459,0.040210,0.093552,0.013645
17403,9.740958,-1.807947,1.091384,0.085264,0.102563,0.058367
17404,9.749687,-1.956789,1.109925,0.126776,0.116573,0.110759
17405,9.687522,-2.150232,1.117770,0.175251,0.129570,0.169081
17406,9.717968,-2.365089,1.173740,0.214613,0.135796,0.240961
17407,9.703768,-2.493488,1.130583,0.274719,0.154144,0.313646
17408,9.702148,-2.614402,1.103540,0.346235,0.161031,0.392889
17409,9.704232,-2.637389,1.142474,0.426913,0.172370,0.465662
17410,9.719104,-2.601024,1.139098,0.501241,0.178630,0.539578
17411,9.737306,-2.486944,1.273200,0.556745,0.183841,0.618015
17412,9.781817,-2.538929,1.269728,0.583636,0.194001,0.698817
17413,9.756751,-2.491838,1.277986,0.600481,0.213703,0.770481
17414,9.802197,-2.597532,1.317121,0.590789,0.234673,0.830916
17415,9.812203,-2.761768,1.265248,0.614214,0.250584,0.907240
17416,9.778625,-2.807085,1.269813,0.640828,0.273529,0.964414
17417,9.800061,-2.811606,1.346670,0.677411,0.284692,1.010499
17418,9.820604,-2.819967,1.425136,0.697794,0.296267,1.050235
17419,9.816108,-2.645729,1.473048,0.733178,0.312134,1.094995
17420,9.769285,-2.615763,1.494772,0.750731,0.327384,1.123051
17421,9.788350,-2.716511,1.425646,0.772908,0.342905,1.151860
17422,9.800496,-2.747042,1.531284,0.798232,0.354116,1.182545
17423,9.754424,-2.760019,1.597139,0.785146,0.376058,1.190211
17424,9.765002,-2.787759,1.650992,0.777084,0.388604,1.201813
17425,9.822367,-2.873289,1.701417,0.774032,0.396890,1.216461
17426,9.750710,-2.722748,1.824228,0.744755,0.428919,1.217815
17427,9.774841,-3.106766,1.641934,0.740071,0.434675,1.236720
17428,9.632283,-3.072546,1.693120,0.762203,0.457369,1.245842
17429,9.479833,-3.075341,1.752008,0.754046,0.451277,1.251625
17430,9.419314,-2.977881,1.823947,0.739834,0.439941,1.246571
17431,9.444986,-2.879395,1.871721,0.706390,0.424762,1.231680
17432,9.434142,-2.988925,1.888856,0.641862,0.427846,1.223263
17433,9.447596,-3.081357,1.950410,0.602217,0.430993,1.218997
17434,9.281449,-2.969169,2.071832,0.544925,0.448571,1.205393
17435,9.191655,-3.040324,2.115175,0.470205,0.435521,1.191060
17436,9.056280,-3.171767,2.032768,0.434799,0.415664,1.180481
17437,8.966757,-3.356656,1.983314,0.434206,0.390352,1.155961
17438,8.937709,-3.498434,2.000658,0.419424,0.368442,1.133572
17439,8.879873,-3.595585,2.068269,0.386468,0.349387,1.114931
17440,8.839263,-3.567113,2.142759,0.383158,0.329286,1.089295
17441,8.757262,-3.563812,2.157617,0.366475,0.309646,1.061143
17442,8.612706,-3.645429,2.200335,0.341789,0.284892,1.019596
17443,8.536349,-3.695453,2.112108,0.349869,0.249123,0.986279
17444,8.421232,-3.760491,2.052193,0.357674,0.228537,0.943337
17445,8.340368,-3.911819,2.018664,0.370902,0.195681,0.910000
17446,8.306573,-3.854490,2.185084,0.392854,0.155555,0.867388
17447,8.294019,-3.845933,2.264926,0.397087,0.126151,0.840596
17448,8.291699,-3.722484,2.336300,0.395874,0.101571,0.795297
17449,8.237265,-3.743038,2.266498,0.379949,0.078298,0.742997
17450,8.196498,-3.836386,2.189164,0.367014,0.054179,0.702643
17451,8.152479,-3.923390,2.164338,0.386870,0.020067,0.678721
17452,8.102063,-3.866248,2.236070,0.390480,-0.013754,0.651365
17453,8.144963,-3.686005,2.312384,0.373175,-0.048767,0.623081
17454,8.162206,-3.761962,2.337519,0.333790,-0.070664,0.580717
17455,8.139040,-3.673368,2.299038,0.316907,-0.084369,0.524936
17456,8.086754,-3.563245,2.297132,0.266433,-0.106521,0.472829
17457,8.095714,-3.728151,2.211792,0.229199,-0.130552,0.432350
17458,8.100356,-3.838010,2.349813,0.202024,-0.144474,0.388118
17459,8.129744,-3.941280,2.442711,0.157636,-0.162826,0.354911
17460,8.139995,-4.136021,2.486383,0.135029,-0.173380,0.324152
17461,8.044613,-4.236481,2.535492,0.143585,-0.176251,0.272581
17462,7.929966,-4.185388,2.556974,0.161076,-0.202213,0.219555
17463,7.954766,-4.119303,2.649795,0.155372,-0.234011,0.145391
17464,7.998433,-4.117802,2.769568,0.127411,-0.260551,0.091325
17465,8.090744,-4.071329,2.664125,0.101868,-0.280600,0.043159
17466,8.216145,-4.401809,2.379962,0.114079,-0.289984,0.009631
17467,8.241041,-4.564115,2.250089,0.178634,-0.285787,-0.012203
17468,8.287509,-4.570886,2.228347,0.233744,-0.280138,-0.002491
17469,8.293349,-4.596296,2.187001,0.255683,-0.275394,0.015719
17470,8.389911,-4.344327,2.184511,0.307051,-0.272767,0.026708
17471,8.548029,-4.101471,2.130350,0.328572,-0.267878,0.024941
17472,8.607434,-3.781811,2.138872,0.332190,-0.261777,0.008821
17473,8.675963,-3.662212,2.192750,0.293078,-0.262605,-0.011316
17474,8.800512,-3.622957,2.267054,0.222735,-0.257474,-0.023988
17475,8.838933,-3.722851,2.343945,0.146150,-0.240894,-0.033413
17476,8.773500,-3.986454,2.307169,0.087313,-0.218216,-0.031335
17477,8.729341,-4.149800,2.368104,0.077693,-0.211794,-0.016182
17478,8.763740,-4.339267,2.412616,0.062169,-0.201191,0.005040
17479,8.774997,-4.385008,2.426441,0.064508,-0.195118,0.022657
17480,8.816994,-4.429081,2.375393,0.064555,-0.177350,0.035135
17481,8.840410,-4.429001,2.318954,0.069737,-0.171412,0.042678
17482,8.823055,-4.409687,2.325973,0.069018,-0.164681,0.045110
17483,8.852126,-4.448777,2.353610,0.074597,-0.152973,0.048374
17484,8.833820,-4.467920,2.280136,0.096631,-0.147468,0.047428
17485,8.892982,-4.496352,2.298474,0.127075,-0.145304,0.056981
17486,8.933622,-4.472488,2.365518,0.147415,-0.143800,0.070939
17487,8.899376,-4.346045,2.430069,0.150580,-0.115827,0.065740
17488,8.779909,-4.163132,2.377721,0.151030,-0.097906,0.043691
17489,8.738434,-4.034679,2.279650,0.157758,-0.090694,0.029153
17490,8.646192,-3.908335,2.292561,0.155174,-0.087098,0.009414
17491,8.719203,-3.868621,2.351356,0.119087,-0.083938,-0.001564
17492,8.852340,-3.840021,2.355532,0.067393,-0.070205,-0.014182
17493,8.858933,-3.767333,2.275186,0.020072,-0.048568,-0.036580
17494,8.876318,-3.684223,2.226424,-0.016356,-0.038553,-0.073093
17495,8.913571,-3.604623,2.266164,-0.062452,-0.029888,-0.102536
17496,9.030527,-3.539471,2.340808,-0.126650,-0.011694,-0.150057
17497,8.991032,-3.446250,2.289667,-0.190572,0.003726,-0.197791
17498,8.927385,-3.468224,2.222491,-0.230392,0.015526,-0.247500
17499,8.817265,-3.459031,2.107017,-0.226370,0.014717,-0.307174
17500,8.811642,-3.365319,2.068949,-0.194571,0.006916,-0.370061
17501,8.907783,-3.240710,2.105218,-0.175528,-0.002899,-0.433104
17502,8.947150,-3.053207,2.144315,-0.188767,-0.010106,-0.503359
17503,9.074328,-2.959424,2.163809,-0.220783,-0.010115,-0.566644
17504,9.113019,-2.884121,2.086075,-0.273348,-0.011254,-0.629860
17505,9.130608,-2.939294,2.069242,-0.313852,-0.002258,-0.681919
17506,9.130256,-3.024598,2.066982,-0.336315,0.006404,-0.722206
17507,9.102770,-3.040356,2.055203,-0.356510,0.003909,-0.766231
17508,9.066597,-2.952683,2.018955,-0.386594,0.000209,-0.811987
17509,9.059504,-2.787733,2.028736,-0.409049,-0.004263,-0.879355
17510,9.151477,-2.601034,2.004648,-0.447592,-0.005465,-0.944645
17511,9.257286,-2.556543,2.051703,-0.478015,-0.008608,-1.004232
17512,9.365700,-2.517177,1.989303,-0.530154,-0.001737,-1.060081
17513,9.410644,-2.561841,1.912574,-0.579216,0.015211,-1.103717
17514,9.381190,-2.641436,1.848694,-0.596086,0.024977,-1.148825
17515,9.406486,-2.719748,1.751593,-0.581265,0.018370,-1.203971
17516,9.452274,-2.655718,1.817538,-0.568406,0.006347,-1.256328
17517,9.518350,-2.665295,1.823223,-0.561616,-0.001368,-1.310993
17518,9.548202,-2.584728,1.744686,-0.569350,-0.007422,-1.357089
17519,9.617564,-2.645072,1.707801,-0.591755,-0.010130,-1.385437
17520,9.713053,-2.654010,1.742997,-0.604038,-0.017243,-1.395223
17521,9.797462,-2.701675,1.734901,-0.621255,-0.008432,-1.390977
17522,9.847706,-2.713128,1.746019,-0.632762,0.009097,-1.383969
17523,9.783751,-2.692057,1.633584,-0.632624,0.018069,-1.383428
17524,9.610496,-2.629736,1.539052,-0.624302,0.010142,-1.393054
17525,9.545022,-2.642097,1.468678,-0.624906,-0.015291,-1.409195
17526,9.613229,-2.647936,1.398170,-0.604958,-0.038106,-1.394884
17527,9.702238,-2.664320,1.523138,-0.607982,-0.035653,-1.371828
17528,9.778309,-2.664636,1.593478,-0.612036,-0.009090,-1.329895
17529,9.809181,-2.611384,1.610170,-0.613897,0.015539,-1.295825
17530,9.791073,-2.602305,1.540126,-0.597879,0.033316,-1.268907
17531,9.773178,-2.465844,1.571468,-0.565070,0.031231,-1.252614
17532,9.780451,-2.339546,1.472306,-0.540661,0.004385,-1.238988
17533,9.775834,-2.123558,1.429117,-0.520697,-0.015952,-1.237932
17534,9.780663,-2.095749,1.347410,-0.497063,-0.029523,-1.226485
17535,9.765361,-1.987672,1.344139,-0.462742,-0.039194,-1.224107
17536,9.708401,-1.849792,1.254363,-0.424119,-0.047234,-1.206632
17537,9.639185,-1.727839,1.295428,-0.387114,-0.058540,-1.196568
17538,9.663815,-1.542235,1.231402,-0.361379,-0.089494,-1.176249
17539,9.738602,-1.407340,1.163738,-0.341515,-0.118559,-1.167117
17540,9.878230,-1.266481,1.008306,-0.329791,-0.131060,-1.171263
17541,9.962375,-1.258768,0.997273,-0.303486,-0.115665,-1.206177
17542,9.889718,-1.326826,1.232474,-0.313081,-0.092540,-1.270516
17543,9.623240,-1.325160,1.515202,-0.282641,-0.091686,-1.347998
17544,9.506199,-1.174577,1.578010,-0.189141,-0.150802,-1.386758
17545,9.650874,-0.358089,1.730363,-0.093263,-0.213151,-1.362346
17546,9.934086,0.276363,1.702073,-0.108177,-0.239618,-1.296265
17547,9.963198,0.644603,1.610852,-0.218188,-0.217054,-1.244831
17548,9.963488,0.569763,1.555054,-0.403233,-0.200292,-1.231535
17549,9.811244,0.325365,1.455230,-0.572903,-0.187699,-1.247118
17550,9.773604,-0.064878,1.338615,-0.664777,-0.204226,-1.266655
17551,9.756210,-0.286382,1.361877,-0.663516,-0.232366,-1.266454
17552,9.823142,-0.448934,1.460679,-0.647038,-0.252269,-1.266829
17553,9.881829,-0.396969,1.469748,-0.590501,-0.244790,-1.250730
17554,9.957351,-0.132296,1.459829,-0.523223,-0.227045,-1.228151
17555,9.910153,-0.045535,1.380939,-0.463121,-0.212967,-1.196875
17556,9.909783,0.242982,1.404192,-0.401734,-0.204639,-1.166549
17557,9.902691,0.210969,1.302235,-0.347179,-0.188311,-1.132169
17558,9.914551,0.409000,1.428109,-0.303700,-0.186428,-1.096954
17559,9.895846,0.609101,1.524153,-0.331670,-0.183086,-1.050545
17560,9.914192,0.592815,1.503471,-0.368295,-0.176768,-0.995378
17561,10.018556,0.719532,1.532876,-0.417012,-0.162225,-0.946152
17562,10.081372,0.670410,1.509777,-0.458092,-0.132554,-0.881733
17563,10.085375,0.567945,1.419277,-0.478067,-0.098020,-0.802785
17564,9.790967,0.310569,1.270532,-0.461941,-0.068392,-0.712277
17565,9.506771,0.222703,1.325777,-0.460025,-0.066790,-0.636561
17566,9.412765,0.221627,1.417809,-0.455249,-0.063906,-0.564049
17567,9.405577,0.259908,1.379434,-0.463341,-0.062294,-0.481658
17568,9.459141,0.419752,1.348495,-0.426823,-0.049778,-0.406206
17569,9.519640,0.219003,1.381187,-0.404013,-0.016079,-0.328788
17570,9.717543,0.394448,1.518329,-0.381619,0.014947,-0.239471
17571,9.787111,0.426322,1.577542,-0.395743,0.052366,-0.143418
17572,9.793502,0.492110,1.630442,-0.394956,0.086378,-0.048377
17573,9.752047,0.578126,1.640637,-0.410549,0.127889,0.045771
17574,9.780954,0.512097,1.656459,-0.408257,0.162504,0.119177
17575,9.842864,0.528483,1.624337,-0.414801,0.199545,0.208726
17576,9.849152,0.455584,1.650493,-0.410258,0.241681,0.295556
17577,9.921716,0.377593,1.754844,-0.403667,0.271277,0.376085
17578,10.064511,0.332549,1.844225,-0.397318,0.287393,0.458121
17579,10.251839,0.385028,1.901652,-0.370864,0.317665,0.548899
17580,10.357371,0.367094,1.966978,-0.372890,0.369995,0.649845
17581,10.291061,0.219051,2.008213,-0.366709,0.437777,0.747364
17582,10.153867,0.150175,2.042614,-0.371370,0.488249,0.838057
17583,10.098801,0.003826,2.139833,-0.381012,0.516418,0.931888
17584,10.142602,-0.240329,2.104160,-0.378016,0.547527,1.031090
17585,10.141627,-0.629088,2.083312,-0.350398,0.564179,1.145240
17586,10.275812,-0.893046,2.174439,-0.290136,0.594080,1.256490
17587,10.356129,-1.005852,2.287719,-0.242516,0.632917,1.368098
17588,10.343396,-1.188171,2.176578,-0.202035,0.666320,1.470186
17589,10.264558,-1.311599,2.161394,-0.114559,0.671058,1.567163
17590,10.377351,-1.339809,2.293570,-0.041642,0.692602,1.661452
17591,10.330246,-1.335231,2.311249,-0.001501,0.744250,1.755784
17592,10.151872,-1.285006,2.417100,0.013155,0.781838,1.848074
17593,9.996988,-1.535701,2.406435,0.020405,0.798589,1.925788
17594,9.928995,-1.759590,2.522021,0.000596,0.775030,2.022114
17595,9.946980,-1.908120,2.641019,0.007925,0.741261,2.099595
17596,10.126377,-2.057963,2.813137,0.005995,0.725612,2.160972
17597,10.249653,-2.109633,2.748614,0.045656,0.742168,2.195909
17598,10.189187,-2.134805,2.840766,0.089717,0.763991,2.203544
17599,10.203606,-2.224936,2.930585,0.108933,0.768243,2.233066
17600,10.096897,-2.343949,3.099917,0.086247,0.810898,2.245578
17601,9.821812,-2.451741,3.175278,0.071909,0.832632,2.266404
17602,9.715813,-2.625213,3.275439,0.068599,0.820218,2.293471
17603,9.686047,-2.656535,3.387757,0.101897,0.833179,2.332185
17604,9.688768,-2.727345,3.468108,0.124717,0.862119,2.352559
17605,9.767073,-2.897665,3.379505,0.134953,0.883804,2.377670
17606,9.720931,-3.143425,3.332090,0.110711,0.911462,2.387864
17607,9.470658,-3.355286,3.458500,0.072656,0.933822,2.368723
17608,9.155820,-3.387426,3.595092,0.069268,0.921719,2.342542
17609,9.128521,-3.328635,3.659630,0.088064,0.887266,2.321111
17610,9.082834,-3.379819,3.568550,0.090377,0.872555,2.281343
17611,8.890582,-3.287774,3.623193,0.068035,0.857839,2.244313
17612,8.709702,-3.495650,3.765653,0.010828,0.836876,2.197624
17613,8.504736,-3.919615,3.595523,0.015164,0.798779,2.171246
17614,8.395755,-4.182992,3.631041,0.029654,0.783541,2.150184
17615,8.163521,-4.301027,3.793326,0.047079,0.791408,2.105290
17616,7.947865,-4.349792,3.849701,0.103366,0.769509,2.042246
17617,7.817368,-4.269085,3.888372,0.129190,0.730085,1.983890
17618,7.666532,-4.421793,3.721328,0.152070,0.693864,1.933563
17619,7.428776,-4.183751,3.858276,0.125172,0.682649,1.861174
17620,7.236446,-4.189636,3.933321,0.081267,0.663324,1.786483
17621,7.119821,-4.061585,3.935076,0.016996,0.639790,1.692481
17622,7.143075,-4.276142,3.890837,-0.053476,0.599862,1.638940
17623,6.992441,-4.230257,3.949972,-0.114699,0.583438,1.573000
17624,6.805231,-4.542802,3.806513,-0.147350,0.536953,1.513402
17625,6.618562,-4.731367,3.809080,-0.129865,0.492714,1.456735
17626,6.416126,-4.936897,3.859439,-0.123829,0.465758,1.384517
17627,6.258793,-5.107291,3.770859,-0.114877,0.408526,1.324080
17628,6.155745,-5.321869,3.809981,-0.080890,0.345962,1.268984
17629,6.040271,-5.438194,3.771027,-0.020602,0.285906,1.205583
17630,5.962083,-5.356431,3.813694,0.037827,0.233076,1.147014
17631,5.816170,-5.310843,3.830610,0.107282,0.185389,1.066031
17632,5.774064,-5.308419,3.881137,0.145955,0.137117,0.983006
17633,5.723891,-5.358502,3.862465,0.177175,0.100507,0.908945
17634,5.550276,-5.323005,3.889825,0.203492,0.066852,0.831934
17635,5.524982,-5.345568,4.010391,0.217617,0.026714,0.755272
17636,5.606508,-5.291159,4.191300,0.193944,0.010878,0.701282
17637,5.608203,-5.339112,4.208037,0.167330,0.006070,0.641071
17638,5.671227,-5.480996,4.168236,0.145355,-0.017915,0.608145
17639,5.655140,-5.604767,4.182772,0.110020,-0.047183,0.558696
17640,5.660116,-5.746550,4.216078,0.089326,-0.070596,0.496439
17641,5.635719,-5.869569,4.206725,0.083314,-0.093682,0.440815
17642,5.553246,-5.968534,4.239160,0.103206,-0.111872,0.385114
17643,5.464477,-6.069295,4.219136,0.144477,-0.143542,0.333371
17644,5.477047,-6.068687,4.292775,0.184630,-0.175974,0.288604
17645,5.531086,-6.141322,4.291527,0.224859,-0.199633,0.255581
17646,5.505720,-6.079064,4.233927,0.253555,-0.215598,0.226828
17647,5.425957,-5.957673,4.304037,0.276441,-0.232260,0.177907
17648,5.430390,-5.853795,4.315429,0.269810,-0.253024,0.122831
17649,5.435358,-5.685646,4.440066,0.230261,-0.255963,0.064521
17650,5.472586,-5.463517,4.558870,0.156834,-0.252309,0.005523
17651,5.408466,-5.269491,4.541013,0.067327,-0.239633,-0.061950
17652,5.380553,-5.215628,4.554958,-0.006069,-0.231958,-0.142587
17653,5.415607,-5.203638,4.559124,-0.074341,-0.231878,-0.219035
17654,5.476485,-5.213932,4.547122,-0.133356,-0.234216,-0.285590
17655,5.555086,-5.277248,4.468974,-0.186556,-0.231681,-0.364084
17656,5.611909,-5.331830,4.471772,-0.214972,-0.241701,-0.439013
17657,5.771050,-5.402528,4.396473,-0.254657,-0.254257,-0.507136
17658,5.900626,-5.474898,4.314227,-0.291552,-0.267219,-0.564288
17659,5.952124,-5.500851,4.286375,-0.319593,-0.272112,-0.624354
17660,5.969902,-5.505646,4.250975,-0.349012,-0.279979,-0.688679
17661,6.040493,-5.475730,4.198197,-0.371891,-0.295316,-0.761727
17662,6.025762,-5.453526,4.187640,-0.403465,-0.305890,-0.835650
17663,6.123095,-5.413703,4.114578,-0.420737,-0.321306,-0.906179
17664,6.215909,-5.343353,4.071571,-0.457543,-0.328532,-0.965297
17665,6.326062,-5.340812,4.031399,-0.493409,-0.338796,-1.028859
17666,6.378197,-5.276400,3.928380,-0.520268,-0.343576,-1.085498
17667,6.429621,-5.206184,3.858574,-0.538922,-0.347716,-1.154207
17668,6.553281,-5.137814,3.827721,-0.567207,-0.357209,-1.212912
17669,6.680770,-5.118987,3.709855,-0.607311,-0.356784,-1.269267
17670,6.806706,-5.220612,3.626712,-0.644055,-0.351596,-1.321185
17671,6.967364,-5.283885,3.506767,-0.641545,-0.368576,-1.372024
17672,7.143371,-5.311269,3.367043,-0.648348,-0.371370,-1.414941
17673,7.214525,-5.389668,3.235859,-0.653721,-0.374351,-1.475750
17674,7.157440,-5.453201,3.182174,-0.626160,-0.381483,-1.546968
17675,7.112685,-5.330060,3.201171,-0.563571,-0.403636,-1.612915
17676,7.291636,-5.070911,3.322034,-0.498676,-0.454067,-1.655919
17677,7.607851,-4.829183,3.431277,-0.473896,-0.482393,-1.684224
17678,7.912265,-4.632493,3.397668,-0.524950,-0.489545,-1.703869
17679,8.158505,-4.764985,3.190884,-0.581616,-0.484043,-1.734219
17680,8.343998,-5.000571,3.040696,-0.622026,-0.478959,-1.741006
17681,8.416987,-5.263715,2.967602,-0.633775,-0.459158,-1.741607
17682,8.387944,-5.337947,2.952860,-0.628088,-0.428711,-1.766372
17683,8.326288,-5.185062,2.954482,-0.599170,-0.396596,-1.814962
17684,8.264144,-5.028329,2.928088,-0.550513,-0.369219,-1.885518
17685,8.268386,-4.783393,3.017365,-0.489346,-0.374069,-1.952285
17686,8.349968,-4.442094,3.238327,-0.440001,-0.396777,-1.989897
17687,8.666456,-4.211611,3.172512,-0.415098,-0.405670,-1.992467
17688,8.945082,-4.225950,2.842812,-0.406931,-0.385108,-1.990741
17689,9.212932,-4.218163,2.617926,-0.383371,-0.374007,-1.973214
17690,9.358015,-4.181037,2.520831,-0.326698,-0.349833,-1.965715
17691,9.378821,-4.058738,2.526452,-0.264338,-0.315628,-1.974699
17692,9.302282,-3.524308,2.615800,-0.216729,-0.289939,-2.002502
17693,9.425889,-3.228674,2.486581,-0.206748,-0.284760,-2.040567
17694,9.611568,-2.827013,2.520334,-0.217392,-0.294956,-2.076706
17695,9.819605,-2.592952,2.620790,-0.261510,-0.292858,-2.089501
17696,10.016796,-2.518667,2.477420,-0.295437,-0.290471,-2.083548
17697,10.254868,-2.588123,2.453760,-0.312050,-0.280478,-2.070590
17698,10.319850,-2.515065,2.420171,-0.300933,-0.281605,-2.047969
17699,10.312565,-2.515191,2.384700,-0.290353,-0.264122,-2.043138
17700,10.348594,-2.363585,2.328801,-0.263250,-0.269524,-2.026889
17701,10.332148,-2.328978,2.212506,-0.229659,-0.271635,-2.001450
17702,10.257118,-2.135117,2.241727,-0.193652,-0.281235,-1.967276
17703,10.147881,-2.078266,2.172613,-0.163739,-0.295476,-1.920174
17704,10.091457,-1.740040,2.147268,-0.126543,-0.320266,-1.878193
17705,10.194171,-1.519072,2.144125,-0.136791,-0.334036,-1.839379
17706,10.209157,-1.516775,2.073095,-0.162999,-0.324898,-1.794200
17707,10.129621,-1.365136,2.030506,-0.163373,-0.314778,-1.739862
17708,10.201392,-1.310804,2.013932,-0.176168,-0.307843,-1.672122
17709,10.172949,-1.194734,2.018180,-0.161217,-0.284707,-1.596201
17710,10.141332,-1.008987,2.208813,-0.208340,-0.259163,-1.531489
17711,10.064809,-1.187844,2.141350,-0.222910,-0.234806,-1.469986
17712,10.022325,-1.092266,2.225842,-0.226758,-0.199214,-1.416970
17713,9.857857,-1.307574,2.034937,-0.215129,-0.161597,-1.344442
17714,9.668072,-1.479783,1.961788,-0.163245,-0.152830,-1.252508
17715,9.592825,-1.530326,1.923273,-0.113136,-0.156543,-1.142498
17716,9.513960,-1.843625,1.841488,-0.038960,-0.151296,-1.045884
17717,9.517775,-1.837452,1.838264,0.058630,-0.141351,-0.952362
17718,9.435379,-1.811884,1.766559,0.170315,-0.120555,-0.855628
17719,9.349749,-1.640032,1.714645,0.235308,-0.100692,-0.761718
17720,9.244717,-1.508834,1.663930,0.296945,-0.096157,-0.658137
17721,9.307842,-1.166705,1.783034,0.329421,-0.092398,-0.564086
17722,9.385885,-1.166348,1.709751,0.325945,-0.086067,-0.456070
17723,9.501123,-1.214515,1.645066,0.327738,-0.082933,-0.332721
17724,9.552133,-1.301291,1.606948,0.354546,-0.074450,-0.205928
17725,9.533203,-1.424442,1.562740,0.406351,-0.062039,-0.075066
17726,9.495443,-1.532183,1.508598,0.471568,-0.056443,0.052763
17727,9.377918,-1.729486,1.394154,0.566680,-0.060866,0.177620
17728,9.341853,-1.859274,1.519017,0.691343,-0.087307,0.299419
17729,9.461047,-1.749675,1.545385,0.810419,-0.114726,0.424826
17730,9.548148,-1.693640,1.520690,0.959199,-0.125156,0.531680
17731,9.655323,-1.617918,1.528675,1.060434,-0.125668,0.640443
17732,9.708515,-1.585934,1.491371,1.139959,-0.125396,0.744999
17733,9.793403,-1.519503,1.501101,1.206371,-0.137491,0.842500
17734,9.974305,-1.436678,1.493217,1.261066,-0.122709,0.933065
17735,10.055090,-1.348020,1.502115,1.323860,-0.096454,1.010731
17736,10.061387,-1.402967,1.350885,1.387005,-0.072620,1.095158
17737,10.088985,-1.453476,1.285363,1.424601,-0.066815,1.188232
17738,10.111922,-1.486540,1.272987,1.455431,-0.061035,1.285286
17739,10.166183,-1.527081,1.273525,1.475351,-0.039896,1.364168
17740,10.247704,-1.619300,1.256933,1.509810,-0.006201,1.440166
17741,10.224545,-1.622107,1.308839,1.528168,0.036280,1.514180
17742,10.149770,-1.389390,1.526764,1.516187,0.074467,1.554401
17743,10.086183,-1.370151,1.548273,1.450359,0.096641,1.573006
17744,10.148015,-1.393919,1.586090,1.435348,0.107896,1.591972
17745,10.265313,-1.449026,1.422477,1.464335,0.105898,1.605094
17746,10.463654,-1.456909,1.289284,1.502918,0.100531,1.622092
17747,10.510652,-1.398615,1.225180,1.529352,0.107688,1.628209
17748,10.500726,-1.530761,1.217491,1.508832,0.114398,1.630572
17749,10.488868,-1.592139,1.216788,1.499169,0.117521,1.653284
17750,10.395746,-1.601953,1.293076,1.452624,0.133272,1.666410
17751,10.335653,-1.577079,1.337228,1.412157,0.141767,1.686304
17752,10.156701,-1.604585,1.449620,1.369480,0.152429,1.694263
17753,9.954705,-1.686627,1.415600,1.329057,0.135779,1.689187
17754,9.861902,-1.723120,1.491550,1.276446,0.108922,1.664121
17755,9.862080,-1.739105,1.522821,1.205045,0.093881,1.634171
17756,9.880882,-1.771651,1.551789,1.157907,0.085925,1.607129
17757,9.855830,-1.782298,1.510906,1.109072,0.096505,1.566450
17758,9.726280,-1.677867,1.589933,1.035521,0.113321,1.515468
17759,9.587067,-1.666644,1.714838,0.916916,0.130839,1.450677
17760,9.367337,-1.755071,1.720845,0.818492,0.128136,1.408880
17761,9.377738,-2.029427,1.727732,0.730510,0.113734,1.359056
17762,9.365434,-2.090187,1.825499,0.678261,0.104078,1.316214
17763,9.397185,-2.288087,1.750623,0.626698,0.105581,1.265156
17764,9.333466,-2.284375,1.861286,0.625662,0.099753,1.198086
17765,9.400358,-2.189485,1.932705,0.600266,0.077145,1.125564
17766,9.403612,-2.149028,1.905632,0.563145,0.071016,1.048487
17767,9.426926,-2.193535,1.788500,0.555750,0.050951,0.982125
17768,9.321836,-2.137237,1.895051,0.549460,0.048934,0.921341
17769,9.301929,-2.083901,1.980511,0.490450,0.016814,0.896451
17770,9.352689,-2.243193,2.093027,0.404620,-0.008199,0.891368
17771,9.392789,-2.399181,2.092315,0.314886,-0.000910,0.894670
17772,9.388897,-2.377036,2.119505,0.230780,0.030185,0.890242
17773,9.287237,-2.348243,2.020828,0.175024,0.040160,0.868369
17774,9.223109,-2.268185,1.914885,0.138435,0.032656,0.820328
17775,9.235268,-2.237253,1.916472,0.079793,0.020055,0.762924
17776,9.262255,-2.342409,1.881705,-0.021599,0.014142,0.696531
17777,9.189904,-2.598362,1.920596,-0.080605,0.020153,0.651547
17778,9.194783,-2.819435,1.889625,-0.095043,0.014857,0.613250
17779,9.196284,-3.044475,1.991252,-0.064744,0.001967,0.587500
17780,9.220967,-3.152701,2.031999,-0.024299,-0.009668,0.563858
17781,9.130144,-3.130447,2.028884,0.007681,-0.012179,0.529671
17782,9.118211,-3.057864,2.064823,0.030060,-0.035013,0.488729
17783,9.122194,-3.019256,1.995641,0.066161,-0.046117,0.458812
17784,9.125922,-2.922023,1.929280,0.088164,-0.050388,0.406459
17785,9.024726,-2.877768,1.835583,0.073394,-0.055074,0.364484
17786,9.047275,-2.949835,1.817089,0.043603,-0.060316,0.325686
17787,8.961638,-3.043756,1.799783,0.022374,-0.048683,0.278346
17788,8.932971,-3.060870,1.894388,0.008666,-0.041086,0.235630
17789,8.883355,-2.999875,2.010287,-0.028659,-0.029406,0.200324
17790,8.867104,-3.010167,2.082544,-0.071289,-0.022344,0.165717
17791,8.911531,-2.993790,2.129502,-0.129742,-0.008069,0.122562
17792,8.949986,-3.092900,2.138931,-0.156770,0.003741,0.072440
17793,8.989695,-3.164731,2.122524,-0.176966,0.008141,0.018599
17794,9.010518,-3.164599,2.073167,-0.174205,0.000871,-0.041590
17795,8.974757,-3.214152,2.019537,-0.156653,-0.005769,-0.105171
17796,8.898716,-3.139398,1.980357,-0.140993,-0.025451,-0.160923
17797,8.914019,-3.046130,1.928915,-0.126908,-0.041354,-0.209842
17798,8.919151,-2.919453,1.926799,-0.144785,-0.061769,-0.246414
17799,8.875496,-2.789617,1.900627,-0.175547,-0.058773,-0.290535
17800,8.883991,-2.734622,1.918670,-0.233645,-0.055296,-0.338477
17801,9.008752,-2.862004,1.973456,-0.319869,-0.044487,-0.374861
17802,9.137348,-3.082818,2.126915,-0.424312,-0.013582,-0.396684
17803,9.149526,-3.299137,2.143553,-0.505224,0.018739,-0.411901
17804,9.166280,-3.552580,2.074996,-0.532216,0.037258,-0.422728
17805,9.214808,-3.790978,1.992844,-0.517532,0.048630,-0.431981
17806,9.276983,-3.876733,1.959501,-0.472654,0.049486,-0.446581
17807,9.288360,-3.886617,1.830375,-0.427840,0.047769,-0.481078
17808,9.197678,-3.833582,1.716331,-0.378316,0.043395,-0.515278
17809,9.123483,-3.711157,1.619176,-0.325472,0.022379,-0.552116
17810,9.124241,-3.535016,1.617920,-0.292029,-0.002527,-0.575331
17811,9.124474,-3.259776,1.739113,-0.291606,-0.018034,-0.600066
17812,9.108981,-2.917149,1.755599,-0.320432,-0.023160,-0.636739
17813,9.153554,-2.595836,1.742867,-0.386004,-0.032332,-0.681586
17814,9.282576,-2.336034,1.705009,-0.457788,-0.027193,-0.735584
17815,9.355500,-2.217254,1.644719,-0.551162,-0.017530,-0.795447
17816,9.430938,-2.204892,1.591514,-0.651025,-0.015116,-0.845574
17817,9.475900,-2.345259,1.599976,-0.762471,-0.000540,-0.892821
17818,9.531921,-2.536745,1.597214,-0.852310,0.020835,-0.921417
17819,9.501542,-2.786913,1.536489,-0.904947,0.046341,-0.941124
17820,9.544177,-3.019534,1.505654,-0.907776,0.055403,-0.957568
17821,9.552506,-3.069749,1.497558,-0.884756,0.050099,-0.977095
17822,9.682835,-3.098124,1.436736,-0.851370,0.040547,-1.001251
17823,9.907359,-3.058604,1.322230,-0.791669,0.012803,-1.032461
17824,10.029155,-2.992280,1.193762,-0.712557,0.000393,-1.078921
17825,10.042758,-3.051806,1.226401,-0.654723,-0.001363,-1.147116
17826,10.059035,-3.106025,1.313717,-0.599610,-0.002950,-1.198086
17827,10.054407,-3.052886,1.425209,-0.532113,0.006041,-1.224897
17828,10.067208,-2.863063,1.565482,-0.471290,0.016810,-1.215091
17829,10.138643,-2.594902,1.681995,-0.421313,0.042296,-1.183435
17830,10.242978,-2.421726,1.703607,-0.411333,0.073570,-1.161673
17831,10.189718,-2.248427,1.693530,-0.417315,0.134781,-1.154982
17832,10.079458,-2.218201,1.725613,-0.450830,0.192692,-1.185350
17833,9.814287,-2.290982,1.739857,-0.471240,0.228049,-1.223415
17834,9.703985,-2.201207,1.855507,-0.458940,0.233809,-1.256836
17835,9.717113,-2.062669,1.902833,-0.427525,0.239105,-1.283221
17836,9.782687,-1.968279,1.841896,-0.380031,0.245219,-1.292963
17837,9.762902,-1.950950,1.741227,-0.335409,0.251252,-1.305570
17838,9.792365,-2.021073,1.593062,-0.299289,0.252495,-1.313212
17839,9.811523,-2.139677,1.473526,-0.254554,0.251904,-1.304836
17840,9.759868,-2.231285,1.363500,-0.175683,0.241632,-1.293530
17841,9.717753,-2.108173,1.412782,-0.079485,0.216091,-1.285158
17842,9.728771,-2.141084,1.351962,0.001621,0.174521,-1.273609
17843,9.698818,-1.858260,1.422840,0.056703,0.157824,-1.269760
17844,9.653648,-1.660300,1.419515,0.101701,0.139449,-1.266336
17845,9.654033,-1.329266,1.383545,0.152385,0.110292,-1.252451
17846,9.633987,-0.940623,1.426117,0.153438,0.103389,-1.247858
17847,9.610771,-0.663871,1.414684,0.084235,0.100449,-1.240578
17848,9.668318,-0.319938,1.411772,0.006040,0.096109,-1.210871
17849,9.715709,-0.265707,1.407962,-0.114788,0.108617,-1.182762
17850,9.666745,-0.221722,1.367584,-0.232047,0.132893,-1.136749
17851,9.640738,-0.402061,1.311646,-0.302713,0.156143,-1.093958
17852,9.657507,-0.536107,1.383517,-0.367919,0.181357,-1.053672
17853,9.542790,-0.781578,1.350717,-0.365843,0.187207,-1.009738
17854,9.522748,-0.860799,1.468624,-0.314606,0.177389,-0.977052
17855,9.527865,-0.952183,1.530120,-0.239569,0.153996,-0.926725
17856,9.495191,-0.883948,1.548689,-0.160860,0.119567,-0.885658
17857,9.521136,-0.863647,1.617722,-0.081018,0.077732,-0.855270
17858,9.572613,-0.757338,1.595101,-0.018716,0.037161,-0.822679
17859,9.564170,-0.655309,1.576846,0.032683,0.001189,-0.797990
17860,9.564409,-0.401728,1.704189,0.043949,-0.033033,-0.767906
17861,9.569552,-0.323725,1.557206,0.041495,-0.069484,-0.729161
17862,9.555572,-0.190089,1.610216,0.032816,-0.101732,-0.679249
17863,9.541479,-0.008770,1.545028,0.011150,-0.130360,-0.625849
17864,9.500091,-0.027956,1.532236,-0.026981,-0.156250,-0.578748
17865,9.342053,0.036530,1.532795,-0.058427,-0.179597,-0.526963
17866,9.408747,0.146910,1.513201,-0.112713,-0.211703,-0.468946
17867,9.405782,0.073013,1.512962,-0.163571,-0.231684,-0.396592
17868,9.472523,0.169273,1.489324,-0.209018,-0.243681,-0.313339
17869,9.320345,0.107119,1.517440,-0.251913,-0.255272,-0.237911
17870,9.341228,-0.001796,1.511224,-0.272237,-0.290666,-0.176363
17871,9.407427,-0.187104,1.472265,-0.273865,-0.313697,-0.106465
17872,9.468331,-0.337362,1.423294,-0.267813,-0.344274,-0.033778
17873,9.411550,-0.454691,1.362456,-0.265467,-0.365386,0.045075
17874,9.412161,-0.579098,1.344171,-0.245980,-0.391522,0.125656
17875,9.426501,-0.641902,1.398121,-0.215314,-0.421519,0.224267
17876,9.532670,-0.795203,1.395437,-0.169857,-0.443818,0.334166
17877,9.646417,-0.753844,1.517497,-0.116481,-0.436983,0.425486
17878,9.750277,-0.552275,1.740330,-0.087353,-0.415124,0.507549
17879,9.840784,-0.427507,1.890750,-0.069165,-0.369255,0.562751
17880,9.794429,-0.300695,2.014379,-0.042997,-0.320576,0.616876
17881,9.744661,-0.349892,1.920741,-0.011470,-0.288888,0.671914
17882,9.740792,-0.415135,1.806203,0.036493,-0.261786,0.722823
17883,9.643716,-0.485572,1.640293,0.115819,-0.236396,0.768778
17884,9.526402,-0.497475,1.507638,0.214365,-0.219261,0.792045
17885,9.561997,-0.376144,1.523937,0.312276,-0.221901,0.798837
17886,9.673984,-0.186636,1.568611,0.414707,-0.224769,0.781270
17887,9.687184,0.165256,1.589151,0.470420,-0.212266,0.769954
17888,9.885554,0.475035,1.632132,0.437239,-0.199748,0.774686
17889,10.005932,0.717171,1.558218,0.362438,-0.165044,0.768683
17890,10.055719,0.713478,1.503743,0.261574,-0.138139,0.754214
17891,10.082734,0.627835,1.487597,0.169757,-0.115774,0.738588
17892,10.182543,0.474777,1.487534,0.095589,-0.093932,0.730538
17893,10.221620,0.285124,1.454728,0.045394,-0.065965,0.715871
17894,10.134649,0.051833,1.422211,0.011420,-0.043955,0.675346
17895,10.130744,-0.151019,1.457594,-0.007808,-0.051676,0.635039
17896,10.063319,-0.576210,1.326466,0.026541,-0.053713,0.614388
17897,9.968977,-0.636068,1.323522,0.079125,-0.046594,0.597313
17898,9.834874,-0.615452,1.264295,0.102415,-0.048747,0.577191
17899,9.787716,-0.429869,1.142947,0.106597,-0.062618,0.538373
17900,9.826513,-0.336533,1.052338,0.088103,-0.070364,0.497637
17901,9.835602,-0.204428,0.998574,0.083700,-0.063611,0.451046
17902,9.931865,-0.135432,1.079957,0.051816,-0.044557,0.420645
17903,9.908801,-0.285056,1.098059,0.013547,-0.034338,0.383676
17904,9.919007,-0.389492,1.121497,-0.016162,-0.011336,0.357919
17905,9.846587,-0.496999,1.005366,-0.044019,0.012506,0.331254
17906,9.746063,-0.529851,0.975188,-0.048914,0.013955,0.307738
17907,9.676645,-0.492009,1.016745,-0.044903,-0.000474,0.274140
17908,9.708397,-0.516796,1.025900,-0.043354,-0.020928,0.231440
17909,9.739391,-0.585287,1.094505,-0.042351,-0.029375,0.193316
17910,9.733489,-0.680725,1.050348,-0.052965,-0.026875,0.161227
17911,9.736062,-0.774337,1.093551,-0.051546,-0.032034,0.135959
17912,9.727920,-0.905995,1.054913,-0.052577,-0.040859,0.105877
17913,9.740701,-1.009024,1.006776,-0.049258,-0.049399,0.085679
17914,9.672297,-1.058473,0.986854,-0.037500,-0.059288,0.071547
17915,9.673517,-1.017311,0.919240,-0.033841,-0.075069,0.055230
17916,9.635374,-0.985243,0.861108,-0.024791,-0.085263,0.045627
17917,9.676482,-0.984509,0.895890,-0.020443,-0.092613,0.028201
17918,9.696883,-1.008698,0.938784,-0.013376,-0.094687,0.022031
17919,9.711285,-0.928210,1.004299,-0.007497,-0.091416,0.011358
17920,9.750615,-0.966042,1.045757,-0.020206,-0.080104,-0.002805
17921,9.799396,-1.017451,0.998505,-0.017109,-0.068271,-0.006373
17922,9.756937,-1.062789,0.955131,-0.021361,-0.058325,-0.014484
17923,9.730241,-1.098216,0.978975,-0.017338,-0.055517,-0.017034
17924,9.783493,-1.064504,0.920586,-0.010054,-0.056245,-0.024027
