// Start Time: Unknown
// Update Rate: 100.0Hz
// Filter Profile: human (46.1)
// Firmware Version: 4.3.5
PacketCounter,Acc_X,Acc_Y,Acc_Z,Gyr_X,Gyr_Y,Gyr_Z
60024,9.529782,-2.621952,-0.492575,-0.012109,0.006389,-0.001227
60025,9.531033,-2.599789,-0.442304,-0.001932,0.003478,-0.003212
60026,9.536046,-2.553501,-0.390667,0.008569,0.002652,-0.002972
60027,9.548976,-2.629343,-0.392584,0.009225,0.009094,-0.002799
60028,9.480571,-2.593552,-0.393746,0.014928,0.003262,-0.003882
60029,9.478140,-2.595218,-0.344342,0.025001,0.000411,-0.008032
60030,9.472137,-2.641606,-0.371231,0.031717,-0.016324,-0.009350
60031,9.522985,-2.646671,-0.418507,0.046317,-0.021953,-0.002625
60032,9.520441,-2.648590,-0.370311,0.055123,-0.017155,-0.005541
60033,9.497708,-2.643471,-0.395828,0.067756,-0.018144,-0.005251
60034,9.538046,-2.549865,-0.414452,0.075755,-0.025364,-0.000887
60035,9.521393,-2.497991,-0.413607,0.071687,-0.022831,-0.003093
60036,9.597449,-2.506396,-0.483894,0.059084,-0.021844,-0.003376
60037,9.565925,-2.550590,-0.487317,0.066290,-0.011489,-0.007303
60038,9.541928,-2.546615,-0.487483,0.075442,-0.006863,-0.003730
60039,9.524181,-2.516774,-0.534822,0.075578,-0.004662,-0.005844
60040,9.505232,-2.487694,-0.557814,0.083551,-0.008463,-0.008975
60041,9.532084,-2.467561,-0.529718,0.079694,-0.001535,-0.015421
60042,9.515959,-2.414087,-0.526484,0.084220,0.005885,-0.024904
60043,9.517983,-2.410844,-0.547904,0.082423,0.013793,-0.034533
60044,9.481226,-2.477861,-0.500118,0.077757,0.013220,-0.042234
60045,9.553545,-2.507605,-0.543356,0.077316,0.012315,-0.049837
60046,9.541388,-2.598892,-0.568226,0.082071,0.017381,-0.050706
60047,9.557004,-2.648089,-0.516321,0.099029,0.016079,-0.050306
60048,9.553405,-2.668924,-0.488777,0.115789,0.010393,-0.045654
60049,9.522122,-2.538752,-0.434193,0.127536,-0.002461,-0.042326
60050,9.549429,-2.493649,-0.331478,0.122306,-0.015119,-0.038328
60051,9.612889,-2.379246,-0.250714,0.102879,-0.020206,-0.034557
60052,9.591983,-2.371638,-0.299685,0.072993,-0.004025,-0.025307
60053,9.567110,-2.366678,-0.275823,0.044857,-0.011753,-0.018544
60054,9.583244,-2.439924,-0.326255,0.019257,-0.013117,-0.015951
60055,9.603007,-2.488972,-0.376527,-0.002261,-0.013630,-0.018656
60056,9.621571,-2.538479,-0.402276,0.000712,-0.005196,-0.018459
60057,9.595495,-2.556817,-0.428783,-0.006768,0.002862,-0.013114
60058,9.551286,-2.546670,-0.504174,0.001654,-0.001095,-0.007552
60059,9.498532,-2.585737,-0.556791,0.010137,-0.001732,-0.007352
60060,9.502159,-2.538714,-0.481988,0.020529,-0.004675,-0.007138
60061,9.507175,-2.513360,-0.505491,0.026737,-0.006207,-0.008090
60062,9.523021,-2.565207,-0.481534,0.034858,-0.010046,-0.009027
60063,9.538966,-2.616746,-0.457396,0.047499,-0.008735,-0.015191
60064,9.561061,-2.642785,-0.481029,0.074472,-0.017244,-0.014645
60065,9.561304,-2.619165,-0.406284,0.100413,-0.012628,-0.018273
60066,9.592989,-2.573301,-0.402099,0.111403,-0.011310,-0.015818
60067,9.547449,-2.541475,-0.377250,0.126717,-0.009215,-0.014330
60068,9.568014,-2.396197,-0.346766,0.143241,-0.015839,-0.015079
60069,9.553685,-2.319657,-0.320185,0.125835,-0.019968,-0.014461
60070,9.552720,-2.319203,-0.294458,0.109972,-0.009085,-0.011482
60071,9.554201,-2.317900,-0.317486,0.094589,-0.012252,-0.014049
60072,9.571576,-2.368321,-0.316598,0.074979,-0.011811,-0.022095
60073,9.581961,-2.466569,-0.316926,0.058156,-0.008405,-0.022471
60074,9.597144,-2.540401,-0.340714,0.061040,-0.002143,-0.020180
60075,9.519367,-2.576005,-0.368321,0.062932,-0.005537,-0.019079
60076,9.548677,-2.553650,-0.390135,0.069043,-0.010332,-0.016804
60077,9.553739,-2.528142,-0.413316,0.071356,-0.011625,-0.011345
60078,9.588761,-2.481833,-0.484044,0.066639,-0.016698,-0.010413
60079,9.615366,-2.461015,-0.457738,0.065357,-0.010141,-0.006067
60080,9.653075,-2.540562,-0.455446,0.066782,0.001621,-0.000540
60081,9.584270,-2.506045,-0.456052,0.076401,0.011739,-0.000240
60082,9.568462,-2.454324,-0.477982,0.080292,0.007127,-0.000171
60083,9.530798,-2.375274,-0.476981,0.077607,-0.000269,0.002970
60084,9.591956,-2.286414,-0.447230,0.062547,0.000844,0.000447
60085,9.626680,-2.217800,-0.443802,0.041099,0.001324,0.001009
60086,9.653158,-2.197578,-0.416325,0.012745,0.019624,0.001487
60087,9.689678,-2.277376,-0.387991,-0.020257,0.035022,0.000752
60088,9.591579,-2.459681,-0.439498,-0.029747,0.047614,0.001662
60089,9.575256,-2.580526,-0.461340,-0.016209,0.052019,0.005269
60090,9.527162,-2.573714,-0.458910,0.003079,0.052795,0.001430
60091,9.507971,-2.546222,-0.479253,0.021769,0.043836,0.005107
60092,9.516120,-2.474683,-0.424886,0.032061,0.038755,0.005346
60093,9.521966,-2.427157,-0.395182,0.030358,0.043209,0.005325
60094,9.532320,-2.331486,-0.316263,0.019081,0.038629,0.003928
60095,9.520192,-2.255609,-0.336888,-0.002210,0.042363,0.001222
60096,9.521195,-2.231976,-0.284006,-0.025557,0.044053,0.004941
60097,9.518530,-2.232832,-0.231643,-0.061152,0.052046,0.009442
60098,9.473768,-2.202230,-0.230355,-0.097060,0.059010,0.008513
60099,9.488026,-2.255069,-0.178258,-0.140306,0.055682,0.009489
60100,9.451472,-2.371945,-0.277832,-0.175296,0.048510,0.009576
60101,9.531381,-2.507327,-0.299331,-0.196772,0.044645,0.014380
60102,9.531781,-2.680293,-0.326767,-0.215477,0.049286,0.012833
60103,9.541317,-2.827449,-0.451634,-0.193945,0.047702,0.013436
60104,9.526851,-2.924660,-0.454701,-0.174133,0.049455,0.017271
60105,9.448482,-2.962714,-0.484553,-0.125732,0.039378,0.018537
60106,9.476522,-2.920184,-0.432880,-0.087929,0.032270,0.017368
60107,9.413108,-2.838806,-0.409498,-0.057924,0.032205,0.018227
60108,9.370892,-2.762260,-0.335674,-0.031168,0.021556,0.018862
60109,9.384789,-2.667276,-0.332058,-0.025982,0.010374,0.016704
60110,9.444080,-2.580327,-0.277828,-0.033260,0.003383,0.013156
60111,9.500596,-2.539895,-0.298533,-0.043648,0.006324,0.012896
60112,9.507534,-2.492490,-0.297514,-0.070819,0.013812,0.008965
60113,9.496588,-2.565452,-0.300379,-0.102172,0.020489,0.008152
60114,9.412665,-2.650319,-0.357274,-0.112940,0.019133,0.007825
60115,9.419337,-2.751901,-0.312318,-0.116351,0.007534,0.004313
60116,9.434788,-2.849522,-0.414682,-0.108699,-0.001697,0.004398
60117,9.500651,-2.930462,-0.489662,-0.096599,-0.005731,-0.002889
60118,9.545375,-2.961019,-0.490782,-0.058590,-0.007415,-0.007228
60119,9.544194,-2.960536,-0.468178,-0.034698,-0.000443,-0.012917
60120,9.541035,-2.983167,-0.469752,-0.007155,-0.000272,-0.016449
60121,9.576835,-3.084686,-0.495226,0.017859,-0.005376,-0.016896
60122,9.541068,-3.152601,-0.474026,0.064896,-0.002331,-0.019819
60123,9.521142,-3.123396,-0.471983,0.115802,-0.005036,-0.019475
60124,9.457232,-3.040171,-0.420957,0.172840,-0.010320,-0.021153
60125,9.438710,-2.816037,-0.363434,0.204210,-0.021407,-0.013906
60126,9.394485,-2.588922,-0.284152,0.220282,-0.032290,-0.016825
60127,9.414718,-2.443762,-0.253271,0.203263,-0.035405,-0.013008
60128,9.459691,-2.325048,-0.296305,0.175243,-0.039844,-0.011684
60129,9.459838,-2.324485,-0.296033,0.146116,-0.033380,-0.010268
60130,9.503241,-2.355597,-0.269553,0.112287,-0.029807,-0.010103
60131,9.496980,-2.426148,-0.344824,0.088591,-0.030200,-0.012937
60132,9.550998,-2.431012,-0.440527,0.082019,-0.031879,-0.013135
60133,9.601570,-2.413374,-0.414272,0.066907,-0.032930,-0.013565
60134,9.611597,-2.363589,-0.463038,0.061866,-0.020682,-0.010354
60135,9.633904,-2.343486,-0.363911,0.041717,-0.008397,-0.008648
60136,9.585150,-2.358921,-0.415378,0.012574,0.003526,-0.014775
60137,9.538830,-2.499071,-0.394695,-0.008710,0.006177,-0.016428
60138,9.538657,-2.670096,-0.396461,-0.006790,0.003872,-0.016393
60139,9.542131,-2.816777,-0.397596,0.012295,0.003601,-0.021275
60140,9.583917,-2.870271,-0.395148,0.037485,-0.002568,-0.020621
60141,9.561816,-2.864511,-0.419551,0.061229,0.000062,-0.024267
60142,9.521209,-2.807408,-0.419167,0.083173,0.001672,-0.018230
60143,9.484045,-2.726362,-0.418051,0.103967,-0.004137,-0.022015
60144,9.523509,-2.607755,-0.363874,0.111624,-0.013334,-0.024021
60145,9.548189,-2.609447,-0.361016,0.115695,-0.016880,-0.022841
60146,9.577069,-2.563257,-0.308652,0.114146,-0.012449,-0.020691
60147,9.553444,-2.558120,-0.308083,0.110356,-0.007845,-0.020770
60148,9.557425,-2.532385,-0.305295,0.117647,-0.000797,-0.019451
60149,9.511696,-2.500057,-0.280849,0.112911,-0.008050,-0.014193
60150,9.526544,-2.426334,-0.351586,0.101663,-0.012649,-0.015598
60151,9.525327,-2.473636,-0.448480,0.086659,-0.013747,-0.011687
60152,9.546985,-2.476333,-0.397460,0.091054,-0.012976,-0.012643
60153,9.557712,-2.402669,-0.396078,0.088455,-0.014943,-0.019208
60154,9.547800,-2.301162,-0.395908,0.074333,-0.006364,-0.016340
60155,9.522706,-2.296275,-0.371510,0.043168,0.006678,-0.017193
60156,9.467228,-2.360411,-0.422152,0.018943,0.002992,-0.018950
60157,9.482258,-2.410212,-0.371508,0.012614,0.005607,-0.021288
60158,9.532400,-2.415121,-0.393086,0.004738,-0.007901,-0.022595
60159,9.629474,-2.426638,-0.388262,-0.022582,0.000527,-0.023351
60160,9.612925,-2.545162,-0.388745,-0.038143,0.017858,-0.022691
60161,9.552902,-2.632987,-0.415464,-0.037585,0.021061,-0.017262
60162,9.521118,-2.675982,-0.391943,-0.029704,0.014015,-0.019212
60163,9.566426,-2.705436,-0.389014,-0.021312,0.008005,-0.011409
60164,9.543938,-2.701147,-0.414172,-0.003512,0.011076,-0.006577
60165,9.538017,-2.724636,-0.364210,0.005721,0.016918,-0.006311
60166,9.447071,-2.662301,-0.343271,0.016377,0.012916,-0.000605
60167,9.411065,-2.558892,-0.319905,0.036481,-0.003649,0.002109
60168,9.458944,-2.393657,-0.317241,0.036184,-0.009043,0.007507
60169,9.475782,-2.273651,-0.317072,0.014142,-0.013986,0.009045
60170,9.534044,-2.208934,-0.314743,-0.017021,-0.002056,0.011422
60171,9.562719,-2.189211,-0.338327,-0.055350,0.003890,0.011430
60172,9.539074,-2.210784,-0.413983,-0.098035,0.010148,0.009156
60173,9.563228,-2.387229,-0.413824,-0.138206,0.018395,0.009124
60174,9.537073,-2.580767,-0.441709,-0.153278,0.018384,0.007625
60175,9.569474,-2.708520,-0.466445,-0.141803,0.024068,0.007974
60176,9.500638,-2.846457,-0.472053,-0.126488,0.028424,0.000856
60177,9.452472,-2.839106,-0.475643,-0.099147,0.021082,0.000523
60178,9.447741,-2.862977,-0.452300,-0.063376,0.013151,-0.001740
60179,9.496144,-2.869310,-0.450124,-0.034212,0.004613,-0.005280
60180,9.517666,-2.872358,-0.400431,-0.008979,-0.000405,-0.007833
60181,9.560730,-2.926591,-0.422865,0.024812,-0.006028,-0.010146
60182,9.592012,-2.880785,-0.420112,0.059255,-0.005204,-0.012405
60183,9.603255,-2.783409,-0.368156,0.083595,0.001743,-0.013839
60184,9.500046,-2.644451,-0.370795,0.086137,0.004805,-0.012668
60185,9.488502,-2.543528,-0.344264,0.081249,-0.001341,-0.012830
60186,9.494181,-2.494488,-0.317823,0.070100,-0.007063,-0.008840
60187,9.495812,-2.493671,-0.341237,0.057165,-0.006145,-0.011370
60188,9.527001,-2.447922,-0.338526,0.046755,-0.003255,-0.009493
60189,9.499697,-2.467883,-0.339370,0.027664,0.000251,-0.010029
60190,9.478622,-2.463466,-0.388940,0.016787,-0.000064,-0.011423
60191,9.500941,-2.490353,-0.411905,-0.000027,0.001092,-0.003244
60192,9.571488,-2.524210,-0.432221,0.004089,0.000815,-0.007455
60193,9.524253,-2.540680,-0.507873,0.000345,0.007576,-0.009709
60194,9.521743,-2.539835,-0.458145,0.005062,0.011573,-0.009563
60195,9.515852,-2.563129,-0.408444,0.004913,0.010505,-0.010652
60196,9.507457,-2.634492,-0.432288,0.007036,0.011447,-0.013834
60197,9.525788,-2.660885,-0.381127,0.009121,0.010216,-0.012695
60198,9.528976,-2.659747,-0.428414,0.018071,0.012835,-0.011348
60199,9.507242,-2.630896,-0.403503,0.019960,0.012719,-0.017785
60200,9.533793,-2.608705,-0.375887,0.019926,0.010547,-0.013463
60201,9.503330,-2.652393,-0.376128,0.009468,0.014524,-0.014840
60202,9.479622,-2.647704,-0.375937,0.011555,0.013294,-0.013700
60203,9.475188,-2.670785,-0.350566,0.010944,0.005756,-0.010488
60204,9.525743,-2.652195,-0.322580,0.016581,-0.001118,-0.014665
60205,9.536147,-2.578509,-0.321578,0.014818,0.001159,-0.010384
60206,9.510843,-2.574222,-0.298178,0.004229,0.002972,-0.009608
60207,9.512495,-2.573420,-0.322389,0.001744,-0.001188,-0.007525
60208,9.586571,-2.582655,-0.342560,-0.006720,0.001565,-0.009932
60209,9.610475,-2.609251,-0.390116,-0.013014,0.003080,-0.009031
60210,9.590910,-2.604903,-0.464279,-0.018546,0.013202,-0.010254
60211,9.568523,-2.600538,-0.489108,-0.016036,0.016273,-0.009092
60212,9.534706,-2.668698,-0.489889,-0.013759,0.018285,-0.011184
60213,9.502393,-2.736729,-0.514852,0.005271,0.014814,-0.012794
60214,9.527391,-2.714769,-0.462894,0.032616,0.007524,-0.013083
60215,9.531573,-2.665260,-0.411877,0.049933,0.008502,-0.014731
60216,9.513094,-2.612237,-0.386446,0.064545,0.004259,-0.017549
60217,9.501604,-2.486839,-0.311547,0.069685,0.009305,-0.009813
60218,9.494777,-2.337493,-0.260900,0.056662,0.009117,-0.011282
60219,9.501699,-2.288170,-0.258820,0.028449,0.007802,-0.011044
60220,9.504862,-2.287376,-0.306502,-0.005934,0.009068,-0.008826
60221,9.520765,-2.362385,-0.329211,-0.029372,0.012834,-0.009525
60222,9.536698,-2.437292,-0.352293,-0.050925,0.013223,-0.009090
60223,9.579761,-2.515389,-0.422981,-0.063673,0.016260,-0.011632
60224,9.589571,-2.614039,-0.397984,-0.053269,0.012307,-0.012405
60225,9.612280,-2.640081,-0.421163,-0.055124,0.015682,-0.013536
60226,9.579064,-2.683487,-0.373778,-0.054276,0.025369,-0.016734
60227,9.572992,-2.730155,-0.373170,-0.041445,0.023412,-0.015267
60228,9.524932,-2.745963,-0.423765,-0.026424,0.023481,-0.018054
60229,9.474207,-2.737766,-0.376314,-0.011316,0.022449,-0.015431
60230,9.472924,-2.760404,-0.399335,0.000783,0.014058,-0.016165
60231,9.429905,-2.728123,-0.425028,0.015596,0.010890,-0.015719
60232,9.462580,-2.681570,-0.446118,0.027909,0.004651,-0.016438
60233,9.468050,-2.631856,-0.420288,0.036012,-0.001309,-0.015122
60234,9.504160,-2.537091,-0.392746,0.036019,-0.001310,-0.015121
60235,9.534946,-2.514913,-0.439030,0.021283,0.001843,-0.013404
60236,9.537011,-2.489715,-0.413511,0.013484,0.008850,-0.009302
60237,9.511645,-2.485514,-0.389545,-0.001480,0.010941,-0.010842
60238,9.513380,-2.484783,-0.413098,-0.016346,0.010843,-0.003729
60239,9.529726,-2.535698,-0.386963,-0.020658,0.013311,-0.010348
60240,9.528245,-2.559012,-0.410912,-0.037532,0.015514,-0.005458
60241,9.520438,-2.606695,-0.386452,-0.039602,0.016738,-0.006600
60242,9.533301,-2.706045,-0.409845,-0.033501,0.011995,-0.004258
60243,9.481906,-2.723230,-0.412820,-0.018687,0.008837,-0.003804
60244,9.506233,-2.725887,-0.411162,-0.006597,0.001547,-0.007775
60245,9.532454,-2.680338,-0.335838,0.012933,0.001309,-0.003919
60246,9.546978,-2.606966,-0.407915,0.020725,-0.004600,-0.011266
60247,9.526334,-2.578618,-0.408813,0.017144,0.002125,-0.009195
60248,9.533069,-2.529373,-0.407839,0.018938,-0.001238,-0.010229
60249,9.533368,-2.528337,-0.407265,0.008765,0.005940,-0.012692
60250,9.508030,-2.523928,-0.383770,0.004262,0.004077,-0.012838
60251,9.530823,-2.550115,-0.406416,-0.002176,0.004507,-0.013039
60252,9.528110,-2.548902,-0.357351,-0.006468,0.004793,-0.013173
60253,9.528281,-2.571846,-0.406084,-0.012831,0.005211,-0.011208
60254,9.549540,-2.598099,-0.404498,-0.014697,0.008584,-0.012339
60255,9.519371,-2.618210,-0.356898,-0.016197,0.012993,-0.005882
60256,9.542050,-2.644948,-0.379266,-0.010110,0.009346,-0.006783
60257,9.522911,-2.616660,-0.404274,-0.003888,0.007860,-0.009836
60258,9.545794,-2.619035,-0.377662,-0.001600,0.008787,-0.008679
60259,9.544524,-2.618185,-0.352469,-0.003676,0.010010,-0.009823
60260,9.519013,-2.638133,-0.377763,0.000474,0.008656,-0.010778
60261,9.496822,-2.609783,-0.353803,0.015285,0.005511,-0.010317
60262,9.479379,-2.557173,-0.354128,0.010643,0.002576,-0.011555
60263,9.482807,-2.532201,-0.353431,0.004425,0.002968,-0.005260
60264,9.489321,-2.507192,-0.401664,0.006074,-0.000371,-0.010626
60265,9.512164,-2.509517,-0.375747,-0.004583,0.000327,-0.008800
60266,9.557443,-2.563286,-0.421908,-0.008737,0.002771,-0.011088
60267,9.552903,-2.610538,-0.446868,-0.013237,0.000905,-0.011237
60268,9.599849,-2.640078,-0.468540,-0.010808,0.002902,-0.008990
60269,9.619530,-2.690483,-0.491275,0.006981,0.010404,-0.014892
60270,9.549138,-2.655405,-0.469810,0.009689,0.015632,-0.013708
60271,9.543279,-2.678376,-0.419634,0.024222,0.010356,-0.015423
60272,9.521157,-2.649757,-0.395032,0.040910,0.003849,-0.013825
60273,9.497441,-2.597217,-0.297057,0.047641,0.005566,-0.011440
60274,9.483072,-2.520628,-0.296255,0.047655,0.004475,-0.008196
60275,9.497554,-2.399016,-0.269495,0.032492,0.003300,-0.006521
60276,9.507142,-2.350257,-0.317030,0.004644,0.004028,-0.002006
60277,9.534518,-2.329074,-0.314897,-0.020850,0.007854,-0.000655
60278,9.558666,-2.356394,-0.362178,-0.046405,0.010600,0.001773
60279,9.553905,-2.404811,-0.386767,-0.071033,0.023025,0.003173
60280,9.544409,-2.501559,-0.435946,-0.079377,0.025735,0.002912
60281,9.515554,-2.546634,-0.461805,-0.087500,0.030596,0.002667
60282,9.522369,-2.670611,-0.436696,-0.089811,0.029678,-0.000655
60283,9.519439,-2.718128,-0.485806,-0.084039,0.023914,-0.005896
60284,9.558525,-2.796113,-0.483646,-0.065215,0.018363,-0.007465
60285,9.528252,-2.816501,-0.436655,-0.045780,0.018167,-0.005744
60286,9.554189,-2.794914,-0.409795,-0.020425,0.013266,-0.006015
60287,9.510809,-2.739668,-0.386983,-0.009505,0.014714,-0.005648
60288,9.520471,-2.666665,-0.384422,-0.000310,0.019504,-0.002073
60289,9.476977,-2.611853,-0.360964,0.003341,0.012775,-0.001987
60290,9.454506,-2.584224,-0.336675,0.000854,0.010796,-0.006407
60291,9.477191,-2.587078,-0.309684,-0.005362,0.012268,-0.003361
60292,9.453189,-2.583449,-0.310410,-0.009921,0.010414,-0.005686
60293,9.474300,-2.610415,-0.309096,-0.009053,-0.003724,-0.002485
60294,9.532231,-2.567849,-0.354481,-0.004843,-0.005087,-0.001270
60295,9.564528,-2.545999,-0.426031,-0.008836,-0.000475,-0.005706
60296,9.569296,-2.497440,-0.400677,-0.018070,0.013075,0.000550
60297,9.545226,-2.494108,-0.401266,-0.028201,0.020240,-0.001913
60298,9.508603,-2.587335,-0.403448,-0.035105,0.016376,-0.004329
60299,9.499292,-2.659464,-0.404192,-0.031314,0.010713,-0.003152
60300,9.499588,-2.682796,-0.453162,-0.010545,0.003967,-0.005740
60301,9.522151,-2.661626,-0.377673,0.004649,0.006239,-0.008461
60302,9.556100,-2.591032,-0.374078,0.006665,0.007235,-0.015961
60303,9.508037,-2.559470,-0.327319,0.008872,0.007078,-0.013723
60304,9.535905,-2.560860,-0.373807,-0.000173,0.003353,-0.016214
60305,9.530109,-2.607562,-0.374164,-0.004232,0.006881,-0.019575
60306,9.550194,-2.657075,-0.397122,-0.002090,0.006742,-0.019504
60307,9.528228,-2.651949,-0.422396,0.004468,0.007393,-0.018196
60308,9.552884,-2.653437,-0.419873,0.006747,0.008320,-0.017032
60309,9.532342,-2.624517,-0.419755,0.013801,0.014355,-0.016757
60310,9.505565,-2.644118,-0.419761,0.016504,0.019583,-0.015552
60311,9.454649,-2.660554,-0.421440,0.015812,0.013150,-0.017777
60312,9.482371,-2.638056,-0.418071,0.029943,0.002486,-0.014109
60313,9.503541,-2.640343,-0.366723,0.032015,0.001265,-0.012963
60314,9.486197,-2.611557,-0.415653,0.036377,0.002072,-0.013891
60315,9.513555,-2.565391,-0.363553,0.029886,0.001402,-0.013034
60316,9.539457,-2.543329,-0.336396,0.025534,0.000593,-0.012105
60317,9.546171,-2.517962,-0.383930,0.017516,0.005412,-0.008028
60318,9.541590,-2.541709,-0.359154,0.002512,0.005274,-0.005297
60319,9.520982,-2.537741,-0.408759,0.000729,0.009726,-0.007500
60320,9.539209,-2.588518,-0.406868,-0.011911,0.012697,-0.007920
60321,9.494213,-2.557362,-0.408941,-0.007700,0.011341,-0.006700
60322,9.492740,-2.556838,-0.383685,-0.005557,0.011205,-0.006626
60323,9.517126,-2.559195,-0.381364,-0.016610,0.008670,-0.008102
60324,9.506391,-2.631299,-0.357750,-0.018763,0.007709,-0.004936
60325,9.532430,-2.633623,-0.380159,-0.014540,0.007451,-0.006955
60326,9.529544,-2.657203,-0.380161,-0.006049,0.005823,-0.005588
60327,9.536223,-2.632062,-0.427708,0.003086,0.011743,-0.007404
60328,9.534439,-2.607575,-0.353154,0.011305,0.007980,-0.008220
60329,9.564990,-2.561449,-0.349812,0.000601,0.008661,-0.008588
60330,9.557749,-2.633123,-0.374238,-0.003260,0.013234,-0.008698
60331,9.530788,-2.653465,-0.375046,-0.003123,0.014301,-0.007606
60332,9.531016,-2.652848,-0.373616,0.001431,0.016164,-0.005274
60333,9.528184,-2.676450,-0.372449,0.011732,0.012282,-0.008179
60334,9.508666,-2.624405,-0.347799,0.015519,0.006628,-0.006994
60335,9.515406,-2.599192,-0.395006,0.015673,0.008793,-0.009141
60336,9.488465,-2.619523,-0.395729,0.028390,0.006911,-0.009785
60337,9.490060,-2.594665,-0.369790,0.028108,0.003679,-0.008729
60338,9.544742,-2.551572,-0.364740,0.023693,0.002881,-0.009970
60339,9.519503,-2.571834,-0.390074,0.019891,0.007438,-0.007919
60340,9.546938,-2.550031,-0.386836,0.013600,0.008912,-0.007052
60341,9.502259,-2.543196,-0.437654,0.007577,0.012523,-0.004003
60342,9.518742,-2.594490,-0.410875,0.001284,0.013996,-0.003137
60343,9.489988,-2.615243,-0.387447,-0.003538,0.009993,-0.007653
60344,9.510029,-2.665938,-0.409856,-0.005546,0.011196,-0.006637
60345,9.537442,-2.644174,-0.406847,0.009243,0.008102,-0.006125
60346,9.555267,-2.671138,-0.355692,0.013529,0.007832,-0.005974
60347,9.554151,-2.694818,-0.378902,0.022659,0.012662,-0.004545
60348,9.531451,-2.667325,-0.353839,0.031659,0.016423,-0.004207
60349,9.489401,-2.612368,-0.354424,0.041770,0.010393,-0.007115
60350,9.495678,-2.563422,-0.351974,0.035058,0.007565,-0.006285
60351,9.520084,-2.565774,-0.348665,0.030663,0.007857,-0.010768
60352,9.470339,-2.558725,-0.326171,0.028679,0.010153,-0.012994
60353,9.467690,-2.581738,-0.324973,0.021904,0.007336,-0.014330
60354,9.519911,-2.586480,-0.369042,0.025909,0.003837,-0.013115
60355,9.538400,-2.636749,-0.366868,0.023634,0.002901,-0.014282
60356,9.558679,-2.686926,-0.389049,0.027930,0.002633,-0.014127
60357,9.593317,-2.664392,-0.482913,0.039511,0.010566,-0.013684
60358,9.591985,-2.663279,-0.456143,0.048608,0.015412,-0.014422
60359,9.522368,-2.604848,-0.409274,0.049154,0.019695,-0.010064
60360,9.493778,-2.625198,-0.384171,0.048268,0.011101,-0.012279
60361,9.474210,-2.572664,-0.359180,0.041280,0.006128,-0.013625
60362,9.519321,-2.577590,-0.305300,0.041343,0.006121,-0.011459
60363,9.495483,-2.573591,-0.305321,0.031030,0.011085,-0.011827
60364,9.495837,-2.572490,-0.303587,0.024456,0.010411,-0.013150
60365,9.468979,-2.592785,-0.304251,0.017616,0.005417,-0.008000
60366,9.495109,-2.595271,-0.326006,0.017381,0.002182,-0.004767
60367,9.498873,-2.594744,-0.374215,0.010616,0.000440,-0.009345
60368,9.496598,-2.642902,-0.423051,0.019005,-0.004413,-0.000389
60369,9.520771,-2.645917,-0.420941,0.027898,-0.001714,-0.001141
60370,9.499630,-2.618620,-0.422159,0.031728,-0.006274,-0.003168
60371,9.540851,-2.697188,-0.443174,0.044296,-0.010291,-0.003791
60372,9.545098,-2.648457,-0.418309,0.052781,-0.011893,-0.004562
60373,9.587596,-2.702494,-0.414534,0.061510,-0.010263,-0.008567
60374,9.585935,-2.702056,-0.389614,0.070998,-0.015171,-0.003892
60375,9.532903,-2.720121,-0.368178,0.075768,-0.011136,-0.003718
60376,9.561294,-2.674463,-0.341056,0.092778,-0.018667,-0.003089
60377,9.586721,-2.652982,-0.313876,0.088728,-0.010847,-0.004325
60378,9.559084,-2.649608,-0.265261,0.080023,-0.000573,-0.001411
60379,9.472816,-2.811349,-0.366002,0.073340,-0.000159,0.000510
60380,9.464519,-2.908808,-0.412206,0.114878,-0.004878,-0.006616
60381,9.451329,-2.759224,-0.313693,0.157939,-0.010756,-0.008267
60382,9.400959,-2.556115,-0.292468,0.146444,-0.015440,-0.003253
60383,9.403739,-2.606658,-0.412150,0.128419,-0.020801,0.002610
60384,9.431698,-2.636294,-0.506735,0.147009,-0.037060,0.005539
60385,9.517784,-2.474979,-0.405066,0.168660,-0.043811,0.000963
60386,9.588825,-2.237223,-0.306568,0.141260,-0.037845,-0.004384
60387,9.647833,-2.170725,-0.328490,0.085964,-0.021509,-0.006487
60388,9.656840,-2.269028,-0.276312,0.035420,0.006422,-0.009598
60389,9.576161,-2.357208,-0.327554,-0.009230,0.021031,-0.010236
60390,9.531552,-2.522839,-0.325675,-0.037019,0.025965,-0.010193
60391,9.548901,-2.597855,-0.346230,-0.039328,0.019615,-0.010226
60392,9.520852,-2.642852,-0.370971,-0.052389,0.023674,-0.007483
60393,9.495761,-2.663694,-0.395808,-0.054436,0.028125,-0.007589
60394,9.461857,-2.757068,-0.420019,-0.050001,0.022427,-0.010632
60395,9.475765,-2.831190,-0.392270,-0.026623,0.019942,-0.008679
60396,9.433692,-2.775798,-0.395182,0.003645,0.010510,-0.012917
60397,9.488850,-2.682522,-0.318396,0.020100,0.004147,-0.006863
60398,9.467811,-2.654807,-0.319609,0.013554,0.003467,-0.006016
60399,9.468012,-2.654172,-0.318941,0.011623,0.003568,-0.008251
60400,9.493587,-2.631689,-0.292410,0.017983,0.001023,-0.008000
60401,9.492565,-2.655870,-0.315955,0.017567,0.001078,-0.003689
60402,9.496751,-2.606755,-0.291724,0.017255,-0.003214,-0.001507
60403,9.479029,-2.580558,-0.342643,0.010401,-0.008188,0.001522
60404,9.480730,-2.581170,-0.367483,0.016889,-0.009667,0.000689
60405,9.534944,-2.538506,-0.364910,0.017171,-0.010789,-0.002537
60406,9.539042,-2.489607,-0.341615,0.006047,-0.006837,0.002435
60407,9.593752,-2.472348,-0.387798,-0.006878,-0.010387,0.001989
60408,9.558432,-2.516383,-0.317027,-0.029764,-0.000393,-0.003247
60409,9.573886,-2.591518,-0.315225,-0.038137,0.003347,-0.004661
60410,9.565783,-2.688737,-0.363484,-0.035825,0.006446,-0.005680
60411,9.543594,-2.685412,-0.389880,-0.026865,0.005879,-0.009675
60412,9.519789,-2.681197,-0.391637,-0.017644,0.007446,-0.015838
60413,9.499531,-2.677827,-0.441512,-0.015844,0.014945,-0.010413
60414,9.446845,-2.694735,-0.419569,-0.011492,0.013596,-0.011327
60415,9.447159,-2.693753,-0.418813,-0.003298,0.006631,-0.008817
60416,9.441031,-2.716049,-0.369526,-0.002859,0.003325,-0.014188
60417,9.490350,-2.745699,-0.414304,0.003249,-0.001352,-0.011770
60418,9.517743,-2.723328,-0.412626,0.009586,-0.000641,-0.010460
60419,9.491414,-2.694180,-0.341176,0.011413,0.003604,-0.006094
60420,9.498556,-2.620513,-0.316983,0.000591,0.003174,-0.005407
60421,9.491657,-2.693404,-0.340517,-0.012860,0.004017,0.000582
60422,9.490457,-2.718229,-0.364881,-0.013296,-0.001344,0.003846
60423,9.495583,-2.644942,-0.316926,0.001983,0.002059,0.002223
60424,9.480127,-2.569443,-0.319327,-0.015051,0.001985,0.000515
60425,9.477794,-2.618875,-0.367833,-0.036757,0.007631,0.004006
60426,9.467842,-2.716367,-0.391892,-0.038798,0.003413,0.001794
60427,9.486117,-2.767850,-0.390495,-0.028284,-0.000451,0.003287
60428,9.514916,-2.747021,-0.413963,-0.021660,-0.000859,0.001370
60429,9.507810,-2.820432,-0.438487,-0.017923,-0.002132,0.006924
60430,9.505371,-2.870090,-0.487231,0.006164,-0.002519,0.002404
60431,9.542274,-2.676853,-0.340297,0.041078,-0.002477,-0.002800
60432,9.507997,-2.524605,-0.295438,0.011265,0.005792,-0.003946
60433,9.497657,-2.671355,-0.391275,-0.010521,0.003866,-0.001492
60434,9.491278,-2.694526,-0.342208,0.004744,0.001855,-0.004163
60435,9.543863,-2.650863,-0.314299,0.005157,0.001805,-0.008474
60436,9.525764,-2.598648,-0.316107,-0.009723,0.007018,-0.009053
60437,9.542738,-2.723426,-0.410316,-0.018314,0.010780,-0.008311
60438,9.514804,-2.768548,-0.435258,-0.001015,0.012990,-0.008766
60439,9.483346,-2.812861,-0.411133,0.011982,0.010041,-0.010431
60440,9.470000,-2.736727,-0.436610,0.029080,0.003611,-0.010841
60441,9.521549,-2.717393,-0.432109,0.039674,-0.001343,-0.010418
60442,9.502759,-2.640251,-0.384780,0.039509,0.000843,-0.008274
60443,9.530591,-2.643746,-0.431006,0.012706,-0.001827,0.001565
60444,9.509179,-2.838123,-0.453435,0.021673,-0.002386,-0.002425
60445,9.514909,-2.714362,-0.332013,0.056708,-0.004516,-0.009763
60446,9.479980,-2.536347,-0.238263,0.052788,0.007607,-0.011072
60447,9.466593,-2.460164,-0.263388,0.012215,0.012166,-0.012612
60448,9.406487,-2.600503,-0.337455,-0.014466,0.013817,-0.002800
60449,9.441156,-2.752338,-0.380759,-0.023467,0.003547,-0.000900
60450,9.538617,-2.788681,-0.422117,-0.001853,-0.000995,-0.003307
60451,9.557196,-2.618043,-0.399351,0.005021,0.000733,-0.007389
60452,9.539667,-2.591252,-0.449728,-0.018716,0.010814,-0.004018
60453,9.554230,-2.691101,-0.470831,-0.031706,0.013758,-0.002360
60454,9.548619,-2.739157,-0.469579,-0.031442,0.021306,-0.003482
60455,9.524985,-2.686100,-0.397538,-0.022893,0.020803,-0.003158
60456,9.472083,-2.703907,-0.375229,-0.038065,0.027125,-0.000523
60457,9.437265,-2.822782,-0.423261,-0.035729,0.026975,-0.002597
60458,9.437817,-2.772464,-0.349076,-0.005217,0.017561,-0.008956
60459,9.445964,-2.673939,-0.299582,-0.003286,0.017460,-0.006719
60460,9.419915,-2.719725,-0.348504,-0.016301,0.014988,-0.006117
60461,9.441472,-2.746014,-0.345726,-0.009606,0.008079,-0.010148
60462,9.467756,-2.748397,-0.367619,0.011622,0.003593,-0.008231
60463,9.494019,-2.750916,-0.389097,0.013898,0.009949,-0.008181
60464,9.497147,-2.725964,-0.388023,0.031004,0.003531,-0.008571
60465,9.472156,-2.747212,-0.412777,0.039349,0.003055,-0.006085
60466,9.504096,-2.701582,-0.434059,0.054438,0.003247,-0.006590
60467,9.507347,-2.627199,-0.359981,0.052159,0.002306,-0.005589
60468,9.472531,-2.746647,-0.407887,0.040340,0.004161,0.005844
60469,9.474331,-2.747468,-0.430797,0.066752,-0.005023,-0.002812
60470,9.472632,-2.475279,-0.312058,0.080384,-0.000466,-0.009893
60471,9.473877,-2.449880,-0.286457,0.026594,0.004870,-0.007670
60472,9.483736,-2.623242,-0.355094,0.007109,-0.001556,-0.007286
60473,9.526331,-2.726835,-0.422996,0.015489,0.000136,-0.004814
60474,9.525657,-2.701143,-0.374024,0.028507,-0.000639,-0.006471
60475,9.534376,-2.628043,-0.373846,0.026214,0.007092,-0.003377
60476,9.485286,-2.596987,-0.327702,0.023958,0.011567,-0.001338
60477,9.495752,-2.524748,-0.351772,0.015113,0.002357,-0.000519
60478,9.520898,-2.502993,-0.325601,-0.006818,0.000433,0.004060
60479,9.562162,-2.632638,-0.417690,-0.026727,0.008154,0.011881
60480,9.534890,-2.654921,-0.419189,-0.013550,0.005187,0.008088
60481,9.515778,-2.528355,-0.300298,-0.003427,0.010962,-0.006712
60482,9.516947,-2.503090,-0.275389,-0.040138,0.018553,-0.002785
60483,9.504466,-2.674440,-0.370354,-0.057488,0.017419,-0.001283
60484,9.519205,-2.774262,-0.391526,-0.037903,0.014081,-0.004824
60485,9.543760,-2.726328,-0.316645,-0.022329,0.013126,-0.010701
60486,9.507014,-2.672736,-0.392996,-0.024839,0.020883,-0.005447
60487,9.476479,-2.692524,-0.344861,-0.022584,0.016410,-0.007490
60488,9.448755,-2.737783,-0.369827,-0.028919,0.015689,-0.008814
60489,9.465692,-2.787540,-0.342430,-0.019999,0.012977,-0.012772
60490,9.462279,-2.835239,-0.365532,-0.009312,0.012357,-0.012348
60491,9.462669,-2.834042,-0.364712,0.005652,0.006073,-0.012799
60492,9.465832,-2.858614,-0.436750,0.024600,0.000663,-0.009854
60493,9.516402,-2.813908,-0.383712,0.037754,0.000961,-0.012583
60494,9.502031,-2.712665,-0.360691,0.044198,0.008167,-0.011299
60495,9.463431,-2.658683,-0.412120,0.039583,0.001961,-0.009272
60496,9.459863,-2.657144,-0.362082,0.037189,0.005368,-0.006146
60497,9.468509,-2.584001,-0.361756,0.021941,0.001938,-0.004558
60498,9.491881,-2.611158,-0.383215,0.013396,0.002430,-0.004899
60499,9.514268,-2.613157,-0.356316,0.002466,0.006330,-0.002116
60500,9.487387,-2.634265,-0.357243,-0.010059,0.011361,-0.004814
60501,9.488560,-2.658938,-0.404617,-0.014127,0.016994,-0.006101
60502,9.502523,-2.733583,-0.376216,-0.020998,0.020676,-0.000994
60503,9.444985,-2.875181,-0.474721,-0.012369,0.013674,-0.002760
60504,9.459278,-2.703327,-0.402036,0.029300,0.013358,-0.011915
60505,9.470772,-2.555472,-0.329017,0.007440,0.010321,-0.008437
60506,9.457943,-2.701125,-0.375466,-0.020533,0.006528,-0.008443
60507,9.496291,-2.828091,-0.418801,-0.007757,0.003632,-0.007909
60508,9.493595,-2.801584,-0.345692,0.013813,0.002378,-0.009201
60509,9.547840,-2.757822,-0.341574,0.013851,0.004539,-0.009216
60510,9.521148,-2.778415,-0.342175,0.016187,0.009805,-0.010245
60511,9.490727,-2.848201,-0.366184,0.024312,0.009375,-0.005589
60512,9.446298,-2.793073,-0.344657,0.043903,0.006058,-0.009102
60513,9.432724,-2.717374,-0.370303,0.048047,-0.000668,-0.008880
60514,9.482188,-2.697472,-0.341079,0.048036,-0.000666,-0.008880
60515,9.510486,-2.700577,-0.386296,0.046090,0.004843,-0.010087
60516,9.467977,-2.645929,-0.389134,0.047920,0.005850,-0.006777
60517,9.466293,-2.644705,-0.363291,0.033232,0.003411,-0.010590
60518,9.471276,-2.620266,-0.386781,0.026536,0.004903,-0.007629
60519,9.494010,-2.671813,-0.431891,0.018342,0.001001,-0.012249
60520,9.514881,-2.722634,-0.452409,0.024802,0.010379,-0.010996
60521,9.489983,-2.693474,-0.404305,0.022825,0.013725,-0.012190
60522,9.464197,-2.689230,-0.380211,0.022455,0.010533,-0.008928
60523,9.464473,-2.688448,-0.378884,0.015983,0.006573,-0.009151
60524,9.455250,-2.735107,-0.328483,0.015652,0.005542,-0.005910
60525,9.501912,-2.739227,-0.299120,0.018318,0.006419,-0.011218
60526,9.475238,-2.759881,-0.299812,0.015819,0.003348,-0.008044
60527,9.504328,-2.738402,-0.321729,0.028360,0.000502,-0.005341
60528,9.507255,-2.713691,-0.321428,0.030536,-0.002876,-0.006299
60529,9.532400,-2.691133,-0.294654,0.028302,0.003761,-0.004296
60530,9.535327,-2.666437,-0.293985,0.024245,0.003966,-0.006626
60531,9.537460,-2.666568,-0.317007,0.026358,0.009267,-0.005515
60532,9.518206,-2.639667,-0.342348,0.020136,0.007430,-0.007912
60533,9.517594,-2.664011,-0.365033,0.013453,0.008921,-0.004957
60534,9.539136,-2.690690,-0.361402,0.006772,0.010412,-0.002001
60535,9.524980,-2.887163,-0.453669,0.011170,0.018818,-0.001914
60536,9.463693,-2.781741,-0.458963,0.054331,0.014169,-0.006581
60537,9.430650,-2.554066,-0.342667,0.059037,0.010600,-0.011754
60538,9.451203,-2.554505,-0.290061,0.016103,0.009790,-0.010267
60539,9.509886,-2.758431,-0.376360,0.005462,0.010384,-0.010713
60540,9.507461,-2.781728,-0.374643,0.016100,0.009791,-0.010267
60541,9.556186,-2.786109,-0.368774,0.029257,0.014429,-0.013022
60542,9.482893,-2.751091,-0.324448,0.033832,0.015217,-0.016087
60543,9.507534,-2.752484,-0.319873,0.037904,0.017181,-0.013777
60544,9.481061,-2.772804,-0.318943,0.035822,0.014039,-0.014907
60545,9.455313,-2.768220,-0.294288,0.041985,0.013726,-0.012482
60546,9.458470,-2.742778,-0.292315,0.048645,0.012236,-0.015429
60547,9.454883,-2.740107,-0.241386,0.044024,0.009288,-0.012339
60548,9.450225,-2.838690,-0.310529,0.041055,0.001981,-0.004795
60549,9.433001,-2.812706,-0.360312,0.065086,-0.002685,-0.011296
60550,9.462392,-2.715122,-0.285861,0.067307,-0.001739,-0.012296
60551,9.445922,-2.663954,-0.312042,0.058319,-0.005511,-0.008292
60552,9.514473,-2.745812,-0.351894,0.041000,-0.005597,-0.005772
60553,9.463377,-2.840442,-0.450012,0.051663,-0.001854,-0.005378
60554,9.493356,-2.718020,-0.352056,0.071301,0.000238,-0.009993
60555,9.476843,-2.667093,-0.377907,0.051900,0.002428,-0.007594
60556,9.472905,-2.741097,-0.423105,0.047528,0.001602,-0.006682
60557,9.493331,-2.741387,-0.370827,0.043633,0.005008,-0.010144
60558,9.465363,-2.736444,-0.322718,0.047302,0.001650,-0.004527
60559,9.494447,-2.715222,-0.344135,0.041376,0.004066,-0.009142
60560,9.464477,-2.709272,-0.271995,0.034659,0.001240,-0.006133
60561,9.467233,-2.761003,-0.366870,0.034535,0.000183,-0.005039
60562,9.490276,-2.737073,-0.316130,0.030438,-0.003956,-0.007306
60563,9.538789,-2.741887,-0.311337,0.030172,-0.000643,-0.004127
60564,9.492550,-2.737261,-0.338759,0.030258,0.005841,-0.004233
60565,9.490650,-2.736135,-0.313016,0.034282,0.005660,-0.001896
60566,9.435678,-2.753045,-0.266517,0.045089,-0.000386,-0.004581
60567,9.439164,-2.703355,-0.242504,0.042759,-0.000222,-0.002518
60568,9.479332,-2.858138,-0.330736,0.025032,-0.012127,0.003434
60569,9.503330,-2.937775,-0.423469,0.069970,-0.013567,-0.000053
60570,9.537878,-2.715039,-0.256737,0.100566,-0.007824,-0.008602
60571,9.521978,-2.639145,-0.259242,0.068623,0.001529,-0.006874
60572,9.471041,-2.734529,-0.355401,0.073029,0.001252,-0.008845
60573,9.498131,-2.712388,-0.352195,0.066434,-0.000514,-0.006924
60574,9.466720,-2.756927,-0.326504,0.064012,0.000762,-0.003805
60575,9.464640,-2.833112,-0.395503,0.063231,-0.009878,0.002866
60576,9.481382,-2.883508,-0.366122,0.097458,-0.012903,-0.001036
60577,9.492926,-2.761030,-0.344653,0.123579,-0.017746,-0.009568
60578,9.506686,-2.561825,-0.253277,0.117299,-0.016349,-0.010939
60579,9.557320,-2.567324,-0.271684,0.096410,-0.005524,-0.013134
60580,9.498534,-2.658222,-0.270037,0.075056,-0.001069,-0.010884
60581,9.495971,-2.759556,-0.361229,0.063961,0.003995,-0.004974
60582,9.496353,-2.681109,-0.265001,0.083910,-0.002745,-0.015877
60583,9.484051,-2.554417,-0.245829,0.076156,0.004002,-0.022851
60584,9.481235,-2.602404,-0.266133,0.041853,0.003809,-0.017800
60585,9.451566,-2.672144,-0.287920,0.029459,0.006573,-0.020552
60586,9.470322,-2.746934,-0.305602,0.031411,0.003253,-0.019307
60587,9.468852,-2.743960,-0.280264,0.033363,-0.000066,-0.018061
60588,9.471306,-2.743756,-0.303652,0.033156,-0.000002,-0.015908
60589,9.500585,-2.721900,-0.325891,0.031191,0.003318,-0.017155
60590,9.476858,-2.717880,-0.326921,0.028970,0.002380,-0.016143
60591,9.504762,-2.669153,-0.302049,0.026781,-0.003992,-0.016075
60592,9.486968,-2.669197,-0.376350,0.018399,0.006201,-0.015605
60593,9.483460,-2.664964,-0.326794,0.008094,0.006682,-0.018217
60594,9.481322,-2.687602,-0.324725,-0.006842,0.012944,-0.015763
60595,9.505342,-2.714207,-0.344978,-0.015387,0.010171,-0.014973
60596,9.500539,-2.761277,-0.342149,-0.015476,0.011284,-0.013923
60597,9.473594,-2.807080,-0.365612,-0.010965,0.012051,-0.016996
60598,9.496255,-2.806768,-0.338272,-0.009152,0.013120,-0.013700
60599,9.444242,-2.797920,-0.292973,-0.000975,0.010591,-0.011124
60600,9.473405,-2.776382,-0.315336,-0.002990,0.009586,-0.012267
60601,9.446962,-2.797040,-0.315526,0.003200,0.008214,-0.010886
60602,9.474088,-2.774254,-0.313554,0.013791,0.006562,-0.011473
60603,9.467779,-2.794867,-0.262751,0.017904,0.007460,-0.010238
60604,9.450519,-2.769912,-0.313266,0.015739,0.010841,-0.009334
60605,9.449347,-2.742180,-0.264368,0.022013,0.008358,-0.009001
60606,9.403251,-2.737765,-0.291792,0.007196,0.008062,-0.008549
60607,9.453939,-2.743216,-0.310826,0.015772,0.005407,-0.010276
60608,9.449561,-2.765411,-0.284539,0.017447,0.003270,-0.005822
60609,9.452317,-2.740645,-0.284928,0.013246,0.003484,-0.006009
60610,9.499785,-2.796201,-0.326457,0.007009,0.000530,-0.007284
60611,9.505149,-2.747059,-0.328285,0.015431,0.002264,-0.006965
60612,9.508418,-2.696776,-0.305683,0.010833,0.002609,-0.002845
60613,9.503359,-2.745032,-0.302547,0.010903,0.009092,-0.003009
60614,9.481321,-2.743619,-0.328018,0.008867,0.005924,-0.004097
60615,9.503614,-2.744372,-0.300502,0.013112,0.010033,-0.004020
60616,9.475439,-2.738967,-0.252979,0.008578,0.007104,-0.000895
60617,9.480129,-2.715907,-0.277560,0.004578,0.007251,-0.003235
60618,9.509045,-2.695199,-0.300018,0.004578,0.007251,-0.003235
60619,9.482891,-2.691166,-0.277098,-0.010382,0.011337,-0.000745
60620,9.502018,-2.741916,-0.271875,-0.014382,0.011484,-0.003086
60621,9.500090,-2.740176,-0.247146,-0.014340,0.006049,-0.004026
60622,9.505895,-2.769323,-0.342629,-0.005587,0.010927,-0.007016
60623,9.528264,-2.769739,-0.315272,-0.005588,0.010927,-0.007016
60624,9.480067,-2.764326,-0.318357,0.006765,0.015790,-0.003356
60625,9.456057,-2.761422,-0.319018,0.007030,0.012450,-0.006504
60626,9.449608,-2.782260,-0.268014,0.021971,0.006206,-0.008934
60627,9.457049,-2.734379,-0.293617,0.030299,-0.000701,-0.008390
60628,9.484527,-2.686267,-0.268501,0.023952,0.005053,-0.007736
60629,9.460576,-2.683082,-0.269571,0.019862,0.006312,-0.009030
60630,9.478353,-2.706132,-0.216520,0.013675,0.007676,-0.010419
60631,9.463144,-2.682930,-0.291721,0.006779,0.008194,-0.004245
60632,9.465383,-2.683795,-0.315395,-0.005654,0.004438,-0.006856
60633,9.484140,-2.759872,-0.333631,-0.003845,0.005513,-0.003560
60634,9.488929,-2.736510,-0.358592,-0.001437,0.006388,-0.006722
60635,9.486117,-2.785734,-0.379958,0.004948,0.004958,-0.007485
60636,9.484764,-2.757937,-0.331875,0.011442,0.004576,-0.009352
60637,9.509169,-2.759733,-0.328891,0.013140,0.004604,-0.004951
60638,9.458904,-2.752892,-0.308176,0.013449,0.005584,-0.008208
60639,9.508447,-2.705736,-0.256798,0.017603,0.001052,-0.007904
60640,9.486499,-2.704185,-0.282788,0.010909,0.001502,-0.003885
60641,9.511284,-2.680541,-0.256952,0.004744,0.005024,-0.005333
60642,9.486327,-2.728953,-0.304805,-0.003737,0.006558,-0.004667
60643,9.506042,-2.753787,-0.276450,0.000478,0.008509,-0.004533
60644,9.513837,-2.680501,-0.279051,0.002794,0.010498,-0.006647
60645,9.482626,-2.724767,-0.253638,-0.010284,0.012375,-0.001868
60646,9.443600,-2.971700,-0.364724,-0.016689,0.011642,-0.001051
60647,9.420044,-2.943133,-0.342818,0.051568,-0.000752,-0.010668
60648,9.511264,-2.624119,-0.180354,0.070970,-0.008376,-0.016090
60649,9.482343,-2.669077,-0.179266,0.011429,0.004574,-0.009352
60650,9.450752,-2.868442,-0.316637,0.009259,0.007954,-0.008458
60651,9.446399,-2.890515,-0.289822,0.042984,0.004062,-0.009014
60652,9.404195,-2.785021,-0.249192,0.053598,-0.003008,-0.010510
60653,9.442814,-2.692924,-0.299471,0.048470,-0.005727,-0.000926
60654,9.471265,-2.698056,-0.345464,0.042607,-0.013155,-0.006389
60655,9.523100,-2.626906,-0.296032,0.050615,-0.009104,-0.001818
60656,9.494743,-2.621504,-0.249431,0.023199,-0.005529,-0.000975
60657,9.500168,-2.677393,-0.368346,0.008538,-0.004806,-0.001647
60658,9.520269,-2.676502,-0.317572,0.019423,-0.003304,-0.005534
60659,9.571763,-2.630756,-0.291051,0.004820,0.003901,-0.006389
60660,9.547369,-2.653356,-0.315709,-0.022239,0.012768,-0.008927
60661,9.542582,-2.701101,-0.312313,-0.030963,0.019806,-0.005189
60662,9.515302,-2.773672,-0.358254,-0.034853,0.020987,-0.008641
60663,9.488529,-2.820213,-0.381462,-0.036792,0.016697,-0.010770
60664,9.484644,-2.816302,-0.331874,-0.026561,0.023853,-0.007266
60665,9.436544,-2.810742,-0.334915,-0.018110,0.020166,-0.007866
60666,9.432615,-2.806957,-0.284969,-0.009548,0.017524,-0.009571
60667,9.435426,-2.781786,-0.284999,-0.007487,0.013099,-0.009355
60668,9.431473,-2.777967,-0.235440,-0.009585,0.013202,-0.009453
60669,9.435996,-2.780035,-0.283199,-0.003438,0.007526,-0.007936
60670,9.438004,-2.806487,-0.329400,0.000724,0.017082,-0.006930
60671,9.428996,-2.851401,-0.277113,0.013420,0.005592,-0.008201
60672,9.429257,-2.850643,-0.276052,0.021909,0.006229,-0.008915
60673,9.434176,-2.827002,-0.300362,0.030472,0.003590,-0.010617
60674,9.439399,-2.777780,-0.301794,0.040605,-0.002218,-0.006749
60675,9.465940,-2.781007,-0.322878,0.040796,-0.002287,-0.008901
60676,9.497444,-2.735769,-0.346395,0.036324,0.001265,-0.005959
60677,9.493711,-2.706456,-0.273912,0.030220,-0.000662,-0.008345
60678,9.502773,-2.686180,-0.347444,0.008788,0.001612,-0.003974
60679,9.524955,-2.686622,-0.320564,-0.005854,0.004483,-0.004722
60680,9.469216,-2.754404,-0.321017,-0.020988,0.008614,-0.000119
60681,9.503074,-2.685210,-0.346702,-0.020607,0.006310,-0.004363
60682,9.494279,-2.704598,-0.272597,-0.037643,0.010470,-0.002012
60683,9.464902,-2.776087,-0.295752,-0.054333,0.008005,-0.003784
60684,9.459731,-2.849886,-0.316770,-0.043947,0.010776,-0.002305
60685,9.462014,-2.850868,-0.341333,-0.035295,0.007024,-0.005051
60686,9.462506,-2.824580,-0.318477,-0.018438,0.005097,-0.005310
60687,9.486862,-2.826387,-0.316180,-0.014247,0.004895,-0.005113
60688,9.462873,-2.823390,-0.318128,-0.003446,0.007526,-0.007937
60689,9.439283,-2.794458,-0.296598,0.005245,0.008098,-0.010800
60690,9.465969,-2.797217,-0.317649,0.011626,0.006680,-0.011551
60691,9.444271,-2.795297,-0.343258,0.007339,0.007997,-0.010702
60692,9.442406,-2.792959,-0.318053,0.017699,0.004285,-0.009042
60693,9.464696,-2.793057,-0.290661,0.019780,0.002023,-0.008884
60694,9.467095,-2.793769,-0.314394,0.015467,-0.000983,-0.007917
60695,9.522769,-2.750705,-0.336247,0.021740,-0.003446,-0.007561
60696,9.472415,-2.743972,-0.315937,0.021682,0.004154,-0.006693
60697,9.525623,-2.725243,-0.335971,0.013299,0.004556,-0.007089
60698,9.475554,-2.692776,-0.292628,0.004812,0.003912,-0.006379
60699,9.502091,-2.696001,-0.314142,-0.003662,0.005428,-0.005730
60700,9.471029,-2.740082,-0.289193,-0.011926,0.009036,-0.007293
60701,9.473425,-2.740852,-0.312728,-0.016188,0.014675,-0.006565
60702,9.423095,-2.734035,-0.292254,-0.014013,0.011298,-0.007452
60703,9.447521,-2.735581,-0.289689,-0.024528,0.005314,-0.007771
60704,9.469451,-2.761491,-0.286643,-0.031147,0.000315,-0.004693
60705,9.517989,-2.765539,-0.282702,-0.031035,0.003523,-0.005858
60706,9.568453,-2.796748,-0.325651,-0.033302,0.010177,-0.003981
60707,9.544185,-2.819553,-0.350579,-0.024687,0.016194,-0.005909
60708,9.462830,-2.831954,-0.282525,-0.022583,0.018256,-0.005868
60709,9.491628,-2.836484,-0.327567,-0.009908,0.016542,-0.006315
60710,9.445906,-2.806945,-0.332405,-0.003554,0.008643,-0.006889
60711,9.443994,-2.804669,-0.307288,-0.001047,0.010569,-0.011151
60712,9.444789,-2.752287,-0.260167,0.007331,0.008009,-0.010692
60713,9.444936,-2.776804,-0.282079,0.003459,0.013511,-0.014266
60714,9.447760,-2.751294,-0.282156,-0.000956,0.009454,-0.012199
60715,9.472104,-2.778112,-0.302055,-0.003054,0.009554,-0.012300
60716,9.448123,-2.800173,-0.326472,-0.000645,0.012596,-0.015514
60717,9.468102,-2.824030,-0.297673,0.005324,0.006996,-0.011838
60718,9.477539,-2.802881,-0.370542,0.011736,0.012070,-0.012756
60719,9.473505,-2.798879,-0.320400,0.013839,0.014133,-0.012712
60720,9.449426,-2.821429,-0.344422,0.011117,0.007950,-0.006183
60721,9.425836,-2.767091,-0.299557,0.017702,0.006472,-0.009078
60722,9.450311,-2.768505,-0.296306,0.013595,0.003393,-0.010270
60723,9.474960,-2.744189,-0.270297,0.009296,0.002543,-0.009367
60724,9.504057,-2.722733,-0.292821,0.000924,0.007259,-0.009891
60725,9.479976,-2.745293,-0.317283,-0.005545,0.014106,-0.008219
60726,9.456071,-2.742145,-0.318607,-0.013837,0.013383,-0.009673
60727,9.480253,-2.794847,-0.361688,-0.013853,0.009060,-0.009556
60728,9.478121,-2.818274,-0.360192,-0.011970,0.004707,-0.007185
60729,9.500345,-2.818286,-0.332910,-0.009643,0.015350,-0.009526
60730,9.425813,-2.809242,-0.314463,-0.009838,0.017579,-0.007432
60731,9.404267,-2.781935,-0.317135,-0.011864,0.007916,-0.008350
60732,9.445893,-2.832741,-0.285473,-0.003390,0.002087,-0.008872
60733,9.474851,-2.836960,-0.331485,0.005097,0.000583,-0.009509
60734,9.523560,-2.840458,-0.326178,0.013800,0.005498,-0.012472
60735,9.504401,-2.814133,-0.352827,0.020300,0.009462,-0.014432
60736,9.458910,-2.758503,-0.334082,0.026393,0.011401,-0.012030
60737,9.454805,-2.754418,-0.283969,0.020390,0.008348,-0.015479
60738,9.433311,-2.752210,-0.309601,0.018276,0.001959,-0.015406
60739,9.479776,-2.779531,-0.302868,0.014085,0.004314,-0.015671
60740,9.460673,-2.752967,-0.329815,0.012092,0.007619,-0.016939
60741,9.476066,-2.799461,-0.275469,0.018074,0.004191,-0.013313
60742,9.456896,-2.773135,-0.302349,0.013985,0.007591,-0.014684
60743,9.457227,-2.797538,-0.324635,0.018160,-0.001247,-0.014240
60744,9.508392,-2.750840,-0.297489,0.019961,0.002004,-0.010998
60745,9.462685,-2.721035,-0.302853,0.013870,0.002221,-0.013459
60746,9.484926,-2.746246,-0.298620,0.005489,0.004764,-0.013932
60747,9.514107,-2.724409,-0.320996,-0.000991,0.009442,-0.012210
60748,9.485645,-2.769457,-0.320111,-0.007081,0.009658,-0.014673
60749,9.485974,-2.793959,-0.342462,-0.011671,0.009986,-0.010576
60750,9.437921,-2.788514,-0.346474,-0.001093,0.010559,-0.011164
60751,9.479780,-2.813192,-0.290852,-0.003188,0.012816,-0.011327
60752,9.460506,-2.787195,-0.317993,-0.007584,0.006588,-0.009203
60753,9.458475,-2.784911,-0.293446,-0.005591,0.003285,-0.007934
60754,9.478277,-2.809241,-0.265203,-0.007883,0.007772,-0.006005
60755,9.505000,-2.812124,-0.286512,-0.009682,0.008845,-0.009367
60756,9.459232,-2.808147,-0.314937,-0.005192,0.009635,-0.012416
60757,9.457247,-2.805762,-0.289758,0.006987,0.009207,-0.007487
60758,9.466735,-2.759258,-0.339879,0.003091,0.006049,-0.010835
60759,9.462473,-2.755291,-0.290779,0.013768,0.001188,-0.012346
60760,9.491633,-2.759167,-0.336286,0.009674,0.004584,-0.013720
60761,9.492005,-2.757979,-0.335530,0.005283,0.007002,-0.011837
60762,9.492364,-2.756845,-0.334691,-0.001006,0.009444,-0.012210
60763,9.490401,-2.754315,-0.309609,-0.005398,0.009700,-0.010267
60764,9.493021,-2.754775,-0.333098,-0.005399,0.009700,-0.010267
60765,9.491020,-2.726558,-0.285078,-0.017978,0.012421,-0.010956
60766,9.464893,-2.773327,-0.308554,-0.024371,0.015977,-0.010284
60767,9.434075,-2.817469,-0.283482,-0.018480,0.013673,-0.005606
60768,9.458506,-2.818902,-0.280400,-0.016086,0.010235,-0.008640
60769,9.463422,-2.795057,-0.305360,-0.011595,0.008867,-0.011628
60770,9.487938,-2.796161,-0.302557,-0.003303,0.003125,-0.009983
60771,9.510183,-2.821529,-0.298469,-0.001013,0.007289,-0.012147
60772,9.469013,-2.769019,-0.329276,0.003080,0.008219,-0.010889
60773,9.493557,-2.744184,-0.302735,0.005668,0.011201,-0.016252
60774,9.472081,-2.742262,-0.328298,-0.005514,0.012980,-0.009278
60775,9.470061,-2.739852,-0.303140,-0.003214,0.008496,-0.011207
60776,9.468206,-2.788790,-0.324063,-0.007516,0.014119,-0.010489
60777,9.466210,-2.786291,-0.298981,-0.011605,0.008864,-0.011631
60778,9.471151,-2.762334,-0.323900,-0.013805,0.010071,-0.010690
60779,9.462364,-2.832720,-0.295424,-0.009612,0.009888,-0.010478
60780,9.467305,-2.808796,-0.320115,-0.005321,0.010752,-0.011370
60781,9.443396,-2.779759,-0.298754,-0.000823,0.007226,-0.014298
60782,9.443877,-2.804280,-0.320906,0.007262,0.010203,-0.010731
60783,9.466181,-2.829592,-0.316375,0.007474,0.003650,-0.012708
60784,9.470931,-2.754131,-0.294904,0.015954,0.006496,-0.013444
60785,9.500118,-2.732124,-0.316908,0.009660,0.006769,-0.013765
60786,9.500515,-2.730852,-0.315969,-0.000935,0.010500,-0.013311
60787,9.496315,-2.752475,-0.289328,-0.005244,0.016120,-0.012596
60788,9.470300,-2.773383,-0.289327,-0.009339,0.015187,-0.013857
60789,9.422456,-2.793632,-0.316262,-0.003139,0.011706,-0.012371
60790,9.466642,-2.819470,-0.284938,-0.000934,0.008339,-0.013252
60791,9.491264,-2.820207,-0.281657,0.001361,0.008183,-0.015296
60792,9.496277,-2.796002,-0.306374,0.003266,0.005997,-0.012979
60793,9.472299,-2.767002,-0.284922,0.005348,0.010232,-0.012988
60794,9.472739,-2.765609,-0.283829,-0.000653,0.011482,-0.016568
60795,9.471233,-2.813937,-0.304567,0.003738,0.011237,-0.018504
60796,9.493590,-2.812860,-0.276714,0.005842,0.008985,-0.018338
60797,9.505673,-2.766913,-0.350763,0.005633,0.011215,-0.016244
60798,9.479568,-2.761960,-0.327413,0.007599,0.018727,-0.015266
60799,9.451059,-2.755611,-0.279534,-0.000793,0.019083,-0.015700
60800,9.453714,-2.729890,-0.279005,-0.000890,0.018035,-0.014594
60801,9.427739,-2.750836,-0.279229,-0.007334,0.007556,-0.012475
60802,9.479118,-2.780904,-0.321131,-0.007419,0.004346,-0.011311
60803,9.503664,-2.781797,-0.318246,-0.007337,0.007556,-0.012475
60804,9.501855,-2.804951,-0.316076,0.000917,0.014805,-0.011168
60805,9.475682,-2.800176,-0.292795,-0.000703,0.017971,-0.016744
60806,9.425382,-2.793113,-0.272036,0.012006,0.012005,-0.017018
60807,9.450114,-2.793478,-0.268005,0.014299,0.011851,-0.019060
60808,9.477308,-2.795121,-0.288426,0.016520,0.006325,-0.019879
60809,9.453717,-2.791170,-0.289782,0.018800,0.008334,-0.021980
60810,9.480393,-2.741251,-0.263892,0.018574,0.012726,-0.019947
60811,9.430436,-2.759675,-0.266085,0.016473,0.012813,-0.020057
60812,9.482155,-2.788976,-0.306850,0.012301,0.008661,-0.020158
60813,9.456004,-2.783988,-0.284169,0.013829,0.004452,-0.013473
60814,9.500540,-2.835278,-0.275723,0.016016,0.005414,-0.014469
60815,9.459274,-2.782862,-0.306147,0.026454,0.011472,-0.014098
60816,9.455140,-2.804387,-0.279045,0.022376,0.008366,-0.015304
60817,9.460142,-2.780243,-0.303091,0.028568,0.007063,-0.013866
60818,9.491133,-2.707989,-0.303044,0.030990,0.001469,-0.016831
60819,9.489135,-2.705034,-0.277865,0.022498,0.002926,-0.016228
60820,9.511668,-2.729829,-0.273093,0.013994,0.006544,-0.015687
60821,9.492466,-2.703676,-0.299782,0.011640,0.015347,-0.013893
60822,9.464137,-2.723169,-0.275429,0.003394,0.010245,-0.015258
60823,9.464949,-2.747490,-0.297268,0.001282,0.012492,-0.015431
60824,9.489598,-2.748027,-0.293444,-0.000921,0.013693,-0.014497
60825,9.487945,-2.770913,-0.291111,0.003406,0.008084,-0.015196
60826,9.490880,-2.770911,-0.314315,0.005573,0.011209,-0.016253
60827,9.464717,-2.765908,-0.291187,0.005627,0.016581,-0.017484
60828,9.455679,-2.784292,-0.215592,0.007450,0.013358,-0.014052
60829,9.436871,-2.783942,-0.265636,0.014015,0.002226,-0.015557
60830,9.509538,-2.762376,-0.234437,0.014334,-0.001121,-0.018691
60831,9.519180,-2.714964,-0.284796,0.003770,0.010107,-0.019562
60832,9.517636,-2.737562,-0.282275,0.005541,0.013372,-0.016317
60833,9.492300,-2.784159,-0.304984,0.001313,0.017862,-0.016666
60834,9.444411,-2.778786,-0.308493,0.007613,0.015453,-0.016267
60835,9.464524,-2.802072,-0.278971,0.013862,0.007672,-0.014635
60836,9.464948,-2.800745,-0.277907,0.018067,0.005345,-0.014347
60837,9.469981,-2.776418,-0.302274,0.026920,0.005925,-0.019307
60838,9.491260,-2.723631,-0.228354,0.028744,0.002705,-0.015872
60839,9.472508,-2.723305,-0.278457,0.024552,0.002868,-0.016098
60840,9.494648,-2.722213,-0.250789,0.022475,0.000787,-0.016147
60841,9.525878,-2.675477,-0.274245,0.018353,0.004158,-0.017544
60842,9.504668,-2.673505,-0.300079,0.007736,0.010005,-0.017193
60843,9.475923,-2.667037,-0.252962,-0.000874,0.014723,-0.015622
60844,9.455221,-2.690891,-0.301471,-0.009053,0.014975,-0.018225
60845,9.475376,-2.713916,-0.272447,-0.015574,0.009916,-0.015177
60846,9.495972,-2.762966,-0.266656,-0.009383,0.008629,-0.013730
60847,9.494304,-2.786153,-0.264737,-0.005588,0.008610,-0.009201
60848,9.520866,-2.762581,-0.262543,-0.000948,0.011518,-0.014448
60849,9.474873,-2.733292,-0.267978,-0.003261,0.013831,-0.012474
60850,9.499974,-2.759764,-0.287250,-0.003217,0.009506,-0.012346
60851,9.495281,-2.755554,-0.237888,-0.005335,0.011748,-0.012524
60852,9.500704,-2.757447,-0.285337,-0.009742,0.014140,-0.010665
60853,9.476897,-2.754397,-0.286584,0.001067,0.017929,-0.014524
60854,9.446011,-2.772641,-0.238200,0.000880,0.008302,-0.011010
60855,9.475680,-2.776278,-0.283103,0.009644,0.007846,-0.014855
60856,9.475526,-2.749155,-0.259290,0.011674,0.004558,-0.013570
60857,9.504055,-2.701179,-0.258438,0.011563,0.005675,-0.012526
60858,9.505007,-2.725757,-0.280407,0.007435,0.009041,-0.013927
60859,9.504807,-2.698732,-0.256344,0.005121,0.011352,-0.011955
60860,9.479572,-2.745911,-0.279478,-0.005457,0.012861,-0.011485
60861,9.477402,-2.743161,-0.254179,-0.000967,0.011518,-0.014450
60862,9.481005,-2.769068,-0.300194,0.001209,0.012486,-0.015442
60863,9.480191,-2.716194,-0.253332,0.000870,0.008301,-0.011012
60864,9.483094,-2.716619,-0.276678,0.003047,0.009270,-0.012004
60865,9.478899,-2.738339,-0.250300,-0.007616,0.009728,-0.010430
60866,9.483116,-2.688722,-0.252222,-0.009710,0.009806,-0.010545
60867,9.484042,-2.713528,-0.274504,-0.016104,0.011155,-0.009849
60868,9.484349,-2.712536,-0.273704,-0.018254,0.015558,-0.010092
60869,9.459190,-2.759684,-0.297442,-0.019963,0.007962,-0.013212
60870,9.479240,-2.783033,-0.268850,-0.018010,0.011164,-0.012115
60871,9.484125,-2.759048,-0.293834,-0.011702,0.008770,-0.011704
60872,9.479977,-2.780635,-0.267660,-0.007348,0.010710,-0.013686
60873,9.480381,-2.779329,-0.266926,-0.005227,0.008470,-0.013507
60874,9.482687,-2.753808,-0.267522,0.000972,0.007193,-0.012051
60875,9.483049,-2.752627,-0.266839,0.003178,0.006001,-0.012979
60876,9.460483,-2.699513,-0.247189,-0.003136,0.008393,-0.013391
60877,9.457011,-2.746889,-0.243896,-0.005344,0.009585,-0.012464
60878,9.458748,-2.797238,-0.289246,-0.000985,0.003991,-0.013148
60879,9.458487,-2.770027,-0.266097,0.003652,-0.000623,-0.017091
60880,9.483191,-2.770075,-0.263246,0.003815,0.001471,-0.019305
60881,9.485135,-2.819803,-0.308874,0.010209,0.000129,-0.019999
60882,9.533364,-2.795772,-0.280031,0.016265,0.002134,-0.017561
60883,9.486676,-2.740461,-0.263113,0.018551,0.001990,-0.019596
60884,9.489097,-2.714380,-0.263809,0.014278,0.001094,-0.018722
60885,9.492951,-2.739882,-0.310429,0.014356,0.002141,-0.019829
60886,9.540025,-2.765767,-0.303368,0.014528,-0.003300,-0.020745
60887,9.540640,-2.763690,-0.302947,0.008311,0.005505,-0.023502
60888,9.513389,-2.808300,-0.302093,0.016844,0.007303,-0.025250
60889,9.465763,-2.802387,-0.306152,0.021267,0.010296,-0.028340
60890,9.493394,-2.803021,-0.326088,0.029666,0.007840,-0.027807
60891,9.493459,-2.774568,-0.301558,0.034035,0.007625,-0.029724
60892,9.442163,-2.817253,-0.302699,0.035847,0.006576,-0.026348
60893,9.464479,-2.815109,-0.274168,0.044160,0.003079,-0.024706
60894,9.490404,-2.764498,-0.248310,0.054527,0.001673,-0.023011
60895,9.517025,-2.739985,-0.245254,0.047821,0.004196,-0.019128
60896,9.495911,-2.738425,-0.270494,0.043132,0.005601,-0.014019
60897,9.498129,-2.712929,-0.269961,0.038760,0.011187,-0.013348
60898,9.475295,-2.660008,-0.249176,0.036470,0.011332,-0.011315
60899,9.476400,-2.685064,-0.270048,0.032014,0.010502,-0.008290
60900,9.448969,-2.655266,-0.224155,0.019316,0.008838,-0.006777
60901,9.505385,-2.663083,-0.290404,0.016793,0.000479,-0.000167
60902,9.506390,-2.612899,-0.268162,0.008180,0.010531,0.000125
60903,9.508206,-2.588682,-0.268609,-0.004512,0.008866,0.001637
60904,9.511781,-2.540344,-0.270691,-0.021682,0.013905,0.004856
60905,9.483031,-2.561797,-0.247159,-0.036427,0.015519,0.005069
60906,9.481079,-2.586640,-0.245388,-0.051450,0.016163,0.008541
60907,9.453917,-2.660062,-0.268115,-0.063932,0.017636,0.006720
60908,9.473525,-2.684886,-0.239626,-0.061819,0.020775,0.005662
60909,9.473441,-2.685182,-0.239625,-0.061537,0.014217,0.003711
60910,9.473388,-2.685311,-0.240284,-0.069740,0.009063,0.002324
60911,9.525272,-2.715958,-0.283018,-0.063217,0.004454,0.000661
60912,9.547667,-2.741775,-0.279832,-0.059078,0.011848,-0.000403
60913,9.573658,-2.794651,-0.323344,-0.052425,0.011496,-0.004346
60914,9.549693,-2.792213,-0.325865,-0.043855,0.021889,-0.008488
60915,9.472938,-2.809013,-0.307743,-0.030985,0.020276,-0.010965
60916,9.470666,-2.806270,-0.282544,-0.020051,0.015457,-0.014542
60917,9.444264,-2.801610,-0.260256,-0.011325,0.011825,-0.017194
60918,9.466298,-2.800078,-0.232851,0.001746,-0.000601,-0.019357
60919,9.497432,-2.752424,-0.256449,0.006402,0.005546,-0.025756
60920,9.471240,-2.746957,-0.234568,0.006398,0.000171,-0.024525
60921,9.501537,-2.749075,-0.279853,0.004415,0.004502,-0.026921
60922,9.528325,-2.799661,-0.322232,0.008640,0.007573,-0.027849
60923,9.475421,-2.866661,-0.322988,0.015114,0.007296,-0.029639
60924,9.478988,-2.865362,-0.346206,0.025781,0.001506,-0.029956
60925,9.452003,-2.833834,-0.300614,0.044586,0.003044,-0.028935
60926,9.481494,-2.810004,-0.321539,0.059308,0.003610,-0.029200
60927,9.457164,-2.780032,-0.299618,0.059369,-0.000715,-0.029072
60928,9.481144,-2.753470,-0.272183,0.058808,0.002704,-0.023793
60929,9.455721,-2.697944,-0.227491,0.050727,0.001792,-0.027469
60930,9.478883,-2.721532,-0.221858,0.046145,0.002068,-0.023409
60931,9.462468,-2.696581,-0.272992,0.037724,0.004502,-0.023958
60932,9.480137,-2.717382,-0.219105,0.033193,0.002615,-0.019831
60933,9.464624,-2.718587,-0.293605,0.020755,0.001899,-0.021597
60934,9.485965,-2.766931,-0.287028,0.022450,0.007347,-0.018419
60935,9.511685,-2.792701,-0.305964,0.028848,0.000659,-0.017854
60936,9.509452,-2.789625,-0.280653,0.030657,0.004991,-0.015719
60937,9.463884,-2.710652,-0.264533,0.036791,0.011283,-0.015562
60938,9.461584,-2.707798,-0.238460,0.036681,0.007031,-0.013273
60939,9.436724,-2.679181,-0.217327,0.028492,-0.001359,-0.013481
60940,9.462299,-2.705433,-0.236895,0.022191,-0.004371,-0.012664
60941,9.512066,-2.733248,-0.253815,0.026366,-0.004501,-0.012422
60942,9.514020,-2.708059,-0.254489,0.025690,0.005416,-0.007361
60943,9.541191,-2.710425,-0.274619,0.021654,0.007635,-0.009824
60944,9.498487,-2.709887,-0.327128,0.023461,0.011971,-0.007694
60945,9.464702,-2.727080,-0.254392,0.025869,0.005344,-0.009511
60946,9.498608,-2.632078,-0.280526,0.026027,0.002063,-0.010479
60947,9.490055,-2.676649,-0.228390,0.023676,0.001158,-0.007339
60948,9.493019,-2.677504,-0.251876,0.013379,0.003567,-0.010168
60949,9.519165,-2.653787,-0.249690,0.011127,0.006913,-0.009322
60950,9.467732,-2.698414,-0.251661,0.007303,0.003684,-0.012683
60951,9.496696,-2.675988,-0.273965,0.015885,0.001191,-0.014275
60952,9.518576,-2.674419,-0.246544,0.007651,0.000326,-0.015800
60953,9.542662,-2.724572,-0.264553,0.005658,0.004640,-0.018217
60954,9.517344,-2.745611,-0.265133,0.012059,0.006538,-0.020075
60955,9.517944,-2.743635,-0.264053,0.014285,0.008563,-0.022177
60956,9.495459,-2.766099,-0.288452,0.018502,0.006275,-0.021861
60957,9.521446,-2.791338,-0.307017,0.027171,0.008037,-0.025748
60958,9.510680,-2.832675,-0.230146,0.035582,0.000257,-0.023929
60959,9.514150,-2.832014,-0.253029,0.050500,0.001835,-0.027451
60960,9.493966,-2.779446,-0.257177,0.056810,0.002695,-0.028199
60961,9.492025,-2.775173,-0.231143,0.061077,0.001454,-0.028993
60962,9.470250,-2.746759,-0.233629,0.067494,0.001196,-0.030778
60963,9.495252,-2.745579,-0.228917,0.071430,-0.002048,-0.027196
60964,9.451939,-2.717706,-0.258649,0.069505,-0.002065,-0.029469
60965,9.478910,-2.641884,-0.234720,0.069294,-0.001982,-0.027319
60966,9.508115,-2.618437,-0.256064,0.062722,-0.000601,-0.024499
60967,9.555570,-2.643446,-0.247142,0.045584,0.004359,-0.021332
60968,9.527987,-2.612326,-0.201296,0.047317,0.010871,-0.019298
60969,9.488319,-2.613394,-0.277493,0.026201,0.012659,-0.017334
60970,9.493100,-2.589382,-0.301528,0.024049,0.011677,-0.016341
60971,9.482508,-2.580667,-0.203307,0.005074,0.011241,-0.014175
60972,9.462272,-2.656535,-0.272854,-0.011884,0.009705,-0.010773
60973,9.483750,-2.705271,-0.266103,-0.005225,0.007205,-0.014626
60974,9.505569,-2.703552,-0.238301,-0.001420,0.010458,-0.011276
60975,9.480504,-2.674869,-0.217681,-0.009611,0.012767,-0.013998
60976,9.459070,-2.724759,-0.264744,-0.008032,0.010795,-0.007344
60977,9.478027,-2.721512,-0.212797,-0.003333,0.007231,-0.012353
60978,9.485732,-2.649273,-0.241388,-0.003399,0.006191,-0.011238
60979,9.509948,-2.700021,-0.259031,-0.013987,0.006557,-0.009703
60980,9.531602,-2.698788,-0.231588,-0.012330,0.008827,-0.005360
60981,9.484615,-2.721674,-0.259413,-0.010131,0.007648,-0.006272
60982,9.488142,-2.621937,-0.241430,-0.014175,0.006640,-0.007553
60983,9.487077,-2.595136,-0.218739,-0.024767,0.007005,-0.006020
60984,9.468862,-2.546362,-0.249338,-0.037270,0.004142,-0.005567
60985,9.463443,-2.542183,-0.201483,-0.047861,0.007710,-0.005228
60986,9.433343,-2.637387,-0.198442,-0.056072,0.010020,-0.007951
60987,9.458811,-2.714261,-0.239957,-0.055859,0.004575,-0.008832
60988,9.454717,-2.736008,-0.215144,-0.045640,0.004372,-0.006064
60989,9.484528,-2.790201,-0.282589,-0.040874,0.001861,-0.012190
60990,9.484586,-2.839494,-0.304522,-0.028625,0.000558,-0.008184
60991,9.563034,-2.845964,-0.345206,-0.019942,-0.006234,-0.009611
60992,9.593262,-2.799572,-0.370121,-0.005876,0.003220,-0.005861
60993,9.589347,-2.771335,-0.322723,-0.006281,0.011948,-0.004014
60994,9.545600,-2.695352,-0.332116,-0.014796,0.015457,-0.003548
60995,9.517420,-2.665996,-0.287162,-0.021238,0.015704,-0.001770
60996,9.537361,-2.689838,-0.257939,-0.027634,0.010582,0.001271
60997,9.563071,-2.666859,-0.256375,-0.033895,0.010751,0.000898
60998,9.540293,-2.641548,-0.260357,-0.038917,0.018703,0.007914
60999,9.509080,-2.611225,-0.191462,-0.040456,0.018532,0.001338
61000,9.490657,-2.563163,-0.221094,-0.057596,0.018095,0.005752
61001,9.460340,-2.659407,-0.217847,-0.065834,0.020412,0.003027
61002,9.482990,-2.685214,-0.213363,-0.063711,0.018194,0.003224
61003,9.462944,-2.711416,-0.263292,-0.061213,0.015828,-0.000879
61004,9.457107,-2.758368,-0.236363,-0.050915,0.013453,0.001970
61005,9.482854,-2.735256,-0.234939,-0.046375,0.013195,-0.002080
61006,9.484264,-2.760888,-0.257661,-0.027396,0.009399,-0.001917
61007,9.511386,-2.763545,-0.278792,-0.027400,0.009399,-0.001917
61008,9.480150,-2.782864,-0.231489,-0.018595,0.013282,-0.008003
61009,9.436148,-2.806995,-0.283714,-0.010308,0.008798,-0.005209
61010,9.477536,-2.830244,-0.227503,0.002602,0.005102,-0.007573
61011,9.456539,-2.779651,-0.232899,0.013163,-0.002720,-0.005624
61012,9.503864,-2.705807,-0.183003,0.015238,-0.009195,-0.003138
61013,9.522866,-2.590133,-0.287181,-0.008051,-0.000960,-0.003696
61014,9.526068,-2.491153,-0.268377,-0.023716,0.013750,0.002495
61015,9.482017,-2.465853,-0.299064,-0.055504,0.023332,0.002472
61016,9.485933,-2.593673,-0.388654,-0.091211,0.022215,0.002538
61017,9.521575,-2.601059,-0.483038,-0.084863,0.014509,0.004229
61018,9.555588,-2.596267,-0.356831,-0.099918,0.021474,0.005289
61019,9.545273,-2.666395,-0.304942,-0.114808,0.028375,0.004199
61020,9.492372,-2.736584,-0.307283,-0.116775,0.031585,0.000747
61021,9.457870,-2.805345,-0.258391,-0.102301,0.025872,0.005024
61022,9.453410,-2.828416,-0.233461,-0.087233,0.019962,0.002850
61023,9.424952,-2.799845,-0.190013,-0.086770,0.015512,-0.001330
61024,9.447643,-2.825452,-0.186614,-0.074526,0.016338,0.002636
61025,9.421944,-2.848362,-0.189017,-0.067811,0.013877,-0.001220
61026,9.450506,-2.876445,-0.233980,-0.048555,0.006796,-0.002035
61027,9.453515,-2.877379,-0.258845,-0.029280,0.002930,-0.004013
61028,9.482191,-2.905091,-0.303541,-0.016295,0.002457,-0.007541
61029,9.458073,-2.953114,-0.328428,0.008852,0.000697,-0.004889
61030,9.471534,-2.883477,-0.403648,0.040810,0.000747,-0.008360
61031,9.490292,-2.831433,-0.329010,0.055945,-0.001947,-0.011700
61032,9.443725,-2.803493,-0.334763,0.062289,-0.004284,-0.011254
61033,9.472697,-2.731026,-0.334224,0.062326,-0.009661,-0.010031
61034,9.471468,-2.754530,-0.332219,0.064595,-0.009780,-0.012053
61035,9.499046,-2.656171,-0.309121,0.056184,-0.009546,-0.012568
61036,9.497820,-2.679605,-0.307466,0.047525,-0.010302,-0.009827
61037,9.528140,-2.632834,-0.330828,0.028395,-0.004342,-0.010064
61038,9.522574,-2.629248,-0.281757,0.017349,0.005777,-0.007761
61039,9.522752,-2.628689,-0.280948,0.000195,0.006363,-0.004489
61040,9.494292,-2.649878,-0.258159,-0.010292,0.003435,-0.003962
61041,9.514203,-2.673761,-0.229688,-0.027381,0.008284,-0.002966
61042,9.443000,-2.745528,-0.283258,-0.032210,0.010753,0.003165
61043,9.438579,-2.768560,-0.257911,-0.027581,0.005135,0.000352
61044,9.441476,-2.769955,-0.282461,-0.016972,0.000521,0.001119
61045,9.491230,-2.748614,-0.278421,-0.013037,-0.007009,0.006968
61046,9.519666,-2.777291,-0.323201,-0.012650,0.002508,-0.000834
61047,9.545314,-2.804213,-0.343328,-0.012651,0.002508,-0.000834
61048,9.545350,-2.804130,-0.343003,-0.002344,0.008712,-0.000373
61049,9.495579,-2.825567,-0.346886,0.000072,0.010694,-0.004606
61050,9.468674,-2.822308,-0.324629,0.006682,0.009346,-0.007414
61051,9.467407,-2.846039,-0.322367,0.021491,0.004618,-0.006387
61052,9.470653,-2.746627,-0.302000,0.034579,-0.000178,-0.009790
61053,9.496571,-2.722875,-0.299216,0.032224,0.002106,-0.007831
61054,9.468258,-2.693706,-0.253861,0.028026,0.005434,-0.009258
61055,9.471447,-2.694284,-0.276841,0.023828,0.005548,-0.009517
61056,9.470201,-2.717917,-0.274665,0.017344,0.002569,-0.006585
61057,9.468956,-2.741522,-0.272889,0.015624,-0.000716,-0.009846
61058,9.500757,-2.720354,-0.319068,0.011430,0.002610,-0.011274
61059,9.499570,-2.743796,-0.317135,0.008955,0.006009,-0.008273
61060,9.504180,-2.720234,-0.341585,0.002223,0.011683,-0.005594
61061,9.471386,-2.764264,-0.292607,0.004382,0.009463,-0.005401
61062,9.472948,-2.739691,-0.292862,0.006036,0.008487,0.000136
61063,9.498657,-2.716573,-0.290160,0.004128,0.008478,-0.002144
61064,9.473085,-2.739380,-0.291337,-0.006226,0.004431,-0.002667
61065,9.497330,-2.740568,-0.287666,-0.002541,0.011989,0.000597
61066,9.470236,-2.737831,-0.265419,-0.006671,0.013150,-0.000770
61067,9.465912,-2.760565,-0.239018,-0.006418,0.010922,-0.002857
61068,9.447739,-2.761698,-0.289929,-0.010230,0.004479,-0.005078
61069,9.473496,-2.738325,-0.287878,-0.004258,0.005489,-0.001493
61070,9.521975,-2.790805,-0.303192,-0.004131,0.004375,-0.002537
61071,9.472249,-2.762012,-0.285857,-0.001719,0.006355,-0.006770
61072,9.502515,-2.765590,-0.330639,0.000187,0.006363,-0.004489
61073,9.496787,-2.762250,-0.281513,0.002409,0.008407,-0.006572
61074,9.450149,-2.784666,-0.309659,0.006919,0.007118,-0.009505
61075,9.474610,-2.785130,-0.305813,0.006856,0.006068,-0.008398
61076,9.474855,-2.784409,-0.304786,0.019368,0.007899,-0.007677
61077,9.499336,-2.784858,-0.300337,0.017457,0.011103,-0.011128
61078,9.473916,-2.756995,-0.278970,0.023555,0.007789,-0.007414
61079,9.496838,-2.731770,-0.251715,0.023807,0.005561,-0.009501
61080,9.474392,-2.705214,-0.254821,0.013323,0.009049,-0.011328
61081,9.474752,-2.754476,-0.275410,0.008816,0.007126,-0.007226
61082,9.474999,-2.753708,-0.274621,0.006976,0.004952,-0.009443
61083,9.500856,-2.729913,-0.272132,0.006658,0.006131,-0.006250
61084,9.475450,-2.752299,-0.273170,0.004752,0.006121,-0.008531
61085,9.448612,-2.748558,-0.251117,0.009316,0.009094,-0.013741
61086,9.453433,-2.774833,-0.297461,0.000436,0.004131,-0.006580
61087,9.477875,-2.775293,-0.293825,0.007034,0.006001,-0.010550
61088,9.479573,-2.750099,-0.294387,0.011101,0.003795,-0.008072
61089,9.511363,-2.729228,-0.340374,0.011039,0.002746,-0.006964
61090,9.504033,-2.699953,-0.268404,0.008747,0.006078,-0.006118
61091,9.483027,-2.699518,-0.294964,0.002591,0.005125,-0.007556
61092,9.481785,-2.723308,-0.293023,-0.006304,0.009800,-0.003914
61093,9.484911,-2.724347,-0.316505,-0.010494,0.009908,-0.004178
61094,9.476227,-2.769750,-0.264996,-0.012651,0.008912,-0.003202
61095,9.479329,-2.770848,-0.288817,-0.014680,0.006802,-0.003270
61096,9.479497,-2.770317,-0.288399,-0.008083,0.008675,-0.007238
61097,9.485704,-2.772520,-0.336150,-0.010309,0.009843,-0.006327
61098,9.455719,-2.767797,-0.290249,-0.006050,0.007572,-0.005998
61099,9.483072,-2.769952,-0.310939,-0.003948,0.004305,-0.004694
61100,9.486236,-2.770880,-0.334648,-0.001860,0.007465,-0.005733
61101,9.510463,-2.721314,-0.309261,-0.010122,0.009778,-0.008478
61102,9.479089,-2.740843,-0.261876,-0.016868,0.015445,-0.005812
61103,9.455293,-2.789121,-0.285833,-0.016732,0.011118,-0.005684
61104,9.425454,-2.834634,-0.261639,-0.012603,0.009961,-0.004311
61105,9.452823,-2.836760,-0.282348,0.000502,0.001971,-0.006514
61106,9.481603,-2.814506,-0.304464,0.011052,-0.000459,-0.005785
61107,9.464834,-2.741031,-0.335106,0.017589,0.000367,-0.008642
61108,9.457433,-2.711633,-0.263244,0.013326,0.002637,-0.008973
61109,9.459282,-2.736653,-0.285660,0.004752,0.002914,-0.007355
61110,9.511173,-2.789712,-0.325176,0.005402,-0.002658,-0.012570
61111,9.531270,-2.812768,-0.296638,0.005141,-0.000429,-0.010484
61112,9.535972,-2.788868,-0.321883,0.005070,0.001735,-0.010548
61113,9.533247,-2.786526,-0.296926,0.013111,0.009131,-0.009166
61114,9.485187,-2.783153,-0.301902,0.011204,0.009119,-0.011450
61115,9.488294,-2.733401,-0.303426,0.007082,0.007059,-0.011652
61116,9.461415,-2.729688,-0.281630,-0.001359,0.006219,-0.011078
61117,9.484232,-2.704205,-0.255045,-0.003775,0.007450,-0.008019
61118,9.458933,-2.726506,-0.256041,-0.005955,0.012879,-0.009390
61119,9.459269,-2.725426,-0.255093,-0.022602,0.015393,-0.012674
61120,9.434341,-2.797593,-0.277982,-0.020616,0.010029,-0.009154
61121,9.436269,-2.822518,-0.300608,-0.014318,0.006660,-0.007581
61122,9.439527,-2.823228,-0.324532,-0.003767,0.004238,-0.006846
61123,9.488123,-2.824899,-0.318011,0.004879,0.001804,-0.008396
61124,9.495752,-2.802811,-0.367222,0.004427,0.004097,-0.004160
61125,9.491227,-2.775053,-0.319392,0.017440,0.004710,-0.008762
61126,9.485336,-2.771643,-0.270152,0.008545,0.006158,-0.003956
61127,9.468798,-2.748363,-0.321977,0.000396,0.010562,-0.008923
61128,9.491529,-2.723071,-0.295033,-0.004045,0.009679,-0.005934
61129,9.467866,-2.771452,-0.319004,-0.008369,0.010895,-0.005160
61130,9.468034,-2.770950,-0.318361,-0.016812,0.010050,-0.004592
61131,9.440954,-2.767864,-0.296820,-0.016814,0.010050,-0.004592
61132,9.465245,-2.768720,-0.293361,-0.016990,0.006900,-0.001271
61133,9.462576,-2.817295,-0.290839,-0.016977,0.003686,-0.000100
61134,9.491221,-2.795355,-0.313234,-0.010366,0.002356,-0.002888
61135,9.515532,-2.796139,-0.309812,-0.006204,0.008682,-0.004959
61136,9.462898,-2.816317,-0.289827,-0.008640,0.013125,-0.003071
61137,9.441561,-2.766041,-0.294509,-0.006280,0.010847,-0.005023
61138,9.442103,-2.815621,-0.315542,0.000291,0.005252,-0.005533
61139,9.463022,-2.764748,-0.266163,0.000497,0.001974,-0.006513
61140,9.493537,-2.768080,-0.311136,-0.003771,0.004240,-0.006847
61141,9.496837,-2.768737,-0.334918,-0.007982,0.007556,-0.008288
61142,9.468484,-2.789760,-0.311973,-0.006093,0.010783,-0.007173
61143,9.465977,-2.837957,-0.308662,-0.006475,0.010909,-0.002873
61144,9.466163,-2.837425,-0.307852,0.006828,0.006089,-0.008382
61145,9.464652,-2.811004,-0.284077,0.015157,0.004837,-0.006732
61146,9.466194,-2.786061,-0.284327,0.015081,0.007001,-0.006796
61147,9.446671,-2.761255,-0.311686,0.017291,0.009052,-0.008873
61148,9.413484,-2.755152,-0.241126,0.017307,0.005837,-0.007703
61149,9.471394,-2.760752,-0.306831,0.013929,-0.003960,-0.013062
61150,9.498572,-2.712064,-0.305916,0.013643,0.001482,-0.012147
61151,9.495808,-2.709587,-0.281155,0.002819,0.006123,-0.010806
61152,9.473665,-2.733316,-0.306531,-0.010291,0.010877,-0.007452
61153,9.476976,-2.734006,-0.330317,-0.018582,0.005697,-0.006761
61154,9.496946,-2.757407,-0.301760,-0.027104,0.007009,-0.006264
61155,9.494987,-2.855467,-0.320895,-0.025031,0.010175,-0.007298
61156,9.472395,-2.829122,-0.324753,-0.018706,0.014292,-0.009165
61157,9.439610,-2.873241,-0.276325,-0.006353,0.009793,-0.003919
61158,9.444194,-2.849774,-0.301156,0.000417,0.004140,-0.006576
61159,9.473024,-2.827229,-0.322885,0.000530,0.006242,-0.008789
61160,9.494393,-2.826070,-0.294877,0.004914,0.006081,-0.010665
61161,9.474922,-2.801079,-0.322508,0.006664,0.010423,-0.008505
61162,9.466372,-2.846178,-0.270648,0.008972,0.007096,-0.009348
61163,9.448185,-2.796902,-0.299585,0.013243,0.004835,-0.009011
61164,9.475703,-2.798714,-0.320085,0.011189,-0.001546,-0.006807
61165,9.480399,-2.774848,-0.345001,0.013621,0.004709,-0.013311
61166,9.501836,-2.773400,-0.316901,0.011467,0.003707,-0.012341
61167,9.450664,-2.768819,-0.298215,0.010928,0.008162,-0.008169
61168,9.450969,-2.767864,-0.297397,0.007272,0.003803,-0.012616
61169,9.479910,-2.744867,-0.319176,0.007350,0.001639,-0.012551
61170,9.471443,-2.789635,-0.267904,-0.003481,0.006271,-0.011217
61171,9.478023,-2.791363,-0.315550,-0.003640,0.010599,-0.011345
61172,9.484604,-2.793149,-0.362888,0.000417,0.011618,-0.010028
61173,9.472422,-2.786588,-0.264984,0.000336,0.013782,-0.010092
61174,9.429387,-2.810515,-0.317261,-0.003723,0.012764,-0.011410
61175,9.429722,-2.809525,-0.316061,-0.003995,0.014991,-0.009325
61176,9.430006,-2.808668,-0.315210,0.000599,0.004076,-0.008728
61177,9.429001,-2.832170,-0.313660,0.005007,0.000703,-0.009430
61178,9.474475,-2.832123,-0.282956,0.002856,-0.000300,-0.008461
61179,9.500198,-2.807934,-0.280844,0.007293,0.000593,-0.011442
61180,9.502349,-2.832808,-0.303328,0.004654,0.005095,-0.007409
61181,9.478460,-2.830826,-0.305815,0.004952,0.007133,-0.011773
61182,9.483155,-2.806967,-0.330490,0.011077,0.003841,-0.008037
61183,9.485926,-2.757478,-0.332117,0.019568,0.005756,-0.009698
61184,9.486212,-2.756612,-0.331141,0.006855,0.007149,-0.009486
61185,9.484618,-2.729917,-0.307294,-0.003789,0.011709,-0.010308
61186,9.461382,-2.778060,-0.331281,-0.005993,0.009655,-0.008232
61187,9.438704,-2.751877,-0.334881,-0.008309,0.012979,-0.007393
61188,9.457487,-2.799505,-0.304016,-0.010406,0.013025,-0.007532
61189,9.458381,-2.848937,-0.325068,-0.008117,0.005436,-0.006092
61190,9.479601,-2.848009,-0.296947,0.006444,0.010493,-0.006355
61191,9.475996,-2.795800,-0.250095,0.002524,0.008358,-0.008719
61192,9.478180,-2.820772,-0.272038,0.010907,0.008174,-0.008162
61193,9.455504,-2.794569,-0.275492,0.011043,0.007061,-0.009204
61194,9.463362,-2.772148,-0.324158,0.011178,0.005947,-0.010247
61195,9.480296,-2.793706,-0.270534,0.013546,0.003674,-0.012192
61196,9.460839,-2.768719,-0.298316,0.017462,0.005811,-0.009829
61197,9.488565,-2.770026,-0.318014,0.013533,0.011153,-0.015646
61198,9.440637,-2.766626,-0.323290,0.007086,0.008138,-0.012742
61199,9.466370,-2.742253,-0.320534,0.009160,0.003829,-0.010321
61200,9.488873,-2.716594,-0.293691,0.004747,0.007197,-0.009624
61201,9.513337,-2.716708,-0.289667,-0.010143,0.010788,-0.009627
61202,9.469227,-2.765251,-0.341020,-0.016738,0.016364,-0.009136
61203,9.415576,-2.809546,-0.319866,-0.018751,0.014245,-0.009211
61204,9.463091,-2.834798,-0.311279,-0.014046,0.012915,-0.014272
61205,9.436109,-2.831156,-0.289616,-0.007916,0.009631,-0.010529
61206,9.460632,-2.831083,-0.285706,-0.014154,0.010814,-0.012058
61207,9.436814,-2.828957,-0.288123,0.002613,0.010461,-0.010933
61208,9.438328,-2.803620,-0.288624,-0.001459,0.005170,-0.009977
61209,9.433031,-2.849971,-0.261634,-0.003469,0.003050,-0.010053
61210,9.494483,-2.856643,-0.351709,0.005227,-0.002567,-0.010402
61211,9.489219,-2.902912,-0.324914,0.013713,-0.000641,-0.012054
61212,9.514915,-2.878541,-0.322236,0.019686,0.004671,-0.010719
61213,9.464915,-2.849661,-0.304822,0.030627,0.002163,-0.014250
61214,9.495027,-2.802223,-0.327435,0.039213,-0.005552,-0.012382
61215,9.519862,-2.727673,-0.303219,0.037022,-0.003344,-0.012589
61216,9.499589,-2.652412,-0.309269,0.024062,0.008784,-0.014874
61217,9.471426,-2.673115,-0.285611,0.006750,0.013583,-0.011835
61218,9.454080,-2.673727,-0.335762,0.000704,0.014696,-0.015516
61219,9.424802,-2.718604,-0.311210,-0.009782,0.010644,-0.013938
61220,9.451425,-2.744071,-0.330239,-0.011840,0.007472,-0.012904
61221,9.473675,-2.792465,-0.323852,-0.016209,0.011885,-0.013320
61222,9.497075,-2.816572,-0.318654,-0.007793,0.008503,-0.011580
61223,9.468923,-2.837293,-0.295604,-0.007874,0.014932,-0.013929
61224,9.469369,-2.835899,-0.294694,-0.009652,0.009531,-0.014980
61225,9.436834,-2.879575,-0.246423,-0.005841,0.009576,-0.010397
61226,9.467788,-2.882393,-0.290784,-0.003657,0.007370,-0.010189
61227,9.471347,-2.882824,-0.314186,0.004772,0.008255,-0.010729
61228,9.470714,-2.831724,-0.291585,0.011057,0.008131,-0.010303
61229,9.470062,-2.780641,-0.268955,0.019665,0.004689,-0.010710
61230,9.449438,-2.780143,-0.295659,0.004951,0.003926,-0.010597
61231,9.451887,-2.804827,-0.318046,0.003043,0.003903,-0.012889
61232,9.477540,-2.780304,-0.315292,0.013285,0.006977,-0.011203
61233,9.482242,-2.756345,-0.339865,0.009186,0.004895,-0.011421
61234,9.504637,-2.730391,-0.312934,0.009233,0.005945,-0.012529
61235,9.485158,-2.705535,-0.340546,0.002205,0.014851,-0.008925
61236,9.454862,-2.700580,-0.294188,-0.009939,0.016014,-0.015189
61237,9.425580,-2.745752,-0.269671,-0.014604,0.014123,-0.008959
61238,9.448996,-2.769836,-0.264808,-0.030478,0.004544,-0.015175
61239,9.476713,-2.845459,-0.306019,-0.027136,0.011149,-0.008640
61240,9.453877,-2.893740,-0.330729,-0.020620,0.007752,-0.009187
61241,9.459595,-2.920003,-0.377352,-0.003810,0.008484,-0.009149
61242,9.427037,-2.889601,-0.308694,0.011139,0.005978,-0.010230
61243,9.432837,-2.841298,-0.334566,0.026321,0.000196,-0.012286
61244,9.526606,-2.767989,-0.276222,0.028599,-0.004172,-0.012010
61245,9.486292,-2.743374,-0.331689,0.026501,0.004397,-0.016719
61246,9.504377,-2.739994,-0.278850,0.011318,0.010178,-0.014666
61247,9.460827,-2.713881,-0.309856,0.005127,0.008130,-0.015029
61248,9.460135,-2.736997,-0.307529,-0.001723,0.012703,-0.011295
61249,9.434193,-2.783577,-0.307425,-0.005395,0.007274,-0.014639
61250,9.459825,-2.758864,-0.304797,-0.005725,0.008452,-0.011448
61251,9.462392,-2.783476,-0.327119,-0.009774,0.007415,-0.012777
61252,9.458384,-2.805274,-0.301351,-0.009868,0.005314,-0.010560
61253,9.483969,-2.780690,-0.298687,-0.003684,0.011629,-0.012479
61254,9.465667,-2.805852,-0.348452,-0.007633,0.004162,-0.011458
61255,9.508864,-2.779188,-0.294395,-0.009734,0.008465,-0.013885
61256,9.463151,-2.801951,-0.323259,-0.001497,0.009428,-0.012267
61257,9.478850,-2.773112,-0.247944,-0.001543,0.008378,-0.011159
61258,9.460572,-2.798291,-0.297564,-0.005689,0.009503,-0.012556
61259,9.481849,-2.796434,-0.269453,-0.007502,0.007313,-0.014784
61260,9.436150,-2.819243,-0.298385,0.000549,0.008341,-0.011014
61261,9.464026,-2.820215,-0.318557,-0.000933,0.004974,-0.016433
61262,9.464455,-2.818838,-0.317978,0.005022,0.006040,-0.012808
61263,9.462567,-2.791874,-0.294396,0.005021,0.006040,-0.012808
61264,9.469590,-2.793370,-0.342077,0.009638,0.002626,-0.015643
61265,9.490896,-2.791377,-0.313853,0.005107,0.008141,-0.015025
61266,9.468234,-2.764662,-0.317484,0.005194,0.010243,-0.017241
61267,9.465379,-2.761790,-0.292374,0.005060,0.007091,-0.013917
61268,9.465780,-2.760475,-0.291820,0.001066,0.002835,-0.014073
61269,9.468427,-2.785104,-0.314207,-0.001601,0.007326,-0.010053
61270,9.492886,-2.784997,-0.310323,-0.007931,0.006383,-0.009380
61271,9.468025,-2.807517,-0.311796,-0.005849,0.010613,-0.011519
61272,9.470658,-2.832308,-0.333735,0.000248,0.010569,-0.008933
61273,9.438863,-2.777532,-0.266437,-0.003513,0.007299,-0.012348
61274,9.466701,-2.778650,-0.286508,0.000533,0.008342,-0.011015
61275,9.472695,-2.804736,-0.332865,0.000776,0.005064,-0.011990
61276,9.469778,-2.801994,-0.308219,0.001148,0.004938,-0.016289
61277,9.446018,-2.799879,-0.311016,0.007060,0.004960,-0.011553
61278,9.494696,-2.800358,-0.303894,0.003214,-0.000413,-0.012752
61279,9.497027,-2.750464,-0.306229,0.009397,0.001647,-0.012381
61280,9.469829,-2.747290,-0.284775,0.006625,0.008301,-0.008429
61281,9.470097,-2.746468,-0.283815,-0.001857,0.010603,-0.009080
61282,9.448587,-2.770499,-0.309239,-0.007999,0.009593,-0.010560
61283,9.444596,-2.792411,-0.283095,-0.001571,0.008376,-0.011163
61284,9.471417,-2.818065,-0.301775,0.008819,0.006104,-0.008215
61285,9.490616,-2.865140,-0.270946,0.005145,0.004933,-0.013848
61286,9.473125,-2.791375,-0.301673,0.013668,0.003684,-0.014304
61287,9.474445,-2.765911,-0.302106,0.015286,0.005941,-0.009926
61288,9.478128,-2.766283,-0.325313,0.015615,0.004764,-0.013116
61289,9.472740,-2.737996,-0.277403,0.006802,0.008239,-0.010580
61290,9.497228,-2.737734,-0.273087,0.006945,0.007125,-0.011620
61291,9.478202,-2.787417,-0.321382,0.000661,0.007225,-0.012061
61292,9.471841,-2.783479,-0.272246,0.000412,0.010503,-0.011088
61293,9.457148,-2.810247,-0.345916,0.000659,0.007225,-0.012061
61294,9.505280,-2.736284,-0.318085,0.002422,0.008370,-0.008723
61295,9.473769,-2.756020,-0.271053,0.002793,0.008243,-0.013023
61296,9.479900,-2.782118,-0.317202,-0.003823,0.009518,-0.010273
61297,9.481183,-2.756690,-0.317653,0.000551,0.009390,-0.012129
61298,9.478151,-2.754203,-0.292663,-0.003825,0.009518,-0.010274
61299,9.481836,-2.754609,-0.316188,-0.010004,0.007451,-0.010648
61300,9.460468,-2.778485,-0.341946,-0.012020,0.009584,-0.013013
61301,9.478181,-2.775436,-0.289672,-0.012579,0.009774,-0.006564
61302,9.457661,-2.775305,-0.316352,-0.008376,0.015026,-0.009663
61303,9.499519,-2.773023,-0.260489,-0.012144,0.006433,-0.009688
61304,9.454842,-2.772099,-0.291112,-0.012437,0.008660,-0.007606
61305,9.457601,-2.796903,-0.313493,-0.012067,0.008535,-0.011905
61306,9.453643,-2.818746,-0.287494,-0.003687,0.008408,-0.011313
61307,9.478146,-2.818412,-0.283210,0.000396,0.010510,-0.011084
61308,9.455312,-2.792008,-0.287230,-0.003064,0.005006,-0.016586
61309,9.485060,-2.744173,-0.310189,0.004973,0.000739,-0.009410
61310,9.514520,-2.795338,-0.351983,-0.001410,0.008314,-0.013315
61311,9.486470,-2.816319,-0.328926,0.000361,0.014776,-0.013368
61312,9.464547,-2.765575,-0.333645,0.002709,0.011468,-0.014193
61313,9.416653,-2.762834,-0.339456,0.004911,0.009273,-0.013978
61314,9.465379,-2.762972,-0.331591,0.009208,0.007048,-0.013613
61315,9.459839,-2.734597,-0.283763,0.007073,0.006027,-0.012653
61316,9.487774,-2.735481,-0.303889,-0.001200,0.003984,-0.013181
61317,9.485509,-2.807263,-0.299537,-0.001271,0.007200,-0.014358
61318,9.516941,-2.809327,-0.343549,-0.001344,0.010415,-0.015534
61319,9.483057,-2.802805,-0.273544,0.007406,0.010171,-0.019236
61320,9.459395,-2.800543,-0.275967,0.000710,0.009334,-0.014276
61321,9.460732,-2.774689,-0.276374,0.003136,0.008129,-0.017318
61322,9.512085,-2.800252,-0.291385,-0.001351,0.010414,-0.015535
61323,9.488430,-2.797982,-0.293828,-0.003373,0.012546,-0.017902
61324,9.464851,-2.795487,-0.296031,-0.005508,0.016841,-0.020337
61325,9.444688,-2.794472,-0.322238,0.002759,0.013573,-0.016411
61326,9.420160,-2.816685,-0.323353,0.000849,0.008222,-0.015318
61327,9.446604,-2.865752,-0.340549,0.007687,0.007951,-0.021316
61328,9.476498,-2.916270,-0.381725,0.022056,0.004663,-0.014789
61329,9.451043,-2.864140,-0.362412,0.034805,0.004433,-0.016037
61330,9.497217,-2.838281,-0.331054,0.049606,0.003126,-0.016027
61331,9.475230,-2.787427,-0.335367,0.054001,0.004060,-0.018986
61332,9.473140,-2.760058,-0.310632,0.053837,0.005175,-0.017947
61333,9.466825,-2.755386,-0.260429,0.056430,0.003907,-0.023136
61334,9.465582,-2.703370,-0.237484,0.045776,-0.001207,-0.018338
61335,9.497159,-2.705180,-0.281148,0.043857,-0.001245,-0.020639
61336,9.500162,-2.630167,-0.284045,0.037379,0.004211,-0.022344
61337,9.519841,-2.676053,-0.252434,0.020310,0.005599,-0.020359
61338,9.502340,-2.700954,-0.301766,0.007462,0.007983,-0.019184
61339,9.495986,-2.696138,-0.252440,0.000957,0.012387,-0.019780
61340,9.530274,-2.723746,-0.318666,-0.003525,0.014668,-0.018005
61341,9.526673,-2.744509,-0.291990,-0.009105,0.013429,-0.025944
61342,9.449874,-2.787808,-0.274277,-0.005672,0.018956,-0.020450
61343,9.404880,-2.810580,-0.302603,-0.005443,0.014628,-0.020305
61344,9.451825,-2.759664,-0.273266,0.001144,0.007014,-0.018524
61345,9.455084,-2.783682,-0.295543,-0.004865,0.003807,-0.019945
61346,9.502445,-2.831641,-0.285105,0.003147,0.010204,-0.019556
61347,9.461671,-2.831738,-0.338957,0.011126,0.015553,-0.018056
61348,9.434621,-2.827975,-0.316490,0.017578,0.015417,-0.019751
61349,9.458640,-2.851038,-0.309750,0.030656,0.008720,-0.020772
61350,9.435817,-2.824346,-0.313203,0.032945,0.003321,-0.019364
61351,9.509578,-2.799796,-0.302715,0.045779,0.000955,-0.020529
61352,9.480475,-2.745742,-0.259389,0.041319,0.004280,-0.019869
61353,9.482476,-2.695273,-0.260572,0.028234,0.010973,-0.018855
61354,9.478037,-2.740871,-0.231943,0.019659,0.010081,-0.016201
61355,9.461427,-2.741665,-0.282320,0.015990,0.008873,-0.021842
61356,9.489654,-2.741828,-0.301767,0.015894,0.005729,-0.018506
61357,9.461853,-2.762335,-0.278735,0.022489,0.004481,-0.021236
61358,9.487274,-2.736652,-0.275248,0.021792,0.012158,-0.018276
61359,9.463714,-2.734289,-0.277173,0.020181,0.009878,-0.022652
61360,9.444371,-2.709032,-0.305067,0.011734,0.006818,-0.019924
61361,9.514522,-2.682818,-0.270690,0.009191,0.010187,-0.016966
61362,9.510103,-2.728451,-0.242566,-0.001433,0.010357,-0.015580
61363,9.493465,-2.729526,-0.293297,-0.005704,0.013608,-0.017075
61364,9.464272,-2.798957,-0.267246,-0.007795,0.013628,-0.017228
61365,9.467607,-2.823359,-0.288577,0.002342,0.015763,-0.014389
61366,9.467375,-2.846365,-0.286023,0.009371,0.003769,-0.014586
61367,9.464297,-2.843398,-0.261076,0.017779,0.005788,-0.016199
61368,9.499561,-2.846863,-0.328737,0.028699,0.003391,-0.019655
61369,9.516553,-2.866818,-0.273961,0.040971,0.007607,-0.018889
61370,9.521343,-2.842236,-0.297366,0.051480,0.010656,-0.021463
61371,9.497865,-2.839850,-0.298275,0.057780,0.012697,-0.023231
61372,9.476339,-2.764361,-0.303251,0.065855,0.016955,-0.022775
61373,9.473206,-2.637026,-0.259305,0.075014,0.014438,-0.030681
61374,9.455658,-2.686181,-0.305012,0.040761,0.016120,-0.023510
61375,9.459900,-2.685671,-0.326686,0.049643,0.009490,-0.024804
61376,9.457022,-2.681921,-0.300183,0.047113,0.013908,-0.022971
61377,9.457675,-2.679877,-0.297860,0.043186,0.009614,-0.023117
61378,9.428886,-2.601002,-0.255939,0.043200,0.010660,-0.024234
61379,9.450653,-2.573360,-0.228209,0.019998,0.006727,-0.019319
61380,9.470514,-2.619091,-0.196129,0.004804,0.011311,-0.016266
61381,9.469833,-2.666030,-0.192157,-0.004871,0.004746,-0.021090
61382,9.496941,-2.714797,-0.208734,-0.003328,0.012342,-0.020150
61383,9.500473,-2.739004,-0.230369,-0.005335,0.008104,-0.017990
61384,9.475683,-2.785655,-0.230148,-0.005337,0.008104,-0.017990
61385,9.503953,-2.785852,-0.249993,0.007619,0.004661,-0.020161
61386,9.488117,-2.762604,-0.302807,0.014148,0.001337,-0.020648
61387,9.530932,-2.709326,-0.249920,0.015945,0.004606,-0.019542
61388,9.490865,-2.686069,-0.305868,0.015327,0.009082,-0.015410
61389,9.463062,-2.706867,-0.282514,0.007043,0.011225,-0.018263
61390,9.484666,-2.679501,-0.255394,0.009359,0.005840,-0.016825
61391,9.456840,-2.700294,-0.232957,0.005715,-0.002787,-0.016802
61392,9.533341,-2.701193,-0.246057,-0.002984,0.004799,-0.018789
61393,9.488646,-2.724795,-0.275212,-0.001011,0.007994,-0.019834
61394,9.488626,-2.747429,-0.272883,0.000869,0.007012,-0.016413
61395,9.486082,-2.719650,-0.249800,0.003435,0.004687,-0.020473
61396,9.493266,-2.745612,-0.295912,0.007530,0.001530,-0.016813
61397,9.511218,-2.716547,-0.245202,0.009501,0.004726,-0.017858
61398,9.512255,-2.690435,-0.246152,0.003275,0.005806,-0.019441
61399,9.484485,-2.711157,-0.223663,-0.007358,0.003850,-0.015836
61400,9.464368,-2.711130,-0.250980,-0.001400,0.007098,-0.014420
61401,9.487900,-2.758729,-0.243699,-0.003218,0.002783,-0.014409
61402,9.488835,-2.732929,-0.244834,0.005020,0.006991,-0.016103
61403,9.489303,-2.731375,-0.244056,0.007255,0.005861,-0.016980
61404,9.469220,-2.731316,-0.271023,0.007078,0.005936,-0.014831
61405,9.462513,-2.726241,-0.222065,0.014004,0.004561,-0.021845
61406,9.473384,-2.753893,-0.292099,0.015979,-0.000670,-0.016105
61407,9.494847,-2.726561,-0.265699,0.026828,-0.005122,-0.017307
61408,9.519903,-2.700940,-0.263417,0.022351,-0.002864,-0.015554
61409,9.524884,-2.652476,-0.290450,0.015970,-0.000671,-0.016106
61410,9.519030,-2.598885,-0.245050,0.009300,0.004804,-0.015711
61411,9.543080,-2.622131,-0.239174,-0.012152,0.008331,-0.012023
61412,9.546554,-2.647061,-0.261039,-0.020925,0.012770,-0.010667
61413,9.501345,-2.695770,-0.288292,-0.027249,0.018093,-0.014571
61414,9.447999,-2.789818,-0.263914,-0.019122,0.017088,-0.010680
61415,9.448808,-2.764323,-0.264966,-0.018271,0.006197,-0.012409
61416,9.469757,-2.761362,-0.237078,-0.000799,0.002621,-0.018554
61417,9.494313,-2.760152,-0.233184,0.007140,0.000646,-0.011395
