// Start Time: Unknown
// Update Rate: 100.0Hz
// Filter Profile: human (46.1)
// Firmware Version: 4.3.5
PacketCounter,Acc_X,Acc_Y,Acc_Z,Gyr_X,Gyr_Y,Gyr_Z
24040,9.297405,-3.550366,1.600380,-0.463565,0.072614,-0.003466
24041,9.347114,-3.459908,1.681910,-0.430290,0.070643,-0.003936
24042,9.276382,-3.591068,1.609005,-0.390559,0.061752,0.008374
24043,9.298481,-3.742536,1.421717,-0.301070,0.034610,0.017653
24044,9.359059,-3.716676,1.355481,-0.169569,0.019161,0.018755
24045,9.464383,-3.455524,1.250317,-0.059432,0.007625,0.023559
24046,9.407729,-3.197912,1.047579,-0.002542,0.000748,0.014734
24047,9.363351,-3.091385,0.809280,-0.002731,-0.002544,0.020218
24048,9.353101,-3.270811,0.708205,-0.027624,0.017455,0.026425
24049,9.399968,-3.481231,0.802797,-0.015951,0.046830,0.046273
24050,9.396959,-3.609830,1.113259,0.026716,0.080162,0.060611
24051,9.333940,-3.441560,1.329911,0.051561,0.084692,0.070203
24052,9.330003,-3.241295,1.395872,0.022903,0.093531,0.078035
24053,9.302141,-3.225756,1.411491,-0.085046,0.100195,0.091365
24054,9.350074,-3.643262,1.602444,-0.211756,0.114654,0.112633
24055,9.361248,-4.291063,1.687587,-0.260912,0.132433,0.144339
24056,9.073732,-4.692392,1.720429,-0.094606,0.126054,0.125946
24057,8.943022,-4.378391,1.585670,0.280916,0.028080,0.066940
24058,9.145167,-3.439756,1.473903,0.499908,-0.051653,0.039873
24059,9.235071,-2.685194,1.189075,0.462647,-0.059024,0.027532
24060,9.268417,-2.258996,0.721449,0.306038,-0.073137,0.024356
24061,9.400464,-2.462513,0.179775,0.115340,-0.061207,0.057359
24062,9.580254,-3.308155,0.022154,0.028093,-0.014567,0.118673
24063,9.668111,-4.078537,0.296461,0.052997,0.045300,0.181837
24064,9.594716,-4.394020,0.842909,0.183198,0.110003,0.222073
24065,9.329086,-3.765420,1.330632,0.385310,0.091178,0.221565
24066,9.241554,-2.645510,1.733939,0.333400,0.070269,0.218867
24067,9.241736,-1.926262,2.014158,0.039151,0.098044,0.214279
24068,9.202638,-2.291338,1.994482,-0.435552,0.127819,0.239360
24069,9.093032,-3.221752,1.896699,-0.694078,0.132838,0.269374
24070,9.096156,-4.095747,1.955953,-0.761516,0.105975,0.292140
24071,9.095412,-5.070151,1.763415,-0.670919,0.071990,0.339807
24072,9.064072,-5.876082,1.348998,-0.305138,-0.001203,0.364170
24073,9.106657,-5.739539,1.060170,0.350948,-0.146150,0.377410
24074,9.349179,-4.744552,1.110910,0.747967,-0.259356,0.410627
24075,9.561422,-3.767638,0.922304,0.795402,-0.303728,0.448730
24076,9.696464,-3.203820,0.862698,0.578939,-0.281951,0.508455
24077,9.833780,-3.402813,0.938871,0.226562,-0.213130,0.611951
24078,9.777078,-4.070737,1.212837,0.010078,-0.128799,0.693254
24079,9.627108,-4.736297,1.613953,-0.129109,-0.056497,0.760599
24080,9.293276,-5.156595,1.760743,-0.133767,-0.016763,0.811457
24081,8.913226,-4.978997,1.725645,-0.003014,-0.049306,0.827331
24082,8.748459,-4.592369,1.830041,-0.072589,-0.050314,0.848971
24083,8.702960,-4.846222,1.942458,-0.218955,-0.033108,0.886980
24084,8.687382,-5.504121,2.044759,-0.280318,-0.027495,0.923918
24085,8.754808,-6.306738,1.956101,-0.220190,-0.042713,0.941683
24086,8.777562,-7.038672,1.620802,0.105425,-0.110888,0.977664
24087,8.845380,-7.253993,1.287727,0.644657,-0.222456,0.996227
24088,9.091904,-6.570526,1.220810,1.084213,-0.307553,1.034312
24089,9.207559,-5.520864,1.240794,1.286912,-0.321762,1.071368
24090,9.172992,-4.416865,1.295651,1.268874,-0.312531,1.110721
24091,9.474446,-3.779340,1.196585,0.946770,-0.238340,1.176433
24092,10.026842,-4.074439,1.356598,0.363240,0.049497,1.286816
24093,10.274291,-4.817051,2.037804,-0.074575,0.430964,1.373434
24094,9.499648,-5.021841,3.349739,-0.361663,0.739474,1.426093
24095,8.634807,-4.995456,3.773531,-0.565205,0.754160,1.441663
24096,8.336072,-4.921912,3.285109,-0.643967,0.768597,1.410005
24097,7.905490,-5.185043,2.524176,-0.877087,0.828228,1.394641
24098,7.307801,-5.550570,1.682007,-1.006460,0.781839,1.392250
24099,7.063513,-5.836375,1.344377,-1.030213,0.671275,1.370258
24100,7.048414,-6.483650,1.241028,-1.071743,0.575041,1.338452
24101,7.066230,-7.305161,1.054446,-0.883914,0.462285,1.295759
24102,7.117385,-7.983210,0.646830,-0.406861,0.302190,1.224326
24103,7.348865,-8.150670,0.507365,0.169758,0.167212,1.168646
24104,7.667789,-7.803391,0.699775,0.627868,0.092753,1.139440
24105,7.962595,-7.275794,0.891836,0.966609,0.061791,1.143875
24106,8.196488,-6.649558,1.364614,1.110293,0.086740,1.194213
24107,8.240795,-6.327680,1.771729,0.948326,0.162988,1.278041
24108,8.126411,-6.375427,2.047412,0.678663,0.232176,1.342592
24109,7.951780,-6.670708,2.398626,0.433534,0.276513,1.386002
24110,7.637247,-7.154724,2.568041,0.185737,0.306090,1.417299
24111,7.253194,-7.736729,2.320519,0.071635,0.277919,1.437889
24112,6.923177,-8.454665,2.065408,0.109012,0.215266,1.446662
24113,6.603024,-9.089071,1.748929,0.302430,0.114504,1.460362
24114,6.281469,-9.222524,1.263145,0.725485,-0.065361,1.459131
24115,6.411679,-8.552269,1.335329,1.093031,-0.230648,1.459756
24116,6.618958,-7.772603,1.223787,1.197780,-0.302967,1.473050
24117,6.781967,-7.208665,0.854051,1.175179,-0.347136,1.493535
24118,7.255408,-7.285161,1.225295,0.979965,-0.244729,1.514256
24119,7.432781,-8.106649,1.671116,0.849348,-0.055077,1.543756
24120,7.282979,-8.558590,2.047054,0.947862,0.064127,1.584916
24121,7.210776,-7.979935,2.682114,1.043556,0.202218,1.614683
24122,6.932863,-7.050052,3.173005,0.935378,0.383838,1.631308
24123,6.473461,-6.298223,3.278362,0.624816,0.516527,1.669802
24124,6.093437,-5.795679,3.255080,0.168328,0.593206,1.711592
24125,5.592535,-6.111195,2.739531,-0.448755,0.620282,1.765183
24126,5.304479,-7.396534,2.245328,-0.898004,0.623241,1.811374
24127,5.206617,-8.855041,2.321458,-0.993316,0.587867,1.830017
24128,4.836582,-10.121594,2.398329,-0.738266,0.464664,1.830956
24129,4.530877,-10.943099,2.057955,-0.155737,0.237538,1.795368
24130,4.561871,-11.191726,1.778143,0.546204,0.029607,1.757077
24131,4.520041,-10.738510,1.725026,1.111778,-0.099860,1.728208
24132,4.368325,-9.882300,1.980552,1.494476,-0.214279,1.711470
24133,4.294376,-8.742989,2.368248,1.679314,-0.300522,1.692567
24134,4.119275,-7.615731,2.529380,1.631187,-0.362701,1.679349
24135,4.018955,-6.918486,2.451046,1.286508,-0.364940,1.689478
24136,4.029361,-7.246283,2.550381,0.746804,-0.285747,1.725172
24137,3.930333,-8.428819,2.780959,0.377411,-0.165386,1.744897
24138,3.591457,-9.750557,2.933613,0.294629,-0.091766,1.747310
24139,3.085808,-10.576939,2.849362,0.543265,-0.095491,1.749182
24140,2.594777,-10.321419,2.885200,0.922054,-0.189616,1.734147
24141,2.593599,-9.679444,3.073917,1.020868,-0.271310,1.748727
24142,2.598277,-9.318055,3.160731,0.980233,-0.353245,1.769236
24143,2.572821,-9.149206,3.182040,0.867628,-0.478290,1.790259
24144,2.537096,-9.532746,3.152491,0.734576,-0.605229,1.809160
24145,2.595207,-10.190755,3.179618,0.697687,-0.738358,1.839911
24146,2.849716,-10.750902,3.166969,0.790724,-0.833200,1.862275
24147,2.957025,-10.638805,3.381192,1.052484,-0.894056,1.859857
24148,2.773585,-9.948127,3.442826,1.209161,-0.918769,1.861148
24149,2.555757,-9.027198,3.374807,1.304896,-0.930119,1.864499
24150,2.449776,-8.338829,3.513017,1.218363,-0.881746,1.872586
24151,2.230977,-8.270064,3.621791,0.971867,-0.795752,1.873646
24152,1.996277,-8.637736,3.741923,0.817827,-0.717592,1.872910
24153,1.692831,-9.044695,3.811332,0.789470,-0.647217,1.851789
24154,1.391210,-9.236856,3.806013,0.817938,-0.623149,1.829779
24155,1.223475,-9.321788,3.932976,0.872737,-0.630267,1.821556
24156,1.326983,-9.355014,4.129547,0.912239,-0.664461,1.819223
24157,1.255930,-9.635434,4.082640,0.900226,-0.721323,1.831966
24158,1.086445,-9.898497,3.771901,0.950129,-0.834440,1.847476
24159,1.213891,-9.219661,3.956239,1.038661,-0.945194,1.848232
24160,1.202582,-8.452453,4.203482,0.928444,-0.997556,1.852398
24161,1.086315,-7.942762,4.132673,0.751126,-1.043321,1.847668
24162,0.856545,-7.739510,3.827341,0.603849,-1.068582,1.828533
24163,0.606777,-8.024753,3.334419,0.475026,-1.070181,1.828137
24164,0.510372,-8.463957,3.085614,0.471877,-1.055529,1.805407
24165,0.434402,-8.952538,3.321568,0.524365,-0.982311,1.784233
24166,0.291135,-9.345019,3.945672,0.685111,-0.903545,1.758457
24167,0.111198,-9.105100,4.346215,0.924536,-0.884034,1.711779
24168,0.130916,-8.341436,4.725113,1.076466,-0.872468,1.702193
24169,-0.016043,-7.430553,4.918000,1.068248,-0.862656,1.696886
24170,-0.264912,-7.079851,4.762196,0.783996,-0.891257,1.713786
24171,-0.438051,-7.818201,4.236254,0.400947,-0.934622,1.745376
24172,-0.410187,-8.828622,3.858231,0.244431,-1.030159,1.773681
24173,-0.166960,-9.381899,3.802052,0.333910,-1.151432,1.784715
24174,-0.049487,-9.037086,4.091182,0.568392,-1.231100,1.769279
24175,-0.335017,-8.255032,4.118549,0.648945,-1.290992,1.773634
24176,-0.588019,-7.791481,4.209269,0.611588,-1.312418,1.792510
24177,-0.759904,-7.509210,4.307465,0.555000,-1.301101,1.796208
24178,-0.853422,-7.340337,4.768735,0.559872,-1.271214,1.756684
24179,-0.940072,-7.060335,5.478543,0.604704,-1.211608,1.706946
24180,-1.065754,-6.752512,6.042984,0.649288,-1.140249,1.668669
24181,-1.217546,-6.467789,6.460654,0.684207,-1.069419,1.624335
24182,-1.223275,-6.207828,6.473959,0.628446,-0.980164,1.578473
24183,-1.051928,-6.308267,6.406062,0.530150,-0.871375,1.536611
24184,-0.919279,-6.339002,6.383481,0.499044,-0.786020,1.507696
24185,-1.120231,-6.114603,6.578589,0.546722,-0.722360,1.429221
24186,-1.573502,-5.846769,6.836962,0.511203,-0.715620,1.355527
24187,-1.723202,-6.270178,6.569774,0.165829,-0.760105,1.353402
24188,-1.323692,-7.648148,6.036742,-0.281148,-0.790255,1.400434
24189,-1.025660,-8.970208,5.479443,-0.671268,-0.813328,1.503058
24190,-1.267115,-9.211586,4.991604,-0.825903,-0.889751,1.653907
24191,-1.814659,-8.876803,4.257874,-0.955939,-1.025048,1.780339
24192,-2.364426,-8.964131,3.613697,-1.058748,-1.171899,1.850654
24193,-2.703442,-9.245266,3.075989,-1.034203,-1.335900,1.898671
24194,-2.805110,-9.435045,3.014178,-0.765959,-1.528405,1.927437
24195,-2.736053,-9.469808,3.452720,-0.468180,-1.680254,1.957802
24196,-2.494592,-9.089624,4.169603,-0.029346,-1.758745,1.956507
24197,-2.137337,-8.101013,5.339806,0.408192,-1.765641,1.928156
24198,-1.747912,-6.905952,6.629883,0.707628,-1.705236,1.888653
24199,-1.383714,-5.742179,7.318048,0.766172,-1.613840,1.854477
24200,-1.112162,-4.845935,7.619098,0.647404,-1.482106,1.814280
24201,-1.118918,-4.345346,7.885828,0.347391,-1.327012,1.773749
24202,-1.478468,-4.511776,7.545562,-0.057698,-1.210512,1.720436
24203,-1.891199,-5.373732,7.122251,-0.304311,-1.136900,1.678937
24204,-2.249633,-6.423787,6.562217,-0.388461,-1.113580,1.620403
24205,-2.175370,-6.759123,6.107369,-0.125427,-1.174533,1.535377
24206,-1.968410,-6.226057,6.322340,0.020099,-1.185523,1.480032
24207,-1.925278,-5.305653,6.294077,0.036947,-1.198723,1.424938
24208,-1.869167,-4.430401,6.356311,-0.106016,-1.216117,1.384166
24209,-1.849426,-4.082169,6.662531,-0.449591,-1.169105,1.331062
24210,-1.896635,-4.496591,6.503295,-0.780714,-1.157750,1.268714
24211,-1.902259,-5.413257,5.985403,-0.976624,-1.133954,1.240010
24212,-2.117343,-6.164666,5.592377,-0.938137,-1.110341,1.190106
24213,-2.356538,-6.799858,5.431001,-0.734495,-1.113914,1.138204
24214,-2.332504,-7.101201,5.798208,-0.438716,-1.098011,1.086599
24215,-2.158006,-6.767420,6.544638,-0.190265,-1.056824,1.027910
24216,-1.983522,-6.266366,7.172942,-0.115238,-0.993871,0.992838
24217,-1.939009,-5.734839,7.494906,-0.137020,-0.929054,0.973836
24218,-2.159339,-5.210139,7.365872,-0.344194,-0.892899,0.975868
24219,-2.353361,-5.021532,7.207582,-0.712911,-0.864635,0.999620
24220,-2.683643,-5.223512,6.821573,-1.093048,-0.854074,1.018254
24221,-2.681415,-5.613712,6.800967,-1.376395,-0.878512,0.993623
24222,-2.464739,-5.977146,6.489952,-1.554283,-0.877233,0.946018
24223,-2.304525,-6.488394,6.437490,-1.577311,-0.865496,0.905053
24224,-2.369505,-7.012926,6.399815,-1.355848,-0.847194,0.835398
24225,-2.506696,-7.195258,6.252194,-0.989294,-0.870987,0.761048
24226,-2.515719,-6.833733,6.054574,-0.698299,-0.849914,0.701111
24227,-2.454579,-6.429464,6.279221,-0.574934,-0.773991,0.636321
24228,-2.299985,-6.193471,6.991771,-0.455960,-0.664113,0.533523
24229,-1.981314,-5.995011,7.904067,-0.332725,-0.513722,0.424836
24230,-1.611901,-5.881175,8.687858,-0.164227,-0.339709,0.301849
24231,-1.669367,-5.997860,8.439595,0.057968,-0.173631,0.182528
24232,-1.932199,-6.227157,7.309014,0.286849,-0.094530,0.077216
24233,-2.270460,-6.200327,6.089985,0.474855,-0.057194,-0.040545
24234,-2.615211,-5.455934,5.393167,0.508193,-0.078462,-0.156356
24235,-2.748847,-4.660287,4.996642,0.220932,-0.138201,-0.211685
24236,-2.682732,-4.508429,4.800467,-0.311080,-0.196941,-0.222232
24237,-2.765365,-5.401883,4.530509,-0.830779,-0.213323,-0.203986
24238,-3.022564,-6.529088,4.307393,-1.016618,-0.287386,-0.205663
24239,-2.869021,-7.567589,4.885972,-0.933182,-0.374970,-0.190860
24240,-2.578421,-8.202312,6.113095,-0.743500,-0.357457,-0.145331
24241,-2.297642,-8.475384,7.323945,-0.516986,-0.299664,-0.093891
24242,-1.927121,-8.689647,8.075368,-0.371248,-0.150827,-0.028618
24243,-1.834452,-8.880160,7.956878,-0.242569,0.033940,0.052576
24244,-1.873611,-8.658887,7.210841,-0.065969,0.185556,0.113912
24245,-2.128894,-8.106235,6.456241,0.080795,0.276091,0.157802
24246,-2.537136,-7.578043,5.830234,0.134124,0.297006,0.189343
24247,-3.098319,-7.161201,5.175402,0.145349,0.211652,0.141539
24248,-3.295748,-6.662491,4.790551,0.131975,0.046616,0.057619
24249,-3.261893,-6.344039,5.037537,0.027014,-0.092482,-0.036796
24250,-3.099733,-6.247354,5.845546,-0.005375,-0.203935,-0.158219
24251,-2.869332,-5.917812,6.248366,-0.007121,-0.271751,-0.300942
24252,-2.517891,-5.536244,6.438918,0.011420,-0.276387,-0.475565
24253,-1.810445,-6.081085,7.243360,-0.036419,-0.153877,-0.608123
24254,-1.083825,-7.182630,8.293799,0.117430,0.044622,-0.728441
24255,-0.479569,-7.927485,9.430509,0.473906,0.291256,-0.824735
24256,-0.150812,-8.300763,9.763451,0.782625,0.568097,-0.878060
24257,-0.252819,-8.468821,9.251425,1.041566,0.829568,-0.895200
24258,-0.481184,-8.020699,8.449833,1.262596,1.015502,-0.927153
24259,-0.753745,-7.619613,7.644263,1.316015,1.142045,-0.953266
24260,-1.194053,-7.284174,6.745452,1.329466,1.192433,-1.009479
24261,-1.484496,-6.923675,6.221012,1.221123,1.174860,-1.077306
24262,-1.468757,-6.641401,6.199311,1.109075,1.159408,-1.168029
24263,-1.416326,-6.464689,6.543354,0.987239,1.154424,-1.255419
24264,-1.440302,-6.238093,6.797228,0.934864,1.158477,-1.347599
24265,-1.503713,-5.891235,7.042423,0.946256,1.179160,-1.468442
24266,-1.437894,-5.495571,7.248652,1.021654,1.194132,-1.618505
24267,-1.230375,-5.433329,7.294938,1.086355,1.235396,-1.795224
24268,-0.912476,-6.016437,7.091175,1.124201,1.287980,-1.967941
24269,0.032869,-7.333194,7.234806,1.184392,1.374228,-2.103493
24270,1.036760,-8.659980,7.592889,1.492021,1.515025,-2.248238
24271,1.796565,-9.468144,7.940668,1.663454,1.675276,-2.295314
24272,2.160218,-9.850427,8.018563,1.669649,1.890731,-2.202389
24273,1.378068,-8.781659,7.413904,1.753535,1.986462,-2.192195
24274,0.064252,-7.093255,6.218392,1.745030,1.931834,-2.223906
24275,-1.197383,-6.059616,4.815939,1.584622,1.838633,-2.252109
24276,-1.965594,-6.353820,4.852659,1.305290,1.822487,-2.302882
24277,-2.475921,-7.148470,6.189134,1.421141,1.773261,-2.397047
24278,-2.606987,-7.125743,8.060388,1.793261,1.686004,-2.525090
24279,-2.305886,-5.698755,9.402249,2.077283,1.606620,-2.669235
24280,-1.401215,-3.911678,10.392295,1.969358,1.612608,-2.720170
24281,-0.615425,-2.948955,10.272131,1.248224,1.688853,-2.698284
24282,-0.540652,-3.332236,8.886259,0.195482,1.832408,-2.661227
24283,-1.307080,-4.792129,7.386307,-0.325099,1.851773,-2.660276
24284,-1.913395,-6.309310,6.001272,-0.233957,1.705553,-2.720100
24285,-1.980050,-7.504362,5.529991,0.347823,1.517644,-2.786707
24286,-2.038208,-7.777360,5.984517,1.091105,1.346435,-2.872014
24287,-1.963797,-6.546883,6.623857,1.552148,1.184555,-2.926479
24288,-1.534928,-4.691403,7.613394,1.767482,1.056840,-2.970343
24289,-0.802150,-3.111996,8.548000,1.493815,0.990603,-3.011269
24290,-0.149679,-3.072102,8.459140,0.667609,1.082460,-2.997119
24291,-0.008139,-5.021152,7.759319,-0.020882,1.224895,-2.961111
24292,-0.529037,-7.403274,6.888295,0.059125,1.253641,-2.950708
24293,-0.996487,-8.742285,6.440947,0.912680,1.142550,-2.991872
24294,-1.288205,-7.965382,7.066622,1.803013,0.998427,-3.070054
24295,-1.234396,-6.086330,7.596463,2.269704,0.860426,-3.125881
24296,-0.838059,-3.944875,8.475151,2.355810,0.723429,-3.123452
24297,0.061681,-2.182336,9.666827,1.820255,0.682449,-3.089625
24298,1.014842,-1.678152,10.091537,0.629912,0.748846,-3.008134
24299,1.714493,-3.225684,9.300852,-0.825578,0.963628,-2.861279
24300,1.387505,-5.787124,8.042285,-1.530440,1.145430,-2.785599
24301,0.450568,-8.117620,6.531783,-1.108321,1.079065,-2.799984
24302,0.032698,-9.437303,6.080805,-0.126173,0.938818,-2.786219
24303,0.002359,-9.743665,6.495806,0.762464,0.864808,-2.770237
24304,0.165914,-9.093938,7.381825,1.508553,0.821587,-2.749593
24305,0.382745,-7.746738,8.364007,2.001257,0.788187,-2.715232
24306,0.725722,-6.156530,9.041463,2.184280,0.789163,-2.671077
24307,1.092537,-4.643060,9.450036,1.929308,0.825223,-2.589258
24308,1.474449,-3.695021,9.403002,1.246573,0.909080,-2.473867
24309,1.724930,-3.682812,9.423829,0.392888,1.026424,-2.380556
24310,1.805105,-5.141588,9.323686,-0.340772,1.135960,-2.279652
24311,1.740548,-7.172028,9.281909,-0.636519,1.203928,-2.214905
24312,1.447152,-8.866793,9.065181,-0.257102,1.207456,-2.193556
24313,0.699797,-8.892171,8.492412,0.488811,1.026791,-2.139563
24314,0.796990,-7.791914,8.489993,0.867670,0.881879,-2.027212
24315,0.600139,-6.258482,8.193601,0.989892,0.804817,-1.952163
24316,-0.325703,-3.981633,6.545275,1.142184,0.514137,-2.002732
24317,0.071334,-2.730369,5.882118,1.007164,0.305073,-2.037718
24318,0.989895,-3.555159,6.597743,0.368922,0.466965,-1.997290
24319,0.985231,-5.352324,7.002876,0.206749,0.585776,-1.974253
24320,0.763441,-6.064861,8.065419,0.799591,0.516518,-1.992288
24321,0.666625,-4.709020,9.465696,1.106646,0.517711,-2.018442
24322,0.465846,-3.030266,9.858965,1.047537,0.492314,-2.032459
24323,0.830941,-2.006640,9.774077,0.677379,0.468853,-2.023996
24324,1.325689,-2.262387,9.308302,-0.076393,0.578282,-2.003888
24325,1.428253,-3.751342,8.773377,-0.505449,0.668191,-1.982413
24326,1.450226,-5.055965,8.594670,-0.389225,0.667997,-1.983779
24327,1.445096,-5.383155,8.635345,0.004371,0.631036,-2.006865
24328,1.439659,-4.735221,8.875846,0.228556,0.591294,-2.014104
24329,1.828695,-3.976864,9.440232,0.220229,0.583253,-1.998504
24330,2.087017,-3.431472,9.897654,0.015020,0.626876,-1.976990
24331,2.242293,-3.742591,9.925864,-0.390917,0.697072,-1.938202
24332,2.089917,-4.462522,9.476552,-0.548574,0.757906,-1.914694
24333,1.402954,-4.145452,8.295811,-0.412554,0.698032,-1.955129
24334,1.280224,-3.719802,7.718314,-0.292859,0.600123,-1.987046
24335,1.729865,-4.198974,8.099368,-0.312571,0.617387,-1.971125
24336,2.141901,-5.145736,8.465474,-0.285471,0.646421,-1.938179
24337,2.221100,-5.919636,8.858603,-0.152007,0.703661,-1.911969
24338,1.892638,-5.858432,9.480062,0.148982,0.714686,-1.905702
24339,1.468841,-5.026199,9.462185,0.347262,0.656555,-1.897380
24340,1.428700,-4.279617,8.861479,0.352150,0.576942,-1.886533
24341,1.421489,-3.710228,8.877498,0.227066,0.539929,-1.879140
24342,1.108421,-3.462488,8.764954,-0.020669,0.453075,-1.898341
24343,1.049606,-3.842376,8.929553,-0.270974,0.313422,-1.914499
24344,1.648338,-4.306844,9.522683,-0.392977,0.196433,-1.909260
24345,2.348862,-4.984756,9.978840,-0.387087,0.187240,-1.889706
24346,2.175254,-5.584517,9.494399,-0.117547,0.200432,-1.918450
24347,1.255009,-4.871705,7.576203,0.538441,0.024979,-2.024263
24348,1.359706,-4.030641,6.627091,1.063715,-0.165840,-2.099448
24349,2.272491,-3.900565,6.574069,1.336343,-0.177285,-2.082439
24350,3.179706,-3.935378,7.462603,1.540952,-0.039411,-2.022956
24351,3.285739,-2.974556,8.647357,1.682198,0.114328,-1.968277
24352,2.803080,-1.414262,9.912054,1.542944,0.216422,-1.944976
24353,2.678232,-0.078688,10.951015,1.015712,0.293607,-1.939773
24354,3.083564,0.277810,11.349991,-0.026634,0.401843,-1.920087
24355,3.290731,-1.045036,10.298118,-1.107414,0.547383,-1.883382
24356,3.053382,-3.027011,9.206691,-1.591431,0.621504,-1.844845
24357,2.631517,-4.699986,8.428465,-1.479468,0.619654,-1.804495
24358,2.336548,-5.393946,8.209570,-0.837164,0.523887,-1.771569
24359,2.628097,-4.767988,9.103291,-0.323734,0.449327,-1.790389
24360,2.922116,-4.000265,9.642334,-0.168987,0.476638,-1.801305
24361,2.909695,-3.535423,9.629915,-0.127246,0.479630,-1.799448
24362,2.858412,-3.549598,9.289307,-0.181758,0.505861,-1.792025
24363,2.570134,-3.401934,9.063090,-0.077980,0.508774,-1.811936
24364,2.237219,-2.783321,8.587229,0.083366,0.458671,-1.880960
24365,2.508786,-2.389638,8.468530,0.109328,0.415138,-1.899903
24366,2.959773,-2.501088,8.692819,-0.072912,0.476660,-1.879325
24367,3.114188,-3.019960,8.663293,-0.138043,0.535160,-1.884726
24368,2.895137,-3.152994,8.839547,-0.091167,0.561083,-1.881518
24369,2.609866,-2.690577,9.084273,-0.040877,0.538607,-1.887702
24370,2.908700,-2.256166,9.524450,-0.132973,0.537231,-1.870611
24371,3.176570,-2.217943,9.965117,-0.418579,0.599948,-1.831592
24372,3.374498,-2.662810,10.238856,-0.792047,0.671963,-1.771736
24373,3.568394,-3.365122,10.411150,-1.072525,0.740059,-1.701958
24374,3.425854,-3.980050,11.024025,-1.235702,0.814902,-1.641030
24375,2.685871,-4.611860,10.883164,-1.301602,0.813047,-1.564860
24376,2.183808,-5.733596,10.509047,-1.141965,0.767529,-1.524650
24377,1.765032,-6.547754,9.248342,-0.506661,0.644194,-1.562399
24378,1.974689,-6.141422,8.524019,0.368837,0.435547,-1.614912
24379,2.316034,-5.146039,8.071614,0.861120,0.349931,-1.622105
24380,2.325167,-3.709137,7.317421,1.257225,0.225507,-1.655479
24381,3.091568,-2.488269,7.787654,1.337150,0.230229,-1.603815
24382,3.482853,-1.792196,9.063795,0.941645,0.436506,-1.492440
24383,3.166367,-1.331735,9.861682,0.344028,0.604619,-1.411059
24384,2.886554,-1.011527,10.385246,-0.118688,0.679610,-1.364372
24385,2.566370,-0.913726,10.509996,-0.699299,0.710610,-1.333690
24386,2.294352,-1.729699,9.672887,-1.333393,0.720185,-1.299022
24387,2.203188,-3.085113,9.218540,-1.648380,0.710320,-1.280728
24388,2.322985,-4.434950,9.249039,-1.605438,0.692432,-1.282713
24389,2.399532,-5.608979,8.910576,-1.282766,0.651054,-1.248807
24390,2.351091,-6.014976,8.617977,-0.665128,0.598647,-1.210441
24391,2.258510,-5.259130,8.782551,-0.118890,0.544424,-1.183076
24392,2.107166,-4.510894,8.900067,0.120208,0.520363,-1.127729
24393,2.131925,-4.149149,9.416049,0.171492,0.510550,-1.040335
24394,2.182688,-3.989765,9.494684,0.108004,0.488623,-0.964368
24395,1.812293,-3.428408,8.542685,0.103137,0.405784,-0.919419
24396,1.710165,-2.457646,7.462115,0.143036,0.251459,-0.891309
24397,2.211391,-2.166233,7.663710,-0.307776,0.268894,-0.776966
24398,2.191784,-3.040155,7.857399,-0.855239,0.401772,-0.687335
24399,1.865607,-4.159543,7.926371,-0.938712,0.379531,-0.587366
24400,1.990955,-4.776845,8.283444,-0.813440,0.378143,-0.501384
24401,1.729451,-4.295072,8.726120,-0.674880,0.372123,-0.466096
24402,1.708811,-3.244982,8.576858,-0.822215,0.302517,-0.417364
24403,2.009369,-2.116227,8.747179,-1.107376,0.314636,-0.393368
24404,2.245813,-1.444840,9.152491,-1.597789,0.353832,-0.402371
24405,2.530118,-2.261224,9.149306,-2.307629,0.462348,-0.376088
24406,2.207595,-4.379404,8.864294,-2.766550,0.581443,-0.296008
24407,1.490855,-6.499999,8.581807,-2.610832,0.578163,-0.260985
24408,0.944333,-8.145869,8.520290,-1.851308,0.445161,-0.262036
24409,0.559563,-9.114743,7.791776,-0.855489,0.252188,-0.227530
24410,0.596588,-8.446655,7.396069,0.338401,0.052302,-0.253921
24411,0.916818,-6.422090,7.181418,1.079246,-0.157518,-0.249339
24412,1.684602,-4.479490,7.664110,1.324005,-0.251320,-0.172739
24413,1.896351,-2.765258,7.702817,1.074718,-0.271397,-0.137574
24414,2.172753,-2.140459,7.737342,0.306561,-0.209056,-0.072044
24415,2.082895,-3.276922,7.635000,-0.500702,-0.056023,0.006258
24416,1.700195,-5.197975,7.886221,-0.718456,0.024890,0.057968
24417,1.284260,-6.759712,8.122395,-0.400736,0.004948,0.080737
24418,0.985843,-7.326702,8.453207,0.206435,-0.090124,0.091739
24419,1.038434,-6.492447,8.695533,0.641192,-0.213332,0.121666
24420,1.318010,-5.364700,9.030383,0.747480,-0.291785,0.200101
24421,1.531087,-4.786221,9.324869,0.478956,-0.346266,0.336462
24422,1.644749,-5.107818,9.104318,0.104253,-0.390312,0.504460
24423,1.870394,-5.607100,9.235097,0.029128,-0.437311,0.646552
24424,2.037942,-5.818241,9.429264,0.119415,-0.445672,0.681945
24425,1.827652,-6.257829,9.114545,0.167773,-0.416889,0.717268
24426,1.676728,-6.506447,8.853116,0.351418,-0.433110,0.722567
24427,1.662784,-6.381988,8.782058,0.591382,-0.431126,0.683832
24428,1.549212,-5.732575,8.602144,0.838028,-0.439873,0.635592
24429,1.616747,-5.029942,8.393777,0.958488,-0.476587,0.617849
24430,2.025169,-4.683241,8.572572,0.992838,-0.448038,0.612419
24431,2.214567,-4.819467,8.910901,0.999482,-0.382771,0.655451
24432,2.250987,-4.879900,9.090361,1.066396,-0.344081,0.711656
24433,2.201740,-4.614419,9.236319,1.094467,-0.318162,0.785649
24434,2.104693,-4.202675,9.288242,1.033842,-0.336858,0.886390
24435,2.094489,-4.048137,9.308386,0.770760,-0.378218,1.031678
24436,2.137483,-4.698707,9.057596,0.361035,-0.439571,1.234332
24437,2.267609,-5.557033,8.722528,0.129862,-0.529232,1.448298
24438,2.580061,-6.055166,8.527800,0.158473,-0.659304,1.654609
24439,2.968628,-6.021893,8.524862,0.294588,-0.788915,1.857998
24440,3.321660,-5.792815,8.378921,0.388152,-0.883229,2.066134
24441,3.540703,-5.670749,8.238275,0.440107,-0.955090,2.264524
24442,3.708142,-5.538700,8.008141,0.462958,-1.021886,2.437722
24443,3.904189,-5.336462,7.888506,0.467957,-1.061414,2.575171
24444,3.954791,-4.986298,7.763689,0.451821,-1.077796,2.681427
24445,3.963414,-4.550577,7.460906,0.438117,-1.096803,2.755327
24446,3.805316,-4.247480,6.863147,0.319313,-1.099130,2.818346
24447,3.760187,-4.478176,6.887943,0.168466,-1.040234,2.854185
24448,3.342203,-4.878727,7.146977,0.229489,-0.969957,2.842531
24449,2.924484,-5.003562,7.735495,0.396786,-0.952682,2.815093
24450,3.030002,-4.776778,8.246388,0.660573,-0.916028,2.752803
24451,3.232042,-3.918308,8.679782,0.948849,-0.811623,2.640352
24452,3.153031,-2.602915,8.892357,1.337087,-0.653159,2.454940
24453,2.109962,-1.025307,8.183137,1.731070,-0.484012,2.200659
24454,0.463452,0.235770,7.890832,1.686032,-0.383279,1.955495
24455,-0.161769,0.442448,8.853206,1.171131,-0.449969,1.715554
24456,0.867496,-0.728778,9.244296,0.793525,-0.534742,1.535069
24457,1.798194,-1.972364,9.710623,0.742361,-0.544345,1.425154
24458,2.200386,-2.958699,10.296734,0.678451,-0.587116,1.397646
24459,2.613350,-3.602814,10.347036,0.730802,-0.672218,1.449995
24460,2.911204,-3.009208,9.905321,0.946191,-0.788211,1.528654
24461,3.185711,-1.749283,9.324703,0.958819,-0.890882,1.614649
24462,3.433018,-1.010490,8.677598,0.732114,-0.951138,1.707342
24463,3.777937,-1.469504,8.312193,0.198256,-0.877098,1.831089
24464,3.997633,-2.968350,8.269526,-0.211064,-0.753528,1.934277
24465,4.140518,-4.557910,8.755994,-0.325408,-0.635690,2.026504
24466,4.201594,-5.557355,9.655760,-0.007620,-0.568101,2.110345
24467,3.898556,-5.009317,10.561183,0.529570,-0.565527,2.152632
24468,3.383374,-3.816583,10.459985,0.594178,-0.552342,2.208323
24469,2.955893,-2.941041,10.312781,0.455220,-0.532423,2.272542
24470,2.811901,-2.627706,10.373900,0.083129,-0.526120,2.317767
24471,2.988740,-3.370559,10.224262,-0.371653,-0.498881,2.389264
24472,3.012383,-4.222034,9.956018,-0.426045,-0.523721,2.413872
24473,2.827982,-4.508814,9.404989,-0.194093,-0.598053,2.392300
24474,2.742156,-4.111732,9.135366,0.068923,-0.646500,2.391051
24475,2.745295,-3.519314,9.152033,0.205428,-0.648300,2.378806
24476,2.507921,-2.892874,9.113138,0.192155,-0.634530,2.376379
24477,2.491715,-2.488686,9.117371,0.023462,-0.636514,2.373358
24478,2.842663,-2.605253,9.568745,-0.206158,-0.573869,2.385259
24479,2.818892,-3.043423,9.913023,-0.338364,-0.497686,2.379297
24480,2.644435,-3.568837,9.912947,-0.371941,-0.450820,2.360705
24481,2.345986,-4.104217,9.664155,-0.292999,-0.427607,2.334162
24482,2.266602,-4.118375,9.550888,-0.105917,-0.426200,2.305585
24483,2.367591,-3.602153,9.614801,-0.020036,-0.427703,2.275862
24484,2.501833,-3.147071,9.615991,-0.081682,-0.431343,2.270073
24485,2.486240,-3.103556,9.684281,-0.296595,-0.417405,2.284405
24486,2.455517,-3.598769,9.526447,-0.510730,-0.420633,2.316232
24487,2.422472,-4.149159,9.396310,-0.616039,-0.430147,2.325250
24488,2.483538,-4.587252,9.345180,-0.618409,-0.461645,2.332710
24489,2.603641,-4.854624,9.324417,-0.581623,-0.472888,2.353799
24490,2.430783,-4.894248,9.225571,-0.549238,-0.474610,2.371353
24491,2.163945,-4.860193,8.841457,-0.518392,-0.505303,2.393093
24492,2.115609,-4.776216,8.803300,-0.451077,-0.532128,2.406187
24493,2.032006,-4.666655,8.829170,-0.425982,-0.543249,2.417249
24494,1.901785,-4.550527,9.083296,-0.399466,-0.527169,2.414237
24495,1.622911,-4.532887,9.011148,-0.395421,-0.527712,2.400784
24496,1.419619,-4.452333,8.815072,-0.404122,-0.543164,2.395146
24497,1.231706,-4.394494,8.370337,-0.430734,-0.565095,2.395647
24498,1.244094,-4.612687,8.044681,-0.482666,-0.596171,2.393811
24499,1.173219,-5.050821,7.845324,-0.507842,-0.590837,2.385910
24500,1.048194,-5.451467,8.046898,-0.402672,-0.612032,2.369448
24501,1.112617,-5.819295,8.395943,-0.211656,-0.644129,2.357769
24502,1.286949,-5.791020,8.831156,0.014285,-0.655369,2.347450
24503,1.295299,-5.274921,9.206835,0.195117,-0.666107,2.334718
24504,1.121401,-4.633956,9.129516,0.251632,-0.694121,2.327700
24505,1.047631,-4.174109,8.826269,0.162180,-0.709422,2.349721
24506,0.821436,-3.818573,8.549991,0.042778,-0.721020,2.351909
24507,0.596973,-3.834207,8.495670,-0.197276,-0.756433,2.360527
24508,0.709673,-4.501054,8.458159,-0.410998,-0.780697,2.383623
24509,0.765148,-5.106788,8.274965,-0.498294,-0.819191,2.403271
24510,0.710496,-5.437514,8.335304,-0.407976,-0.870528,2.385191
24511,0.609204,-5.417048,8.442333,-0.282849,-0.918579,2.352977
24512,0.622881,-5.315775,8.378660,-0.160039,-0.939402,2.313304
24513,0.558005,-4.947309,8.085557,0.004034,-0.955455,2.269807
24514,0.520774,-4.569439,7.832031,0.111703,-0.979113,2.229463
24515,0.543930,-4.673290,7.578588,0.165487,-0.947676,2.213373
24516,0.436176,-4.763967,7.603659,0.404065,-0.903182,2.176714
24517,0.136711,-4.501478,7.855188,0.699055,-0.845629,2.130676
24518,-0.235479,-3.763436,8.025469,1.008544,-0.763803,2.077330
24519,-0.684520,-2.861120,8.105764,1.225477,-0.693035,1.998754
24520,-0.776569,-1.912486,8.381492,1.248710,-0.654746,1.903982
24521,-0.550994,-1.195499,8.602054,1.105815,-0.633698,1.804802
24522,-0.323512,-0.763830,8.631000,0.735400,-0.609549,1.733751
24523,-0.242928,-0.907843,8.651936,0.250961,-0.582897,1.671121
24524,-0.293973,-1.353864,8.500335,-0.151420,-0.588945,1.619665
24525,-0.154630,-2.081175,8.921478,-0.493462,-0.616926,1.573222
24526,0.122633,-2.990340,9.198607,-0.844709,-0.637546,1.554447
24527,0.342665,-4.004916,9.223101,-1.118440,-0.660887,1.573043
24528,0.668546,-5.018793,9.002780,-1.342067,-0.680227,1.638842
24529,0.635224,-5.731462,8.462586,-1.326365,-0.712505,1.654672
24530,0.673172,-5.987505,8.031186,-1.004157,-0.804903,1.597647
24531,0.649022,-5.965334,7.819872,-0.752111,-0.855404,1.560896
24532,0.569750,-6.181249,7.698838,-0.619076,-0.890443,1.582378
24533,0.465309,-6.501475,7.836709,-0.552166,-0.912296,1.638071
24534,0.278355,-6.648648,8.102485,-0.520370,-0.892150,1.696476
24535,0.187190,-6.495765,8.595499,-0.487405,-0.863722,1.714775
24536,0.291908,-5.898016,9.266620,-0.459860,-0.811478,1.711737
24537,0.324757,-5.187951,9.650472,-0.454578,-0.778289,1.683083
24538,0.426304,-4.817242,9.611731,-0.608062,-0.737737,1.678082
24539,0.366048,-4.877216,9.317281,-0.756712,-0.695151,1.682926
24540,0.222338,-5.022688,8.900990,-0.905931,-0.679600,1.683286
24541,0.060374,-5.251093,8.593616,-1.040485,-0.682868,1.702339
24542,-0.245035,-5.679632,8.407587,-1.167081,-0.688247,1.717762
24543,-0.383085,-6.383784,8.170064,-1.305335,-0.711431,1.766098
24544,-0.393450,-6.971254,8.102321,-1.227383,-0.761126,1.759924
24545,-0.321418,-7.165695,8.049028,-1.009069,-0.846740,1.735752
24546,-0.209043,-6.879684,8.088430,-0.731902,-0.899316,1.698701
24547,-0.090349,-6.236377,7.972984,-0.552770,-0.933726,1.661834
24548,-0.014089,-5.987805,7.828214,-0.460859,-0.941424,1.672873
24549,-0.123805,-6.236194,7.561382,-0.408441,-0.934037,1.713359
24550,-0.415570,-6.638954,7.178602,-0.280641,-0.935371,1.755102
24551,-0.579415,-6.884196,7.082114,-0.091878,-0.931959,1.778946
24552,-0.501579,-6.484905,7.379044,0.155977,-0.902857,1.761872
24553,-0.140645,-5.496954,8.238334,0.360955,-0.865631,1.696926
24554,0.190753,-4.062603,9.064387,0.456013,-0.819307,1.638947
24555,0.345124,-2.619977,9.740508,0.274657,-0.746468,1.588717
24556,0.301414,-1.671553,10.086827,-0.290738,-0.618926,1.561774
24557,0.068905,-1.915672,9.822408,-1.152665,-0.444013,1.530909
24558,-0.334272,-3.273698,9.054618,-1.718754,-0.327116,1.478478
24559,-0.435635,-5.125433,8.632727,-2.010819,-0.263764,1.408809
24560,-0.469171,-6.905903,8.046608,-1.926721,-0.235037,1.357616
24561,-0.626226,-7.920214,7.863027,-1.374247,-0.291745,1.282578
24562,-0.581722,-7.567326,7.991317,-0.892217,-0.355873,1.218197
24563,-0.671027,-6.613760,8.057523,-0.690359,-0.360598,1.164120
24564,-0.722408,-5.533347,8.020516,-0.633782,-0.377338,1.120702
24565,-0.721985,-4.665999,8.091987,-0.843315,-0.337732,1.069580
24566,-0.868038,-4.364300,7.964211,-1.230292,-0.299933,1.000357
24567,-0.862775,-4.941893,7.328634,-1.492891,-0.298441,0.926460
24568,-0.936267,-5.861206,6.666512,-1.592057,-0.282690,0.868331
24569,-1.076723,-6.792010,6.329221,-1.492073,-0.254809,0.795661
24570,-1.194234,-7.226645,6.551932,-1.140066,-0.241373,0.694873
24571,-1.106339,-7.101516,7.469520,-0.805373,-0.182726,0.589685
24572,-1.119690,-6.713258,8.349494,-0.493940,-0.097711,0.481754
24573,-1.097520,-6.348130,8.450306,-0.302098,-0.053561,0.386597
24574,-0.820803,-6.014441,8.052559,-0.149563,-0.001834,0.280418
24575,-0.880601,-5.866006,7.741130,-0.179442,0.076584,0.200989
24576,-1.342574,-6.237946,7.462862,-0.180116,0.144857,0.142277
24577,-1.352923,-6.184811,7.235551,-0.055232,0.139440,0.040475
24578,-0.882327,-5.483275,6.859657,0.013087,0.140929,-0.071563
24579,-0.686782,-4.823044,6.421684,-0.057846,0.176105,-0.175157
24580,-0.788226,-4.615690,6.273443,-0.300082,0.233560,-0.272649
24581,-0.981546,-4.854769,6.134444,-0.482814,0.279386,-0.366052
24582,-1.102698,-5.165134,5.871318,-0.553407,0.292784,-0.473951
24583,-1.034561,-5.379214,5.413831,-0.637062,0.312236,-0.560120
24584,-0.932746,-5.293244,5.130483,-0.693771,0.337952,-0.663136
24585,-0.760808,-5.197485,5.083867,-0.867102,0.378505,-0.751759
24586,-0.689909,-5.588455,5.228253,-1.043664,0.445614,-0.811446
24587,-0.741465,-6.066529,5.337491,-1.131020,0.477772,-0.862233
24588,-0.864636,-6.498164,5.400901,-1.132315,0.504387,-0.897747
24589,-1.152940,-6.494357,5.474392,-0.990403,0.515067,-0.965900
24590,-1.413782,-6.152986,5.433906,-0.901413,0.506088,-1.043496
24591,-1.334858,-6.253070,5.136329,-0.875707,0.534509,-1.107466
24592,-1.164481,-6.396543,5.124267,-0.728165,0.581973,-1.206766
24593,-1.079366,-6.511986,5.307743,-0.620566,0.600361,-1.298826
24594,-1.011539,-6.792554,5.440027,-0.573831,0.587769,-1.326704
24595,-1.064737,-6.479379,5.555593,-0.462796,0.562831,-1.385388
24596,-1.227530,-6.092887,5.825881,-0.494758,0.578277,-1.450370
24597,-1.465085,-5.846884,5.999066,-0.536161,0.609685,-1.520787
24598,-1.483067,-5.477902,6.305296,-0.514711,0.626934,-1.620396
24599,-1.227182,-5.090929,6.448305,-0.434968,0.631081,-1.760284
24600,-1.003692,-4.716185,6.299251,-0.290461,0.639324,-1.945486
24601,-0.917374,-4.561500,6.120769,-0.146134,0.648536,-2.135417
24602,-1.041291,-5.083903,5.687400,-0.254997,0.640217,-2.244855
24603,-0.945038,-6.238322,5.590627,-0.535739,0.649959,-2.240115
24604,-0.961586,-7.204067,5.194049,-0.883018,0.618470,-2.178697
24605,-0.971480,-7.589546,5.005370,-1.027150,0.524706,-2.166157
24606,-1.003883,-7.966513,4.723708,-1.343198,0.453260,-2.075828
24607,-0.763503,-8.375817,4.189824,-1.413322,0.326299,-2.016352
24608,-0.194857,-8.594952,4.256277,-1.267732,0.201995,-1.977116
24609,0.454489,-9.009474,4.342642,-1.102810,0.120559,-1.946916
24610,1.047133,-9.350351,4.410649,-0.812807,0.056672,-1.949907
24611,1.642821,-9.912167,4.422160,-0.638555,0.025716,-1.914567
24612,2.263902,-10.304154,4.020885,-0.568250,0.032665,-1.831108
24613,2.820157,-10.183783,3.957411,-0.532038,0.043949,-1.763354
24614,3.060590,-9.866589,4.082422,-0.713288,0.108808,-1.664391
24615,2.825728,-9.044000,4.333677,-0.852766,0.140952,-1.618459
24616,2.596935,-8.235206,4.399934,-1.098736,0.161400,-1.572509
24617,2.344786,-8.050903,4.181885,-1.334358,0.207166,-1.533849
24618,2.112313,-8.090653,4.085651,-1.434250,0.261253,-1.551634
24619,2.221812,-8.027978,4.139825,-1.404135,0.297356,-1.612130
24620,2.615796,-8.524147,4.025985,-1.467430,0.336796,-1.635999
24621,3.259659,-10.269587,3.227295,-1.706687,0.382317,-1.512554
24622,3.607309,-10.876487,2.163427,-1.404252,0.381662,-1.500668
24623,3.366735,-10.001989,2.108473,-1.066177,0.343306,-1.519001
24624,2.958854,-9.561638,2.618106,-1.114041,0.363648,-1.439960
24625,2.915352,-9.351918,3.360207,-1.169487,0.348819,-1.399116
24626,3.305190,-9.154617,3.982386,-1.287525,0.323361,-1.379233
24627,3.736858,-8.906416,4.516359,-1.341129,0.353132,-1.389961
24628,3.891859,-8.998848,4.248618,-1.449432,0.394185,-1.398399
24629,3.982232,-9.816474,3.757942,-1.429461,0.424047,-1.384697
24630,3.882579,-10.392912,3.492775,-1.194005,0.441132,-1.429797
24631,3.555340,-10.671199,3.400313,-1.021501,0.429866,-1.411825
24632,3.571186,-9.811086,3.481301,-0.776409,0.357758,-1.393165
24633,3.933147,-8.277909,3.718511,-0.723326,0.313014,-1.416529
24634,3.946238,-6.853052,3.884797,-0.958712,0.314057,-1.411753
24635,3.622560,-5.360116,3.366677,-1.294746,0.269264,-1.440462
24636,3.468212,-4.487873,2.382937,-1.717972,0.219904,-1.477932
24637,3.754367,-5.539917,1.384226,-2.396237,0.327334,-1.525780
24638,3.898948,-8.372291,0.604902,-2.751046,0.585658,-1.572737
24639,3.513637,-11.116861,0.061008,-1.921900,0.638777,-1.665717
24640,3.413265,-11.768450,0.734210,-0.433770,0.473611,-1.828408
24641,3.917320,-10.108716,1.693492,0.467801,0.385338,-1.975222
24642,4.267497,-7.702823,2.308988,1.129841,0.278210,-2.098003
24643,4.666244,-5.036327,3.099912,1.291889,0.125991,-2.194751
24644,5.312336,-3.492786,3.401856,0.746234,0.059595,-2.269160
24645,6.013775,-3.323753,3.116700,-0.360507,0.161274,-2.327362
24646,6.208700,-5.046768,2.274159,-1.437566,0.375516,-2.379355
24647,6.273527,-7.948571,1.272018,-2.033116,0.510954,-2.357428
24648,6.446639,-10.786786,0.461067,-1.637987,0.494360,-2.308437
24649,6.872992,-11.473905,1.601226,-0.772645,0.355109,-2.282844
24650,7.661848,-10.522648,2.854676,-0.635687,0.318280,-2.214963
24651,8.214614,-9.438799,3.214058,-0.599522,0.347439,-2.109018
24652,8.221318,-8.815555,3.309376,-0.862869,0.438911,-1.954159
24653,7.976199,-9.170001,2.541957,-1.136755,0.517927,-1.814789
24654,7.727869,-9.471102,2.017881,-1.085858,0.525171,-1.715415
24655,7.251144,-8.979498,1.320821,-0.862145,0.496002,-1.699533
24656,6.588315,-7.455361,0.645155,-0.430053,0.375059,-1.762746
24657,6.308927,-6.087434,0.223348,-0.163303,0.239521,-1.779404
24658,6.340933,-5.297288,0.055527,-0.261258,0.210342,-1.784871
24659,6.710933,-5.535881,0.068781,-0.710333,0.351813,-1.757942
24660,6.977099,-6.870048,0.379914,-1.047174,0.548896,-1.703108
24661,7.393861,-8.046976,0.880187,-1.058606,0.633105,-1.666691
24662,8.146509,-8.105146,1.489862,-0.839265,0.596048,-1.640489
24663,8.809911,-7.211492,1.753111,-0.757710,0.570296,-1.597829
24664,9.119966,-6.663521,1.813856,-0.875308,0.606797,-1.537320
24665,9.140334,-6.501243,2.061157,-1.022859,0.685107,-1.503595
24666,8.719749,-6.853443,2.098283,-1.080296,0.714197,-1.474157
24667,8.390141,-7.268345,1.890668,-0.973801,0.698136,-1.433405
24668,8.107037,-7.206038,1.812380,-0.760841,0.674492,-1.408825
24669,7.949959,-6.491256,1.824214,-0.611270,0.665242,-1.400324
24670,7.917080,-5.579373,1.628953,-0.561061,0.639444,-1.402282
24671,8.094109,-4.893470,1.519758,-0.690145,0.627719,-1.413044
24672,8.320292,-4.538261,1.660290,-1.049359,0.708954,-1.432757
24673,9.016673,-4.616049,2.287956,-1.501177,0.854011,-1.448531
24674,9.953563,-4.886035,2.523085,-1.723423,0.961534,-1.444566
24675,10.632857,-4.690509,2.118349,-1.747825,1.045710,-1.423566
24676,10.641542,-4.164731,1.156135,-1.784982,1.137599,-1.381380
24677,9.909547,-3.449706,-0.208100,-1.924868,1.172287,-1.298895
24678,9.304517,-3.012413,-1.132131,-2.313706,1.161436,-1.202797
24679,9.117550,-3.516856,-1.511915,-2.846768,1.160538,-1.054572
24680,9.052944,-4.766131,-0.733262,-3.127693,1.205386,-0.931367
24681,9.016000,-6.161043,0.506270,-3.142390,1.221226,-0.851850
24682,8.849860,-7.600774,1.142798,-2.699567,1.106622,-0.824432
24683,8.911745,-8.126975,1.524299,-1.647485,0.871228,-0.829810
24684,8.999954,-6.984853,1.909895,-0.792511,0.711473,-0.857714
24685,8.880280,-5.491377,1.793073,-0.351795,0.662828,-0.920203
24686,8.555316,-4.087837,1.778990,-0.155583,0.594194,-0.963978
24687,8.324296,-2.831634,1.697257,-0.299056,0.503610,-1.006451
24688,8.335214,-2.235726,1.656151,-0.846293,0.484183,-1.011741
24689,8.456117,-2.590746,1.633125,-1.544010,0.536442,-0.955229
24690,8.584161,-3.677054,1.708950,-1.848758,0.506242,-0.906576
24691,9.007734,-4.717201,1.856591,-1.871101,0.431800,-0.850440
24692,9.255943,-5.635766,1.590829,-1.570045,0.376675,-0.822564
24693,9.330529,-5.777017,1.545508,-0.922958,0.293197,-0.831565
24694,9.225125,-4.949762,1.569814,-0.420109,0.189966,-0.819464
24695,9.196192,-4.077446,1.397571,-0.219830,0.124241,-0.798813
24696,9.052361,-3.322096,1.244776,-0.176445,0.049813,-0.784533
24697,9.071774,-3.050893,1.108877,-0.321627,-0.022906,-0.758954
24698,9.352252,-3.379184,1.034567,-0.494561,-0.048706,-0.726466
24699,9.623334,-4.002124,1.196867,-0.475004,-0.077428,-0.702657
24700,9.873960,-4.558843,1.368062,-0.344222,-0.103354,-0.678647
24701,9.913027,-4.711601,1.631772,-0.044037,-0.120707,-0.673364
24702,9.887926,-4.207945,1.840316,0.248969,-0.148544,-0.652112
24703,9.889439,-3.553415,1.826767,0.330084,-0.143638,-0.620555
24704,9.869077,-2.967881,1.828908,0.269180,-0.133510,-0.580592
24705,9.918141,-2.665400,1.867425,0.055031,-0.114963,-0.542882
24706,9.959106,-2.712377,1.850894,-0.223551,-0.062894,-0.500890
24707,9.925653,-3.021222,1.851231,-0.382219,-0.039081,-0.461175
24708,9.981463,-3.237191,1.931949,-0.436181,-0.031621,-0.438033
24709,9.983163,-3.448746,1.938111,-0.463319,-0.015356,-0.408509
24710,9.985583,-3.668717,1.851638,-0.437393,-0.019211,-0.387199
24711,10.089286,-3.706602,1.766887,-0.375466,-0.016964,-0.363511
24712,10.146125,-3.673796,1.719972,-0.323046,-0.005092,-0.350690
24713,10.133590,-3.625263,1.623491,-0.267890,0.008801,-0.342451
24714,10.093527,-3.563325,1.568319,-0.228888,0.011835,-0.326625
24715,10.005924,-3.529234,1.523346,-0.184803,0.021830,-0.317392
24716,9.907486,-3.465797,1.525142,-0.134588,0.026313,-0.305060
24717,9.830554,-3.449864,1.498026,-0.086625,0.019708,-0.291474
24718,9.823686,-3.333844,1.487027,-0.056574,0.019346,-0.274231
24719,9.831917,-3.202875,1.482582,-0.029882,0.013629,-0.240505
24720,9.813238,-3.051806,1.483759,-0.030423,0.010741,-0.219236
24721,9.808121,-2.896210,1.523237,-0.052532,0.006852,-0.188489
24722,9.768978,-2.782418,1.458823,-0.104999,0.009383,-0.158576
24723,9.675424,-2.753490,1.474592,-0.159003,0.003571,-0.129322
24724,9.575625,-2.774854,1.438615,-0.188303,0.004513,-0.106581
24725,9.572478,-2.931640,1.419646,-0.205443,-0.003489,-0.084532
24726,9.502843,-3.052615,1.372238,-0.179955,-0.004320,-0.068115
24727,9.515518,-3.075503,1.413165,-0.150520,-0.008827,-0.052147
24728,9.473646,-3.081616,1.349261,-0.119623,-0.016538,-0.027627
24729,9.442054,-2.999237,1.295623,-0.075112,-0.033309,-0.004594
24730,9.454987,-2.779807,1.322599,-0.045810,-0.044831,-0.006339
24731,9.479983,-2.696306,1.308119,-0.068399,-0.036636,0.002848
24732,9.492401,-2.717045,1.224667,-0.095506,-0.036265,0.012878
24733,9.462824,-2.729874,1.232760,-0.081732,-0.024583,-0.001236
24734,9.458013,-2.656795,1.233279,-0.069694,-0.016538,-0.022176
24735,9.514315,-2.547491,1.266487,-0.082774,-0.004484,-0.022508
24736,9.525878,-2.574925,1.218972,-0.107105,0.001451,-0.036369
24737,9.575586,-2.520790,1.235202,-0.108206,0.013913,-0.045934
24738,9.539918,-2.468818,1.193468,-0.139506,0.020941,-0.048468
24739,9.485205,-2.457391,1.119990,-0.175027,0.028597,-0.044956
24740,9.500773,-2.449036,1.157134,-0.203134,0.029681,-0.036696
24741,9.481041,-2.497317,1.247056,-0.232435,0.033968,-0.033241
24742,9.442366,-2.588107,1.212949,-0.252928,0.033789,-0.028868
24743,9.379037,-2.644147,1.334125,-0.222167,0.022888,-0.018294
24744,9.378080,-2.656987,1.271429,-0.216013,0.013343,-0.022963
24745,9.382841,-2.741150,1.293945,-0.183658,0.007696,-0.021753
24746,9.424618,-2.874812,1.264691,-0.129717,-0.004915,-0.027789
24747,9.443070,-2.845204,1.234892,-0.062172,-0.011726,-0.029216
24748,9.490177,-2.813650,1.225749,0.005634,-0.023929,-0.037769
24749,9.485862,-2.736723,1.230286,0.051223,-0.025157,-0.042622
24750,9.491197,-2.698504,1.222674,0.075957,-0.029562,-0.037542
24751,9.552100,-2.669540,1.287508,0.111173,-0.028525,-0.043252
24752,9.558789,-2.619345,1.248233,0.123129,-0.031084,-0.043198
24753,9.558945,-2.624713,1.281634,0.130554,-0.024479,-0.039263
24754,9.550544,-2.580164,1.295361,0.131241,-0.023855,-0.038055
24755,9.544598,-2.513955,1.243563,0.132308,-0.022515,-0.039365
24756,9.538680,-2.446606,1.282956,0.114131,-0.019127,-0.040072
24757,9.562239,-2.368304,1.308836,0.069080,-0.008666,-0.032402
24758,9.511347,-2.320591,1.321505,0.026002,-0.010108,-0.033457
24759,9.497241,-2.324296,1.281660,-0.032495,-0.005396,-0.026604
24760,9.485153,-2.435700,1.242772,-0.084013,0.003690,-0.020253
24761,9.435738,-2.626776,1.230663,-0.104101,0.006603,-0.017661
24762,9.437070,-2.744692,1.171660,-0.079910,0.006160,-0.016169
24763,9.453686,-2.726307,1.176513,-0.038337,-0.002222,-0.022831
24764,9.442001,-2.707810,1.162776,-0.002807,0.003447,-0.027191
24765,9.462422,-2.654700,1.162554,0.007162,0.004338,-0.019941
24766,9.403592,-2.676134,1.189516,0.002875,0.003408,-0.020828
24767,9.416497,-2.690435,1.203157,0.025727,-0.002991,-0.019414
24768,9.422058,-2.643534,1.163862,0.051337,-0.009803,-0.023284
24769,9.391819,-2.664397,1.119136,0.064937,-0.010233,-0.023311
24770,9.456750,-2.721815,1.120956,0.082226,-0.008861,-0.016729
24771,9.428862,-2.720079,1.103133,0.104657,-0.009043,-0.018200
