// Start Time: Unknown
// Update Rate: 100.0Hz
// Filter Profile: human (46.1)
// Firmware Version: 4.3.5
PacketCounter,Acc_X,Acc_Y,Acc_Z,Gyr_X,Gyr_Y,Gyr_Z
25669,9.479751,-2.984246,1.438387,-0.248186,0.028281,0.157931
25670,9.553457,-3.549328,1.635466,-0.389182,0.068993,0.283035
25671,9.680365,-4.300324,1.864810,-0.367544,0.136250,0.470130
25672,9.468258,-5.267739,1.627967,-0.216775,0.203006,0.687630
25673,8.687866,-5.964375,1.254934,0.224779,0.191563,0.674060
25674,7.816242,-5.881937,1.289489,0.968741,-0.226819,0.262097
25675,8.056720,-4.637710,0.825031,1.542614,-0.834805,-0.205931
25676,8.719070,-3.487494,0.011231,1.763713,-1.110305,-0.681910
25677,10.040325,-2.211761,-2.018562,1.650837,-0.901927,-1.092147
25678,11.880166,-0.914227,-2.021512,1.653022,-0.188480,-0.538568
25679,10.937287,-0.528217,1.146686,1.387367,0.147240,0.513691
25680,10.068942,-0.816147,2.734140,-0.084235,0.313080,0.660956
25681,9.810192,-1.586261,2.352188,-1.432110,0.385822,0.747373
25682,9.655265,-2.891236,0.842958,-2.062781,0.414664,1.212046
25683,9.404815,-5.331108,-1.289792,-1.973471,0.803775,1.670785
25684,8.598085,-7.902172,-0.181751,-1.112684,1.290422,1.736052
25685,4.992730,-9.798301,3.344081,0.030434,0.346190,0.814566
25686,7.175435,-7.978825,0.547000,1.262721,-0.999811,-0.020551
25687,9.133533,-6.370861,1.019014,1.941677,-0.945854,0.146813
25688,9.267504,-4.712473,1.316396,2.025767,-0.967117,0.146823
25689,9.560924,-3.558257,1.504331,1.948600,-1.087472,-0.008007
25690,10.177688,-2.557238,1.129639,1.517552,-0.916504,-0.219388
25691,11.003570,-1.424054,0.100049,1.000523,-0.458020,-0.041318
25692,10.801218,-0.676885,0.334089,0.515575,-0.079505,0.593297
25693,9.879004,-0.992893,1.383097,-0.521320,0.061180,1.174762
25694,9.562490,-2.270642,0.793311,-1.664460,0.211388,1.530740
25695,9.630743,-4.403822,-0.354378,-1.739431,0.653198,1.940969
25696,8.921909,-5.969789,1.019771,-1.329244,1.165360,2.107742
25697,6.922247,-7.586610,3.424230,-1.319264,1.062119,1.627618
25698,5.812358,-8.773768,1.167535,-0.705261,-0.118382,0.747704
25699,8.102352,-8.458939,0.066930,0.479171,-0.464194,0.676964
25700,8.202040,-7.521586,0.493794,0.846681,-0.426079,0.785795
25701,8.151091,-6.712771,0.432796,1.202039,-0.675087,0.750778
25702,8.480650,-5.531201,0.831733,1.381739,-0.972504,0.560304
25703,9.413491,-4.848651,0.656437,1.106203,-1.044437,0.485031
25704,9.945730,-4.324331,-0.454534,0.795484,-0.818658,0.519775
25705,10.187972,-3.806368,-0.424288,0.608414,-0.423054,0.851248
25706,9.811049,-3.906651,0.918354,0.179004,0.020951,1.423771
25707,9.204801,-5.118449,1.062807,-0.403227,0.449988,1.815430
25708,8.524586,-6.416314,1.792949,-0.460215,0.862510,1.938287
25709,6.782420,-7.341576,3.848325,-0.279883,0.663444,1.557571
25710,6.814591,-7.055443,3.160598,-0.071998,-0.047106,0.973325
25711,7.994006,-6.757638,1.729575,-0.039299,-0.057815,0.953179
25712,7.755149,-7.208458,0.785967,-0.076062,0.175008,1.127275
25713,6.897060,-7.968372,0.603989,0.152128,0.150984,1.163659
25714,6.465502,-8.281468,0.663587,0.590863,-0.128101,1.035548
25715,7.181369,-7.895282,1.034785,0.975063,-0.358983,0.967820
25716,7.732127,-7.274936,1.191706,1.118736,-0.389425,0.948007
25717,7.856876,-6.392477,1.039962,1.205744,-0.416546,0.882758
25718,7.991938,-5.617824,0.964007,1.132933,-0.399628,0.826377
25719,8.434938,-5.188346,1.247188,0.900226,-0.235095,0.905322
25720,8.583221,-4.881142,1.728121,0.488724,0.076368,1.092494
25721,8.090142,-4.973964,1.769841,-0.079787,0.340296,1.223691
25722,7.620338,-5.579755,1.470603,-0.535482,0.489677,1.310085
25723,7.286368,-6.636831,1.103048,-0.817603,0.533944,1.363211
25724,6.915280,-7.927362,0.523886,-0.832571,0.485367,1.341305
25725,6.633443,-9.085337,0.754911,-0.428239,0.271530,1.240258
25726,6.570866,-9.715283,0.773579,0.060874,-0.045221,1.121898
25727,6.803939,-9.789746,0.191413,0.595129,-0.272240,1.101238
25728,6.976258,-9.040976,0.397654,1.104073,-0.464473,1.091476
25729,7.193196,-7.652437,0.507444,1.286854,-0.637478,1.032470
25730,7.535109,-6.416068,0.626125,1.250913,-0.708766,0.964665
25731,8.061222,-5.766702,0.433942,0.979636,-0.625572,0.977774
25732,8.475009,-5.780672,0.224145,0.690976,-0.342569,1.176869
25733,8.420315,-6.137352,0.783226,0.386986,0.109267,1.480961
25734,7.728091,-6.682412,1.878373,0.003551,0.493408,1.705665
25735,6.602697,-7.201503,3.205443,-0.350843,0.609281,1.719455
25736,5.837974,-7.122309,2.828388,-0.729348,0.347877,1.497995
25737,6.469817,-7.892184,2.030268,-1.140768,0.308865,1.533999
25738,6.084729,-9.608765,0.757501,-1.296792,0.308225,1.640027
25739,5.099232,-11.670690,-0.498761,-0.794444,0.071727,1.604281
25740,4.690297,-12.524051,-1.018890,0.293255,-0.349671,1.433349
25741,5.337388,-11.378033,-0.282835,1.239058,-0.687759,1.381218
25742,6.043155,-9.580307,0.312391,1.690493,-0.845881,1.348008
25743,6.442539,-7.680996,0.900685,1.742265,-0.862556,1.327149
25744,6.477081,-6.350159,1.397716,1.381363,-0.705902,1.345727
25745,6.117392,-5.839251,1.591081,0.801496,-0.439670,1.466365
25746,5.807309,-6.547217,1.976675,0.262929,-0.173690,1.577217
25747,5.331259,-7.523582,2.406161,-0.113418,0.024987,1.646990
25748,4.810819,-8.531965,1.870843,-0.406510,0.096797,1.656093
25749,4.451658,-9.305749,1.351866,-0.432390,0.127447,1.675679
25750,4.058559,-10.124523,1.144884,-0.344919,0.061347,1.659954
25751,3.587801,-11.277923,0.054218,-0.111151,-0.125847,1.606041
25752,3.159150,-12.501085,-0.847418,0.539085,-0.449371,1.562420
25753,3.342445,-12.653024,-0.962021,1.361285,-0.882234,1.470763
25754,4.101355,-11.486417,-0.616743,1.945820,-1.199210,1.447250
25755,4.637204,-9.829051,0.316417,2.157711,-1.389583,1.451991
25756,5.267387,-8.914656,1.398700,1.952992,-1.399989,1.493209
25757,5.387794,-8.821744,1.758148,1.569432,-1.234202,1.559246
25758,4.856144,-8.898222,1.728025,1.390841,-1.084619,1.612765
25759,4.324876,-8.563016,1.783353,1.280414,-0.960676,1.641765
25760,3.972311,-8.787334,2.276554,1.136088,-0.773037,1.706138
25761,3.502401,-9.378252,2.845093,1.091671,-0.618985,1.742222
25762,2.974279,-9.925711,2.957585,1.167044,-0.532084,1.753231
25763,2.741994,-9.685826,2.843834,1.339745,-0.511445,1.744225
25764,2.661936,-8.804564,2.849194,1.375820,-0.499269,1.734766
25765,2.589682,-7.989031,2.905237,1.217111,-0.481542,1.714980
25766,2.440372,-7.809574,3.272535,0.891111,-0.484153,1.686280
25767,2.198659,-8.278495,3.049493,0.584846,-0.565268,1.635762
25768,2.030548,-9.062169,2.927494,0.479298,-0.698094,1.588064
25769,1.983842,-9.955727,2.763082,0.499579,-0.878128,1.549591
25770,2.204583,-10.887847,2.675348,0.647246,-1.010556,1.550027
25771,2.368586,-11.306105,2.668750,1.108926,-1.048038,1.513505
25772,2.281810,-10.161459,2.342250,1.381122,-1.038258,1.469210
25773,2.137638,-8.718037,1.881367,1.624601,-1.036867,1.427030
25774,2.503247,-7.452970,2.224537,1.647941,-0.929761,1.388085
25775,2.613813,-7.156373,3.088002,1.403779,-0.680778,1.415154
25776,2.357444,-7.285409,4.045226,1.081245,-0.449921,1.448586
25777,1.739455,-7.216959,4.490595,0.669310,-0.253726,1.496055
25778,1.150985,-7.225266,4.406206,0.202588,-0.136236,1.511629
25779,0.708681,-7.762253,4.723548,-0.145423,-0.064608,1.481304
25780,0.356919,-9.674840,3.668215,-0.410556,-0.153296,1.443472
25781,0.032844,-12.738050,1.516853,-0.081300,-0.352170,1.463093
25782,-0.571960,-14.620368,0.024176,1.120817,-0.703831,1.360834
25783,-0.007884,-13.010912,1.032472,2.477567,-1.060228,1.219856
25784,0.810989,-9.522623,2.566201,3.002648,-1.201537,1.201376
25785,1.281219,-6.445711,3.702951,2.863918,-1.206179,1.174585
25786,1.576619,-4.495639,4.539069,2.134492,-1.059073,1.169783
25787,1.544291,-4.187819,5.010390,0.907741,-0.795299,1.258889
25788,1.181792,-5.971143,4.442013,-0.101473,-0.543766,1.320228
25789,0.653573,-8.479808,4.280110,-0.225691,-0.370263,1.394439
25790,-0.169405,-10.076817,4.479736,0.073270,-0.302775,1.416585
25791,-0.516318,-10.425026,5.154600,0.466276,-0.275811,1.398311
25792,-0.587511,-10.299788,5.452599,0.660327,-0.271462,1.409055
25793,-0.618466,-10.349578,4.536805,0.792632,-0.352084,1.426188
25794,-0.489650,-10.084583,3.522767,0.930899,-0.478141,1.456674
25795,-0.418391,-9.360149,3.519826,0.974083,-0.570914,1.494515
25796,-0.376136,-8.578272,4.182648,0.797687,-0.644745,1.523082
25797,-0.332201,-8.567838,4.847879,0.459653,-0.669171,1.554886
25798,-0.863267,-9.707052,3.739475,0.231538,-0.751533,1.594856
25799,-1.244742,-10.669998,2.589134,0.512677,-0.938409,1.630762
25800,-1.519680,-10.055847,2.420836,1.102095,-1.166537,1.583034
25801,-1.039658,-8.156174,3.375850,1.377737,-1.342259,1.567148
25802,-0.532068,-6.765703,4.584047,1.203900,-1.282871,1.611603
25803,-0.549157,-6.395374,6.276784,0.723073,-1.046611,1.667645
25804,-0.915562,-7.141082,6.766220,0.242789,-0.821364,1.706847
25805,-0.894425,-7.562665,6.992813,0.254182,-0.666603,1.738667
25806,-0.716095,-6.412614,7.260263,0.303005,-0.521091,1.763220
25807,-1.124910,-4.992404,6.812832,0.104660,-0.391227,1.764889
25808,-1.940075,-3.980345,6.466098,-0.346775,-0.276292,1.743332
25809,-2.848528,-4.189396,6.602762,-1.052444,-0.216715,1.686584
25810,-3.386770,-5.904727,5.772422,-1.606290,-0.294080,1.598100
25811,-3.436711,-8.328134,4.076881,-1.466006,-0.510200,1.475095
25812,-3.151750,-9.997107,3.042578,-0.562810,-0.766679,1.334949
25813,-2.822199,-9.737619,3.556789,0.318920,-0.981766,1.227493
25814,-2.561258,-8.729700,3.751347,0.705427,-1.128248,1.159075
25815,-2.429142,-7.462763,3.463300,0.961579,-1.301726,1.095962
25816,-2.024351,-6.390547,3.358117,0.908509,-1.456072,1.062781
25817,-1.629900,-6.505913,3.549788,0.517561,-1.484610,1.118414
25818,-1.765241,-7.205294,3.979836,0.270668,-1.474050,1.184922
25819,-2.288278,-7.984661,4.477686,0.050401,-1.480679,1.258027
25820,-2.446613,-9.072638,4.726759,-0.004728,-1.516071,1.320130
25821,-2.286112,-9.857525,4.893801,0.129023,-1.511109,1.397404
25822,-2.205461,-10.076146,5.089053,0.388598,-1.489233,1.477280
25823,-2.221287,-9.364715,5.210081,0.595365,-1.498885,1.559399
25824,-2.157228,-8.672647,5.638087,0.702626,-1.495200,1.636934
25825,-2.329145,-8.474340,5.876506,0.638078,-1.484314,1.731416
25826,-2.517727,-8.364616,5.941789,0.594046,-1.534246,1.822168
25827,-2.565048,-7.789954,5.889004,0.569499,-1.630082,1.883558
25828,-2.515675,-6.609009,5.830655,0.431413,-1.744033,1.931233
25829,-2.296451,-5.856603,6.196241,0.133730,-1.784649,1.953607
25830,-2.415738,-5.501094,6.415800,-0.225921,-1.785814,1.940121
25831,-2.404586,-5.819126,5.995234,-0.438661,-1.848964,1.881348
25832,-1.858335,-6.299326,5.794968,-0.355780,-1.890201,1.841020
25833,-1.349163,-6.752561,5.844760,-0.215636,-1.866389,1.817932
25834,-0.948383,-6.853355,6.731782,0.101832,-1.776923,1.795225
25835,-0.765955,-6.522182,7.849373,0.415670,-1.661898,1.767952
25836,-0.642586,-5.701951,8.692510,0.774623,-1.546007,1.722825
25837,-0.600686,-4.019083,9.011267,1.077090,-1.439595,1.627397
25838,-0.044894,-2.337059,9.479409,1.052220,-1.287856,1.529929
25839,0.676413,-1.367018,10.802255,0.334003,-0.941534,1.488132
25840,0.335111,-1.730839,11.995886,-1.294435,-0.477648,1.562583
25841,-1.093796,-4.254032,10.302844,-3.172002,-0.082774,1.604838
25842,-2.792586,-9.261380,5.112031,-3.663171,-0.046676,1.651456
25843,-4.063517,-12.942286,0.885155,-1.034084,-0.572961,1.530845
25844,-3.762973,-9.535965,3.478635,0.563358,-0.933366,1.445232
25845,-3.594654,-5.922029,2.347670,0.742272,-1.178181,1.340862
25846,-3.286301,-3.342397,2.086322,1.056993,-1.487648,1.249066
25847,-2.683282,-2.549216,3.478772,0.423741,-1.615505,1.238802
25848,-2.273376,-3.823071,4.402177,-0.691574,-1.582666,1.277144
25849,-1.995338,-6.082612,5.050399,-0.898630,-1.567126,1.297315
25850,-1.760056,-7.388628,6.246608,-0.453988,-1.567157,1.322561
25851,-1.488538,-6.761055,7.438557,-0.161181,-1.493541,1.350596
25852,-1.051962,-5.662093,8.503671,0.025955,-1.369694,1.377553
25853,-1.239252,-4.958489,9.349253,-0.140840,-1.166007,1.424352
25854,-1.973295,-5.709909,8.608248,-0.634329,-0.987825,1.403672
25855,-2.449396,-6.779905,6.551004,-0.412955,-1.004830,1.324294
25856,-2.451551,-5.698438,5.659752,0.360258,-1.195535,1.216474
25857,-1.960755,-3.055216,6.449606,0.773869,-1.306182,1.059916
25858,-1.135899,-1.210800,8.616065,0.865079,-1.332247,0.880912
25859,-0.447829,-0.008310,11.008437,0.129472,-1.186408,0.709997
25860,-0.366076,-0.032989,11.738451,-1.750517,-0.792548,0.593622
25861,-0.677130,-2.383267,10.602505,-3.369345,-0.429481,0.447287
25862,-0.766216,-6.278257,8.582464,-3.551313,-0.155092,0.296186
25863,0.039928,-9.358773,8.194633,-0.677601,-0.090904,-0.079010
25864,-0.355956,-6.394408,12.714865,1.633083,-0.031720,-0.301806
25865,-1.166040,-4.764137,11.411120,0.561071,0.305853,-0.330750
25866,-1.905450,-5.361407,7.764141,-0.020269,0.642521,-0.377233
25867,-2.819377,-5.108454,6.811689,0.554734,0.571470,-0.504521
25868,-2.435143,-3.987010,7.057640,0.251880,0.504569,-0.580758
25869,-2.353069,-3.950681,5.742567,-0.538402,0.567672,-0.545142
25870,-3.033752,-4.665839,4.711720,-1.049181,0.559164,-0.476950
25871,-3.626213,-5.710638,4.876904,-1.330983,0.482937,-0.456782
25872,-3.895874,-6.313019,5.320521,-1.273430,0.359582,-0.487027
25873,-3.393364,-6.064618,6.040036,-0.946395,0.201427,-0.563538
25874,-2.481827,-5.195162,7.103220,-0.624665,0.157939,-0.635647
25875,-1.564398,-4.703415,8.722543,-0.383140,0.286147,-0.752364
25876,-0.525738,-5.066449,10.969825,-0.144038,0.512367,-0.944931
25877,0.536150,-6.194713,12.817209,0.177172,0.910523,-1.120536
25878,0.813808,-7.450459,13.291088,0.878216,1.333386,-1.311320
25879,0.670047,-6.905785,12.758464,2.000224,1.633653,-1.556011
25880,0.765047,-4.305061,12.172472,2.973455,1.851041,-1.855363
25881,1.180863,-1.456156,11.924415,3.614122,1.993930,-2.224694
25882,1.932485,0.736951,12.422807,3.091910,2.243180,-2.617015
25883,2.623949,1.058237,12.163865,1.003647,2.662779,-2.743156
25884,2.583409,-1.881457,11.429150,-1.475652,3.157293,-2.689608
25885,2.253983,-7.119322,8.975637,-3.026493,3.482419,-2.621676
25886,0.455891,-14.959804,0.611895,-0.761939,3.262319,-2.689022
25887,-1.171281,-14.144551,2.982227,3.372078,2.698329,-2.991845
25888,-1.776777,-8.768598,4.303631,3.720124,2.370886,-3.170099
25889,-1.539249,-4.043856,4.260683,4.359722,2.037550,-3.329638
25890,-0.859000,-0.771714,6.877923,4.100601,1.731370,-3.464716
25891,0.948923,0.340895,10.772075,1.477612,1.859807,-3.435562
25892,1.610629,-2.018320,10.322063,-3.270777,2.496929,-2.911109
25893,0.353680,-10.130241,6.629289,-6.781162,3.077780,-2.388333
25894,-2.662468,-21.001536,-6.840705,-2.106800,2.450882,-2.419108
25895,-3.949210,-17.036773,2.084140,3.066379,1.744195,-2.646779
25896,-3.640890,-10.685886,2.932515,3.360906,1.322019,-2.769386
25897,-1.990890,-5.709244,4.460589,4.939908,0.968610,-2.859236
25898,-0.063608,-1.961858,9.959504,5.432074,0.804739,-3.033716
25899,1.873005,0.236482,13.659884,3.291251,1.120245,-3.116081
25900,2.669340,0.305746,12.773068,-0.604828,1.835318,-2.771581
25901,1.392496,-2.933682,10.845737,-3.337341,2.476741,-2.496742
25902,-0.091157,-7.349414,6.594691,-4.005115,2.720824,-2.408692
25903,-1.409491,-12.603501,2.095043,-0.974305,2.457315,-2.543225
25904,-1.475042,-11.559226,7.944494,1.840220,2.232624,-2.694992
25905,-1.464357,-9.615570,9.497346,1.994150,2.212622,-2.845816
25906,-0.921261,-8.548283,8.421650,2.571936,2.115123,-2.916478
25907,-0.283210,-6.308220,8.234691,3.110624,1.968613,-3.006690
25908,0.488614,-3.582131,7.884510,2.991270,1.871948,-3.093972
25909,0.923174,-1.387819,7.817593,2.479915,1.848752,-3.220565
25910,1.436251,-0.523824,9.609101,1.103538,1.911614,-3.269122
25911,1.680765,-1.943570,10.002157,-1.696487,2.236536,-3.142861
25912,1.472328,-5.882273,8.573838,-4.018804,2.604210,-2.988119
25913,0.278447,-12.412139,2.407141,-2.760132,2.527340,-3.034534
25914,-0.124989,-13.700563,4.324356,1.058114,2.099546,-3.136097
25915,-0.118139,-11.332204,7.942315,1.597434,1.942868,-3.219947
25916,0.145351,-9.848599,6.240997,2.046971,1.824861,-3.250495
25917,0.765164,-7.475537,6.993403,2.682622,1.667631,-3.267409
25918,1.445174,-5.081122,7.965159,2.391711,1.664205,-3.259753
25919,1.777718,-3.376354,8.278689,1.386532,1.766141,-3.265721
25920,1.814110,-2.735850,7.689038,-0.124639,1.950981,-3.235357
25921,1.370728,-4.049508,6.805928,-1.952524,2.235057,-3.110816
25922,0.898585,-7.711975,4.681820,-3.204026,2.382097,-2.952795
25923,0.666501,-13.447221,2.496140,-2.406245,2.371063,-2.778669
25924,0.253730,-15.583545,3.601832,-0.318541,2.175681,-2.713134
25925,-0.192124,-14.456206,4.912122,0.675001,2.026006,-2.600998
25926,-0.165395,-12.047221,5.157550,1.718746,1.837211,-2.508819
25927,0.380112,-8.714928,6.607109,2.333221,1.708503,-2.482103
25928,0.831546,-6.161150,7.537015,2.138170,1.704779,-2.461071
25929,1.027421,-4.790806,8.204745,1.510736,1.746838,-2.466809
25930,1.286916,-4.487978,8.624100,0.685644,1.809820,-2.483039
25931,1.480210,-5.288130,8.067325,-0.037510,1.881157,-2.498407
25932,1.095928,-6.169702,6.761431,-0.188802,1.849825,-2.547933
25933,0.850252,-6.391377,5.668411,0.141161,1.663883,-2.643502
25934,1.236159,-6.509228,6.249385,0.554231,1.514516,-2.682797
25935,1.795411,-7.153273,6.709562,0.637338,1.462715,-2.659155
25936,2.201486,-7.599812,7.251720,0.881562,1.494032,-2.633102
25937,2.179338,-7.322894,8.224401,1.053265,1.557169,-2.625857
25938,1.762973,-6.376468,8.548571,1.088933,1.592986,-2.639258
25939,1.807650,-5.593335,8.706514,0.936915,1.619758,-2.665323
25940,2.174158,-5.178479,8.779626,0.561693,1.703027,-2.708494
25941,2.252207,-5.126809,8.478626,0.178131,1.800994,-2.756987
25942,1.910160,-5.940173,8.153941,-0.204875,1.835194,-2.765988
25943,1.851147,-7.524941,7.968001,-0.408779,1.820967,-2.758529
25944,1.777246,-9.311624,7.264489,-0.304181,1.726211,-2.733020
25945,1.951988,-10.658202,6.242029,0.271925,1.585509,-2.689540
25946,1.973375,-10.393361,6.018507,1.018579,1.418183,-2.640716
25947,2.113532,-8.942667,6.864769,1.330073,1.327694,-2.572044
25948,1.982722,-6.935424,7.432496,1.309510,1.324770,-2.503456
25949,1.481016,-4.909506,6.971860,0.931650,1.281659,-2.504425
25950,1.559390,-3.888548,5.835229,0.133043,1.259284,-2.466427
25951,1.567552,-4.363721,4.501961,-0.610293,1.300654,-2.349427
25952,1.805834,-5.680159,3.887092,-0.927082,1.255823,-2.227236
25953,1.883155,-7.409472,4.692795,-0.860377,1.309158,-2.055283
25954,1.432954,-8.666260,5.771107,-0.602444,1.294329,-1.902834
25955,1.418989,-8.831048,7.295492,-0.130816,1.214996,-1.788780
25956,1.473745,-7.778131,7.925795,0.022126,1.134603,-1.710020
25957,1.392843,-6.966203,7.233981,-0.093504,1.061071,-1.642135
25958,0.919678,-6.810563,6.828573,-0.226491,0.980759,-1.580181
25959,0.921826,-6.977137,7.151754,-0.247735,0.861943,-1.538840
25960,1.101596,-7.534245,7.816229,-0.215694,0.795939,-1.460940
25961,1.184234,-8.084509,8.127349,-0.000920,0.710647,-1.373420
25962,1.308276,-7.734565,7.799523,0.343865,0.629763,-1.313438
25963,1.427032,-6.690671,7.407975,0.565269,0.570516,-1.244651
25964,1.608156,-5.089954,7.470162,0.727959,0.545746,-1.190700
25965,1.213530,-3.482611,7.592668,0.435555,0.556906,-1.176587
25966,1.017022,-3.065707,7.757283,-0.473479,0.621197,-1.156937
25967,1.583600,-4.694391,7.377879,-1.389719,0.754055,-1.095858
25968,1.743095,-6.935551,6.458816,-1.304661,0.878298,-1.029868
25969,1.204467,-7.808800,6.407902,-0.473015,0.821807,-1.013643
25970,1.283222,-6.700406,7.084807,-0.047238,0.778092,-1.060751
25971,1.287673,-6.076202,7.251318,-0.302093,0.820914,-1.091267
25972,1.654664,-6.802125,7.166703,-0.690995,0.860836,-1.139113
25973,1.955506,-8.806159,8.782330,-0.838521,0.984991,-1.134458
25974,0.614272,-11.618915,9.137646,-0.866165,0.975748,-1.046996
25975,-0.619840,-15.270005,6.370316,-0.089666,0.695687,-0.962961
25976,-1.414128,-15.438344,3.163265,1.950955,0.184371,-0.857951
25977,-0.776273,-10.650832,4.185448,3.317524,-0.308261,-0.754100
25978,0.347108,-5.029667,5.256444,3.775336,-0.556234,-0.712267
25979,1.579224,-0.712731,6.325812,3.900926,-0.732690,-0.892636
25980,2.833292,1.587347,7.996610,2.774927,-0.626723,-1.015219
25981,3.612296,2.446101,8.241171,-0.670156,-0.014564,-0.721287
25982,2.645088,-1.118636,7.875507,-4.044372,0.758832,0.055128
25983,0.397574,-8.218518,7.602767,-6.343965,1.324865,0.282433
25984,-2.171104,-18.219708,-3.244608,-1.851392,0.613008,-0.234262
25985,-1.133078,-13.695390,6.494261,3.132654,-0.180959,-0.476029
25986,0.462795,-7.149319,7.669443,2.653194,-0.338110,-0.557129
25987,1.832752,-4.200051,9.368898,2.784095,-0.357344,-0.476610
25988,2.136431,-2.598066,12.250345,1.985037,-0.314730,-0.403915
25989,2.053098,-2.841893,11.428090,-0.864771,0.063039,-0.142383
25990,1.155927,-5.962226,8.987232,-2.801615,0.338223,0.026252
25991,0.530920,-10.248466,4.855408,-1.678202,0.089469,-0.005584
25992,0.936750,-10.613164,6.225156,0.489489,-0.280266,-0.005582
25993,1.424647,-7.930520,7.214986,0.726741,-0.332687,0.003567
25994,1.214672,-6.113287,6.808459,0.709356,-0.337055,0.033055
25995,1.152031,-5.179117,7.151517,0.490272,-0.361982,0.050301
25996,1.442843,-5.825350,7.725667,0.012600,-0.285167,0.158682
25997,1.384369,-6.806353,8.064213,0.001971,-0.214247,0.280210
25998,1.142854,-6.916346,8.807269,0.023645,-0.174689,0.356392
25999,1.043610,-6.257560,8.844805,0.035235,-0.154408,0.346210
26000,1.157424,-5.952663,9.160996,-0.188778,-0.142229,0.322576
26001,1.203197,-6.557334,8.646892,-0.587979,-0.063579,0.306110
26002,1.295879,-7.264684,8.184297,-0.534768,-0.045802,0.278286
26003,1.181840,-7.527382,8.238103,-0.375877,0.011135,0.314463
26004,0.919035,-8.188452,8.828302,-0.264547,0.029890,0.371150
26005,0.726204,-9.319134,9.305012,-0.026607,0.021345,0.400138
26006,0.676701,-10.584339,8.451958,0.315984,-0.056463,0.441225
26007,0.778859,-10.848538,6.131265,1.110044,-0.259464,0.464228
26008,0.749413,-8.665619,5.736897,1.944903,-0.530294,0.560253
26009,0.991769,-4.692719,4.853993,2.137487,-0.781005,0.569026
26010,1.957502,-2.452621,5.809402,1.812978,-0.867873,0.632057
26011,3.040912,-3.170063,8.851471,0.191334,-0.595921,1.062801
26012,2.841300,-6.727637,9.375178,-2.220429,-0.128875,1.549180
26013,1.193057,-12.444118,5.095744,-2.105348,-0.121551,1.864126
26014,0.447164,-13.257082,4.654910,0.684678,-0.680196,1.979464
26015,1.211277,-9.646190,7.357330,1.368912,-0.956778,2.141633
26016,2.094304,-7.436682,7.366063,1.158581,-1.028177,2.317043
26017,2.642866,-6.727782,8.235679,0.752648,-1.040059,2.518460
26018,2.786756,-7.126839,8.202860,0.080965,-0.976248,2.691532
26019,2.813405,-7.650464,8.179464,-0.012220,-0.992339,2.839382
26020,2.822215,-7.337110,8.894022,-0.131281,-0.985351,2.966098
26021,2.677230,-7.435257,8.967655,-0.377258,-0.950132,3.074622
26022,2.460812,-7.671417,9.004669,-0.475921,-0.939681,3.175104
26023,2.254505,-7.981133,8.964337,-0.475908,-0.973753,3.230589
26024,2.160389,-8.191713,8.768681,-0.326452,-1.032927,3.274627
26025,2.149583,-8.129592,8.525367,-0.076544,-1.096146,3.310538
26026,2.029537,-7.539563,8.430314,0.173689,-1.169696,3.333062
26027,2.035192,-6.816711,8.429702,0.310709,-1.223358,3.340700
26028,2.113129,-6.319435,8.518375,0.280971,-1.254723,3.343714
26029,2.168993,-6.414464,8.672488,0.137330,-1.223870,3.346149
26030,2.047311,-6.694633,8.539655,0.133769,-1.203999,3.324008
26031,2.024392,-6.472556,8.526659,0.280452,-1.219870,3.296704
26032,1.975852,-5.905652,8.531624,0.371010,-1.216764,3.273140
26033,1.835493,-5.308582,8.527169,0.421131,-1.195790,3.236312
26034,1.617730,-4.728338,8.483795,0.350220,-1.165586,3.188171
26035,1.165670,-4.020760,8.039111,0.224365,-1.141722,3.127247
26036,0.645087,-3.169263,7.311979,0.200020,-1.160761,3.041885
26037,0.656464,-2.827700,7.678685,0.066887,-1.147732,2.962849
26038,1.157046,-3.379006,8.460070,-0.489820,-0.923450,2.939838
26039,1.122406,-4.472317,8.596887,-0.987664,-0.585246,2.914360
26040,0.734537,-5.189374,8.716985,-0.951341,-0.410803,2.841770
26041,0.697577,-4.842358,8.516020,-0.877053,-0.336286,2.763510
26042,0.183189,-4.334395,7.592652,-0.994759,-0.272469,2.734120
26043,-0.434428,-4.594744,7.080604,-1.187361,-0.304693,2.739959
26044,-0.511243,-5.739714,6.455876,-1.518311,-0.384149,2.782124
26045,-0.588690,-7.570624,5.587352,-1.476575,-0.566396,2.826007
26046,-0.761612,-8.959424,5.211911,-0.743328,-0.884720,2.855259
26047,-0.466168,-8.580916,5.847496,-0.090050,-1.200229,2.902680
26048,-0.039041,-7.386304,6.394741,0.086061,-1.377805,2.966672
26049,0.261109,-6.236688,6.762324,-0.017712,-1.490917,3.026720
26050,0.615636,-5.971544,7.420271,-0.454637,-1.510957,3.128760
26051,0.373812,-6.480644,7.305894,-0.892622,-1.478090,3.236185
26052,0.113773,-7.094310,7.465655,-0.969640,-1.496663,3.323261
26053,-0.039706,-7.393614,7.951413,-1.010165,-1.499241,3.401287
26054,-0.129676,-7.575681,8.278344,-0.974271,-1.504013,3.454473
26055,-0.205968,-7.648825,8.561800,-0.890915,-1.511466,3.484819
26056,-0.264169,-7.652582,8.702534,-0.802609,-1.528922,3.516297
26057,-0.215457,-7.184008,8.676018,-0.683403,-1.566489,3.557080
26058,-0.264979,-6.161663,8.699254,-0.593048,-1.593282,3.571510
26059,-0.545934,-5.162642,8.965324,-0.568953,-1.599208,3.559065
26060,-0.859929,-4.445226,9.296022,-0.883641,-1.554495,3.572519
26061,-1.436259,-4.272265,9.194181,-1.289342,-1.475690,3.527139
26062,-2.010472,-4.749571,8.675438,-1.463462,-1.517575,3.446977
26063,-1.702473,-5.322878,8.370262,-1.369821,-1.618246,3.344677
26064,-0.952658,-5.444767,8.132035,-1.207323,-1.676242,3.255386
26065,-0.481572,-4.769541,8.202076,-1.026733,-1.743263,3.175908
26066,-0.515151,-4.267302,8.666092,-1.106824,-1.757125,3.123915
26067,-0.687464,-4.067194,7.826199,-1.358915,-1.769303,3.045149
26068,-1.155435,-3.556513,6.690677,-1.196756,-1.860002,2.898143
26069,-1.171257,-3.244277,6.051594,-1.094873,-1.957791,2.739615
26070,-0.622383,-4.157093,5.935537,-1.045411,-1.989298,2.621296
26071,-0.189268,-5.580906,6.609993,-0.600107,-1.954188,2.533918
26072,-0.255102,-6.319310,8.378765,0.048504,-1.859770,2.464081
26073,-0.281809,-6.158831,9.340042,0.485422,-1.785695,2.407601
26074,-0.151790,-4.923066,9.437088,0.826989,-1.704744,2.373372
26075,-0.241360,-3.332047,9.206083,0.899874,-1.603865,2.364261
26076,-0.585932,-1.871772,9.224932,0.610217,-1.491304,2.329697
26077,-0.751656,-1.092203,9.557547,-0.260956,-1.378673,2.311767
26078,-0.945271,-1.466678,9.384711,-1.747568,-1.225316,2.328640
26079,-1.370799,-3.305193,8.195415,-2.999273,-1.158758,2.329306
26080,-1.946793,-6.097611,6.262565,-3.272475,-1.217824,2.297995
26081,-2.167424,-8.509304,5.125071,-2.040424,-1.490705,2.221317
26082,-1.767613,-8.303574,7.256084,-0.987840,-1.651732,2.201680
26083,-1.585829,-7.328094,7.940082,-0.724479,-1.656064,2.187561
26084,-1.370105,-6.255781,8.328679,-0.198042,-1.685654,2.158953
26085,-0.677382,-4.949373,9.449782,0.182272,-1.650793,2.092360
26086,-0.001575,-3.699085,10.235211,0.257916,-1.506795,2.013885
26087,0.295527,-2.688227,10.674597,0.109609,-1.295776,1.922960
26088,0.318899,-1.913175,10.911293,-0.054381,-1.007828,1.794814
26089,0.307776,-1.314232,11.043947,-0.063461,-0.617911,1.627713
26090,-0.686410,-1.114810,11.073479,-0.146148,-0.257782,1.454403
26091,-0.775762,-2.197351,10.683401,-0.111797,0.058013,1.222465
26092,-0.636203,-3.563580,9.698046,0.332466,0.330015,1.009126
26093,-0.535006,-3.800713,8.189477,1.488675,0.453122,0.779018
26094,-0.584002,-1.779710,8.324834,2.916246,0.403898,0.552116
26095,-0.825501,0.679935,9.310543,3.486599,0.418456,0.297858
26096,-1.651624,2.548142,10.259859,2.809823,0.520278,0.061307
26097,-3.095155,3.341493,9.876483,0.643355,0.704054,0.022717
26098,-4.261878,1.510345,7.960822,-2.209796,0.732458,0.061446
26099,-4.062316,-1.360119,6.003258,-4.753178,0.696652,0.044369
26100,-4.939531,-5.598389,2.381027,-6.296536,0.572900,0.109776
26101,-5.940208,-10.488733,-3.481894,-3.228873,-0.286855,0.008776
26102,-5.390349,-9.272580,3.470314,-0.737710,-0.903337,-0.029290
26103,-4.213637,-8.496103,5.363304,-1.243841,-1.068469,0.052006
26104,-3.301750,-7.954156,6.266987,-0.606364,-1.135789,0.198901
26105,-2.670407,-6.690993,8.903349,-0.273313,-1.071591,0.289553
26106,-2.131386,-5.426596,9.960309,-0.631424,-0.836324,0.367833
26107,-1.892889,-4.493726,9.615079,-1.001100,-0.569854,0.406672
26108,-1.721190,-4.062628,8.962685,-1.259860,-0.359767,0.421591
26109,-1.873642,-4.171568,7.971966,-1.531790,-0.169678,0.400679
26110,-2.282249,-4.799743,6.876056,-1.565586,-0.080151,0.318519
26111,-2.679420,-5.469560,5.918579,-1.396348,-0.080346,0.241725
26112,-2.869661,-5.768114,5.612796,-0.974805,-0.130232,0.161653
26113,-2.917470,-5.691706,6.402150,-0.732965,-0.156466,0.108055
26114,-2.817728,-5.799550,6.803349,-0.700532,-0.135583,0.068212
26115,-2.623340,-5.571960,7.303383,-0.600847,-0.104032,0.027249
26116,-2.420813,-5.135907,7.680088,-0.658925,-0.017240,-0.006657
26117,-2.287741,-4.588124,7.690559,-0.737068,0.077125,-0.070432
26118,-2.098646,-4.046042,7.964769,-0.800692,0.168640,-0.165165
26119,-1.679704,-4.263298,8.754495,-1.120960,0.311336,-0.244040
26120,-1.644659,-5.418811,9.177823,-1.365964,0.510045,-0.325271
26121,-1.809176,-6.649000,8.971688,-1.151391,0.649571,-0.409849
26122,-1.969064,-7.090104,8.387504,-0.681563,0.790116,-0.472979
26123,-2.151915,-6.329826,8.383647,-0.119908,0.919935,-0.573830
26124,-2.140623,-5.257076,8.340171,0.130597,1.082270,-0.697781
26125,-2.060164,-4.896784,7.567839,-0.120428,1.282362,-0.767658
26126,-2.176595,-5.329664,6.596198,-0.336439,1.435098,-0.832116
26127,-2.489798,-5.857353,5.570556,-0.526947,1.472697,-0.876206
26128,-2.849996,-5.963747,4.363821,-0.656061,1.401665,-0.927486
26129,-3.131477,-5.444112,4.032444,-0.886921,1.265747,-0.933509
26130,-3.698204,-4.520853,3.942446,-1.440755,1.147759,-0.956136
26131,-4.222584,-4.295922,4.147556,-2.140674,1.012510,-1.003422
26132,-4.169166,-5.153737,4.151522,-2.699771,0.879285,-1.067189
26133,-3.808503,-6.426401,4.317745,-2.791948,0.762087,-1.147125
26134,-3.117464,-7.622032,5.153571,-2.404359,0.722027,-1.230949
26135,-2.268267,-8.560895,7.028188,-1.827697,0.816539,-1.279545
26136,-1.465448,-8.920470,8.716850,-1.216523,1.045133,-1.312229
26137,-0.905295,-8.015043,9.767605,-0.589759,1.348228,-1.338797
26138,-0.301548,-7.123707,10.132904,-0.504831,1.726999,-1.334812
26139,-0.407593,-6.861927,8.751665,-0.746807,2.133332,-1.340152
26140,-1.491022,-7.516188,5.906715,-1.053180,2.372395,-1.343226
26141,-2.396575,-8.883920,2.716752,-1.140552,2.388980,-1.356461
26142,-3.005556,-9.811751,0.353986,-0.593092,2.229024,-1.380408
26143,-3.352808,-8.736314,0.401175,0.052979,1.934082,-1.465095
26144,-3.350900,-7.142755,0.697934,-0.008645,1.676791,-1.546217
26145,-2.928027,-6.467345,1.043297,-0.415038,1.437512,-1.605518
26146,-2.102227,-6.512641,1.915279,-0.984271,1.321275,-1.652212
26147,-1.727487,-6.362211,2.518446,-1.363689,1.271603,-1.742163
26148,-1.792447,-6.231178,2.661667,-1.648427,1.213698,-1.839243
26149,-1.430205,-6.743331,2.858375,-1.691205,1.212551,-1.922191
26150,-0.969490,-7.917252,3.214768,-1.561874,1.317454,-1.992100
26151,-0.640069,-9.222702,3.681930,-1.086063,1.452000,-2.038818
26152,-0.485596,-9.208469,4.206612,-0.409847,1.547667,-2.129397
26153,-0.449436,-7.771878,4.238684,0.002690,1.650218,-2.204105
26154,-0.140875,-6.251835,4.201056,-0.062964,1.726937,-2.270835
26155,0.447877,-4.854001,4.090824,-0.628365,1.844156,-2.304522
26156,0.961201,-4.747930,3.672798,-1.889763,1.996785,-2.328267
26157,0.609160,-7.431287,2.010778,-3.410494,2.192670,-2.216405
26158,-0.410825,-11.563973,-1.508585,-3.437451,2.116321,-2.165939
26159,-1.463445,-14.367405,-2.927749,-1.863568,1.798454,-2.274502
26160,-1.852505,-14.052524,-2.098456,-0.637408,1.369022,-2.411065
26161,-1.293904,-12.177502,-1.419219,0.151037,0.986799,-2.470247
26162,-0.241555,-9.372190,0.578118,0.244892,0.719168,-2.459982
26163,0.865184,-7.043309,1.813433,-0.495588,0.558863,-2.457652
26164,1.678405,-6.112670,1.628281,-1.734523,0.554127,-2.400551
26165,1.791931,-8.283970,0.453249,-2.904173,0.702238,-2.254573
26166,1.133365,-12.815277,-0.842980,-3.025059,0.848351,-2.074035
26167,0.304746,-16.311513,-1.202873,-1.921821,0.836050,-1.974947
26168,-0.164840,-17.344489,-0.257049,-0.626744,0.799494,-1.933056
26169,-0.145904,-15.894596,0.296327,0.674362,0.760721,-1.932205
26170,0.266344,-12.551198,0.937064,1.666174,0.706839,-1.923333
26171,0.892901,-8.516914,1.512595,2.079407,0.681672,-1.950121
26172,1.490105,-5.097147,1.952776,1.548584,0.676575,-1.971178
26173,2.756304,-3.237316,2.565561,0.177135,0.743139,-1.927032
26174,4.687354,-3.118553,3.865679,-1.617346,0.986132,-1.883047
26175,5.323098,-5.230484,2.926690,-4.234596,1.410771,-1.649870
26176,3.768076,-12.105513,-2.292199,-5.342814,1.851265,-1.397576
26177,1.247827,-16.783260,-5.167013,-2.096034,1.150202,-1.774091
26178,1.612241,-14.221585,-2.193455,-0.841389,0.717205,-1.858328
26179,1.671540,-11.238036,-3.615993,0.060308,0.392183,-1.951817
26180,2.895381,-7.693518,-0.921294,0.642507,0.088003,-2.093908
26181,4.651893,-7.220858,0.724254,-0.439485,0.222451,-1.948632
26182,5.329042,-10.551978,0.241981,-1.312578,0.602703,-1.682891
26183,5.033997,-14.113982,-0.471908,-0.813664,0.661361,-1.637506
26184,5.212210,-15.476494,-0.629301,0.105851,0.737376,-1.519359
26185,4.684838,-14.722128,-0.098322,1.011276,0.844851,-1.395969
26186,4.187427,-11.701043,0.811812,1.728579,0.976089,-1.336315
26187,3.588210,-7.531089,1.777521,1.949982,1.110244,-1.371125
26188,3.302055,-3.917819,2.665360,1.623273,1.183255,-1.504333
26189,3.476910,-1.509410,3.134821,0.726871,1.200385,-1.692833
26190,4.378172,-1.005850,4.127786,-0.956531,1.282778,-1.787885
26191,5.829849,-2.420763,4.718376,-4.416527,1.589744,-1.279460
26192,6.658149,-8.649998,0.349271,-7.927112,2.190587,-0.491015
26193,3.773760,-20.965512,-8.845412,-3.927377,1.902137,-1.050741
26194,3.936702,-16.993908,-1.535291,0.023212,0.828777,-1.550096
26195,4.015354,-14.486881,-4.377456,0.774516,0.504207,-1.610603
26196,4.193986,-9.189608,-2.071945,2.685048,0.038927,-1.774167
26197,4.945326,-4.959796,-0.128033,2.499126,-0.207403,-2.025242
26198,5.986046,-3.304325,0.484394,1.566821,-0.173031,-2.074602
26199,7.478486,-3.455568,1.016094,0.055972,0.469432,-1.717218
26200,7.372426,-4.971355,0.574342,-1.549057,1.404145,-0.986673
26201,6.025569,-7.518729,0.705856,-2.070508,2.140235,-0.774972
26202,2.946009,-8.828828,1.057405,-1.554315,1.356961,-1.425590
26203,4.807724,-8.416408,-2.072726,-1.385851,0.717725,-1.670318
26204,5.994937,-8.807071,-2.224604,-1.079742,1.023784,-1.538914
26205,5.705340,-9.290490,-0.486723,-1.030212,1.052964,-1.516247
26206,6.221757,-9.949540,-0.514498,-0.970579,0.750956,-1.573278
26207,7.459663,-10.117422,0.301467,-0.694199,0.591118,-1.546964
26208,8.243552,-9.733783,0.576787,-0.593934,0.447019,-1.502208
26209,8.504529,-9.030546,0.141110,-0.578464,0.344650,-1.437966
26210,8.389986,-7.973748,-0.164142,-0.589085,0.353425,-1.406614
26211,7.819472,-6.534447,-0.214339,-0.600148,0.401419,-1.410464
26212,7.304568,-5.089776,-0.172882,-0.713328,0.377745,-1.510667
26213,7.835166,-4.761686,-0.074490,-1.067105,0.503983,-1.418507
26214,8.086221,-5.424464,-0.583042,-1.501461,1.008025,-1.147478
26215,6.995590,-6.313638,-1.216021,-1.721616,1.468560,-0.986253
26216,5.868159,-6.921815,-0.800799,-1.558349,1.610577,-1.082230
26217,5.026748,-7.125657,-0.561562,-1.258600,1.264753,-1.341557
26218,6.300201,-7.561214,-1.478724,-1.130159,0.954643,-1.522033
26219,7.931489,-8.106616,-0.695491,-0.861132,0.926429,-1.541702
26220,8.857269,-8.600495,0.218233,-0.746941,0.793499,-1.517503
26221,9.089578,-8.954314,0.416083,-0.506690,0.638477,-1.474597
26222,8.896173,-9.124497,0.444285,-0.234791,0.491798,-1.391452
26223,8.886779,-8.847288,0.678559,0.120258,0.305514,-1.342795
26224,8.962825,-8.084631,0.804107,0.355120,0.156755,-1.327843
26225,8.917214,-7.242508,0.566507,0.490421,0.090651,-1.288044
26226,9.044213,-6.398900,1.036465,0.537399,0.130010,-1.240875
26227,8.444037,-5.121987,1.144461,0.377400,0.219000,-1.294549
26228,7.687769,-3.728600,-0.172025,0.156386,0.027716,-1.552483
26229,9.031574,-3.357374,-0.678197,-0.023308,-0.074051,-1.638299
26230,10.868523,-3.764440,-0.458334,-0.541788,0.416810,-1.223424
26231,10.454458,-4.864635,0.153821,-1.091131,1.045412,-0.653553
26232,9.051847,-5.975600,0.787812,-1.164838,1.354383,-0.554458
26233,7.872965,-6.275209,2.143537,-0.757402,1.143821,-0.784052
26234,7.439290,-6.032758,1.790221,-0.534098,0.518722,-1.183810
26235,8.462482,-5.964099,0.460935,-0.278844,0.320885,-1.305356
26236,9.045070,-5.594907,0.260958,-0.012572,0.474454,-1.297398
26237,9.467285,-5.421104,0.998324,0.049814,0.554535,-1.244611
26238,9.765525,-5.417050,1.487200,0.146741,0.557352,-1.260645
26239,9.950610,-5.420946,1.767903,0.229495,0.530472,-1.231399
26240,10.011733,-5.840438,1.877593,0.238273,0.581127,-1.096754
26241,9.462999,-6.297065,1.355085,0.396423,0.569613,-0.993525
26242,9.087158,-6.038225,1.147045,0.753224,0.370924,-0.996469
26243,9.207963,-4.964260,1.328862,0.919297,0.190367,-1.034335
26244,9.522404,-3.627989,1.447763,0.948914,0.093408,-1.150518
26245,10.004568,-2.246375,1.167929,0.892730,-0.025789,-1.344197
26246,10.389086,-0.879042,-0.132097,0.532287,-0.058578,-1.499109
26247,10.946898,-0.002845,-0.983760,-0.156274,0.305345,-1.223947
26248,10.632928,-0.299874,0.318391,-1.202010,0.577085,-0.437043
26249,9.814763,-1.789720,1.026019,-2.585808,0.593819,0.142391
26250,9.748938,-4.413793,-1.614286,-3.007233,0.869672,0.392978
26251,9.122183,-6.738376,-2.209264,-1.261542,1.271448,0.268519
26252,7.750978,-5.760631,1.616151,-0.140547,0.988030,-0.171485
26253,7.291450,-4.705734,1.965219,-0.197653,0.185769,-0.620356
26254,8.576296,-4.700785,0.715790,-0.119954,-0.204969,-0.859562
26255,9.875159,-4.730422,0.400756,0.056691,-0.002692,-0.761715
26256,9.819177,-4.677425,0.770537,0.110320,0.259011,-0.427024
26257,9.081814,-4.783841,1.085834,0.233073,0.220461,-0.367521
26258,8.675730,-4.419353,1.025145,0.518490,-0.100925,-0.514958
26259,8.938021,-3.638755,0.650318,0.691205,-0.350148,-0.662382
26260,9.379457,-2.602911,0.262825,0.813999,-0.395225,-0.803327
26261,9.867393,-1.763138,0.085126,0.745021,-0.311886,-0.692594
26262,10.093806,-1.459184,0.473627,0.216766,-0.118527,-0.269382
26263,9.802764,-2.016985,0.743077,-0.592649,0.036565,0.061680
26264,9.549762,-3.180184,0.141485,-0.892793,0.144003,0.247999
26265,9.028543,-4.066966,-0.127834,-0.481242,0.231010,0.252832
26266,8.621198,-3.787156,1.004976,0.021845,0.097587,0.007148
26267,9.050191,-3.039221,1.702309,0.171119,-0.107226,-0.208236
26268,9.593259,-2.436521,1.723629,0.028182,-0.095462,-0.243927
26269,9.922978,-2.249748,1.579153,-0.394357,0.035898,-0.058139
26270,9.773099,-2.659198,1.210245,-0.852792,0.132305,0.131487
26271,9.727574,-3.368297,0.874863,-0.957820,0.140636,0.161673
26272,9.683461,-3.834207,0.971280,-0.820757,0.120479,0.142434
26273,10.149853,-4.175806,2.005539,-0.719159,0.165191,0.179165
26274,10.262573,-4.639815,3.140358,-0.654700,0.325589,0.351862
26275,9.414988,-5.660912,2.493723,-0.632801,0.327732,0.575344
26276,8.494011,-6.944511,1.239032,0.053478,0.183898,0.486926
26277,7.425903,-6.171138,0.784843,1.274878,-0.381316,0.005847
26278,7.834740,-3.773076,1.328889,2.008956,-0.984350,-0.547072
26279,8.789650,-1.572056,0.740257,2.281517,-1.168922,-1.234582
26280,11.054435,0.782141,-1.990772,2.514715,-0.621960,-1.456679
26281,11.615688,2.049412,-0.007893,2.194938,0.300782,-0.687969
26282,9.699103,1.534415,3.522613,0.006746,0.384598,-0.040171
26283,9.122438,0.048466,2.336377,-2.121266,-0.093594,0.455151
26284,9.847205,-1.616915,0.522249,-3.096478,-0.016850,0.998734
26285,10.334786,-4.760235,-1.745924,-2.346183,0.853619,0.995130
26286,9.214431,-6.173794,0.717105,-0.006899,1.154502,0.702506
26287,7.130701,-5.373994,4.272138,0.418731,0.487845,0.182474
26288,7.082719,-4.647963,1.905225,0.234619,-0.530496,-0.473099
26289,8.967424,-4.206210,0.560567,0.884208,-0.887954,-0.790974
26290,10.315437,-2.870814,0.417354,1.173367,-0.652026,-0.930008
26291,10.975078,-1.668935,0.321276,1.200427,-0.229751,-0.592144
26292,10.185565,-1.109519,1.495917,0.740891,0.059950,-0.185600
26293,9.564853,-1.246215,1.808566,-0.214687,0.036616,-0.034706
26294,9.706088,-1.882472,0.625639,-0.875333,0.018171,0.158631
26295,9.737792,-2.979355,-0.228305,-0.818418,0.213630,0.280294
26296,9.218328,-3.715852,0.369583,-0.336437,0.300436,0.227599
26297,8.663916,-3.620370,1.084831,-0.116857,0.141414,0.021080
26298,8.793304,-3.428675,0.838979,-0.016198,-0.070974,-0.114244
26299,9.327699,-3.272140,0.725902,0.081273,-0.091573,-0.114525
26300,9.518836,-3.199440,0.862047,0.076734,-0.031392,-0.041425
26301,9.357284,-3.276340,0.940947,0.109772,-0.022557,-0.034369
26302,9.304242,-3.089181,1.036059,0.234741,-0.062710,-0.090263
26303,9.389112,-2.823801,0.988048,0.278053,-0.081552,-0.128556
26304,9.494335,-2.513945,1.038427,0.278971,-0.055935,-0.151022
26305,9.552725,-2.251629,1.058436,0.180055,-0.017106,-0.142570
26306,9.590191,-2.167379,1.168526,0.023914,0.029752,-0.092824
26307,9.482122,-2.338934,1.147672,-0.150855,0.047432,-0.054649
26308,9.521005,-2.667723,0.990021,-0.212169,0.042941,-0.035950
26309,9.565903,-2.915927,1.023508,-0.184135,0.028682,-0.036796
26310,9.711655,-2.912958,0.977965,-0.137127,-0.015243,-0.042818
26311,9.968731,-2.567860,1.005048,-0.094179,-0.081962,-0.054324
26312,10.043815,-1.842964,0.788107,-0.109176,-0.130745,-0.114400
26313,9.452063,-0.883973,0.212757,-0.127273,-0.163669,-0.179438
26314,9.000016,-0.058228,-0.483058,-0.381517,-0.273482,-0.150377
26315,9.970713,-0.430118,0.277321,-1.107848,-0.282860,0.313061
26316,10.296006,-1.782339,1.399614,-2.137056,-0.110545,0.956852
26317,10.184859,-3.755552,0.208545,-2.637052,0.207990,1.138489
26318,9.991751,-5.652664,0.047453,-1.625194,0.619728,0.964623
26319,9.393705,-5.402406,3.272726,-0.777965,0.747766,0.633510
26320,8.012534,-4.916253,4.336027,-0.870775,0.518369,0.305928
26321,7.406115,-5.727076,2.070476,-0.902934,0.063728,0.043587
26322,7.946352,-6.949440,-0.618633,-0.012327,-0.199269,-0.112051
26323,8.456913,-6.412500,-0.455249,1.281188,-0.323606,-0.247647
26324,8.458736,-4.432175,0.735185,1.831838,-0.600779,-0.465830
26325,8.979627,-2.698522,0.883384,1.968630,-0.877218,-0.800236
26326,10.715021,-1.311402,0.043450,1.945551,-0.666797,-0.857958
26327,11.477057,-0.272993,0.700407,1.686845,0.035795,-0.309698
26328,10.032111,-0.054894,2.780390,0.600762,0.291650,0.038417
26329,9.333083,-0.353766,2.582693,-0.886205,0.102736,0.186334
26330,9.627614,-1.189505,1.476672,-1.881782,0.060888,0.493951
26331,9.776032,-2.675643,-0.089826,-2.376300,0.392947,0.656289
26332,9.368702,-4.895216,-1.479385,-1.520833,0.734870,0.635467
26333,8.345217,-5.474912,0.399975,-0.349619,0.752767,0.381008
26334,7.676277,-4.896126,1.458219,-0.051293,0.299381,0.018351
26335,8.123174,-4.506670,0.900818,0.325288,-0.258574,-0.277316
26336,9.131639,-3.947245,0.354071,0.644631,-0.454237,-0.466997
26337,10.233208,-3.139859,0.066980,0.788067,-0.252180,-0.398703
26338,10.170010,-2.484378,0.760268,0.731926,0.014030,-0.089787
26339,9.573110,-2.320499,1.444586,0.311265,0.082496,0.033281
26340,9.388097,-2.690243,0.808012,0.049740,0.046805,0.036757
26341,9.470509,-2.956683,0.632733,0.104723,0.095416,0.016771
26342,9.390741,-2.795352,0.946417,0.109728,0.090547,-0.041598
26343,9.469119,-2.569312,0.852457,0.029044,0.084181,-0.059663
26344,9.473589,-2.666218,0.848159,-0.112411,0.128126,-0.006473
26345,9.300762,-3.086791,0.788194,-0.209898,0.150568,0.049689
26346,9.173873,-3.458841,0.628394,-0.148151,0.125608,0.057755
26347,9.107502,-3.626559,0.504761,0.027705,0.070661,0.004555
26348,9.153371,-3.387874,0.645512,0.232979,-0.013016,-0.067725
26349,9.360646,-3.023891,0.617281,0.287112,-0.060677,-0.097535
26350,9.566209,-2.727712,0.610753,0.284060,-0.043130,-0.086248
26351,9.570946,-2.522724,0.803963,0.203163,-0.003348,-0.047219
26352,9.397609,-2.508672,0.803185,0.057606,0.024578,-0.010162
26353,9.332466,-2.678934,0.809536,-0.020996,0.044893,0.003073
26354,9.407023,-2.754263,0.917655,-0.071614,0.014522,-0.018267
26355,9.731276,-2.709140,0.836524,-0.107853,-0.024919,-0.033422
26356,9.970178,-2.349696,0.799795,-0.135114,-0.036382,-0.054444
26357,9.907887,-1.858461,0.894623,-0.165570,-0.009291,-0.076223
26358,9.639227,-1.427694,1.229771,-0.303936,0.026239,-0.063525
26359,9.637397,-1.276144,1.701817,-0.699936,0.064972,0.024911
26360,9.689738,-1.512630,1.968255,-1.239001,0.121423,0.162914
26361,9.750346,-2.064862,1.584729,-1.577363,0.174592,0.213779
26362,9.630417,-2.659936,0.983774,-1.546475,0.278745,0.199209
26363,9.298762,-3.004219,0.847336,-1.305916,0.330958,0.094553
26364,9.054622,-3.134834,0.823135,-1.174456,0.326242,-0.013873
26365,9.001619,-3.495223,0.722852,-1.150551,0.372137,-0.003712
26366,9.011069,-4.195967,0.684424,-1.010993,0.476233,0.075125
26367,8.819801,-5.163547,0.789297,-0.691171,0.541364,0.159858
26368,8.559120,-5.984396,0.765253,-0.125239,0.447341,0.112982
26369,8.293033,-6.002836,0.917376,0.615706,0.076589,-0.151096
26370,8.357119,-4.897457,0.927300,1.194954,-0.437821,-0.413838
26371,8.877930,-3.506477,0.381798,1.458109,-0.739157,-0.729701
26372,9.997222,-1.944864,-0.818860,1.576451,-0.632790,-0.856225
26373,10.681690,-0.806328,-0.494282,1.418367,-0.180728,-0.419237
26374,9.954012,-0.799041,1.532890,0.453852,0.057769,0.049211
26375,9.657084,-1.490155,1.582334,-0.804789,0.034462,0.264460
26376,9.789261,-2.680530,0.144521,-1.256787,0.197224,0.430913
26377,9.514056,-3.901005,-0.176401,-0.741021,0.490763,0.396844
26378,8.885851,-4.075996,1.505751,-0.277033,0.495625,0.188421
26379,8.506864,-4.086422,1.848514,-0.379357,0.270645,-0.001297
26380,8.710087,-4.457778,1.000764,-0.256442,0.082858,-0.046792
26381,8.887559,-4.728563,0.623032,0.048850,0.041872,-0.040403
26382,8.949250,-4.651698,0.683512,0.342528,-0.047854,-0.050098
26383,9.000268,-4.060872,0.748023,0.632443,-0.199738,-0.135182
26384,9.299972,-3.182785,0.650704,0.793137,-0.331573,-0.277640
26385,9.845824,-2.346287,0.315010,0.811577,-0.295649,-0.326561
