// Start Time: Unknown
// Update Rate: 100.0Hz
// Filter Profile: human (46.1)
// Firmware Version: 4.3.5
PacketCounter,Acc_X,Acc_Y,Acc_Z,Gyr_X,Gyr_Y,Gyr_Z
17359,8.982509,-4.152442,2.379674,-0.034185,0.011101,-0.015429
17360,9.081354,-3.996782,2.443269,0.103949,-0.004106,-0.019558
17361,9.134466,-3.907601,2.416964,0.175123,-0.016715,-0.019018
17362,9.139229,-3.886819,2.275819,0.233596,-0.012236,-0.021666
17363,9.119199,-3.836250,1.868963,0.318561,-0.024090,-0.018222
17364,9.170859,-3.549123,1.403498,0.403772,-0.004486,-0.017286
17365,9.206354,-2.892986,1.176695,0.414793,0.038257,-0.038851
17366,9.246451,-2.303797,1.022666,0.252416,0.092767,-0.067115
17367,9.352015,-1.832642,1.060097,-0.062258,0.157910,-0.063315
17368,9.414386,-1.823812,1.385994,-0.490652,0.232498,-0.008623
17369,9.203135,-2.409828,1.626593,-0.900315,0.296794,0.040121
17370,8.826158,-3.364636,1.921235,-1.006695,0.295921,0.091567
17371,8.442902,-4.446086,2.414669,-0.863311,0.225545,0.107697
17372,8.466972,-5.164091,2.661884,-0.592751,0.129234,0.091101
17373,8.700745,-5.366119,2.727081,-0.208255,0.085932,0.137526
17374,8.962184,-5.045378,2.932474,0.150060,0.053438,0.161188
17375,9.317008,-4.478650,3.314691,0.394214,0.018319,0.150038
17376,9.583171,-4.088528,3.731359,0.538047,0.009990,0.128136
17377,9.531838,-3.645117,3.612414,0.623679,0.051877,0.099704
17378,9.353910,-3.218012,2.989104,0.646787,0.072712,0.070924
17379,9.290480,-2.717450,2.204674,0.624027,0.088397,0.033902
17380,9.451278,-2.298239,1.644696,0.566177,0.123763,0.032393
17381,9.554648,-2.017149,1.311614,0.403537,0.191377,0.066300
17382,9.580248,-1.957040,1.236522,0.138689,0.262354,0.095921
17383,9.609907,-2.204235,1.442619,-0.135662,0.358719,0.104499
17384,9.537572,-2.551175,1.808680,-0.350217,0.460958,0.127948
17385,9.164285,-3.113414,2.344716,-0.550050,0.530747,0.177433
17386,8.877920,-3.866525,2.916096,-0.700316,0.549047,0.252532
17387,8.642674,-4.740386,3.470170,-0.701498,0.543688,0.299710
17388,8.589995,-5.235530,3.611475,-0.522788,0.508989,0.309541
17389,8.750803,-5.203485,3.648162,-0.303334,0.470956,0.338232
17390,8.918831,-4.960764,3.522557,-0.136602,0.427711,0.357911
17391,9.132010,-4.837004,3.330101,0.066706,0.395870,0.353495
17392,9.085145,-4.637448,2.837778,0.250486,0.406006,0.337837
17393,8.767939,-4.344859,2.089793,0.395233,0.396696,0.311673
17394,8.554022,-3.937602,1.239057,0.493050,0.336359,0.270074
17395,8.621931,-3.430684,0.570083,0.524991,0.282522,0.217498
17396,8.965422,-2.922400,0.426047,0.514785,0.249863,0.181797
17397,9.398472,-2.689055,0.746654,0.457649,0.286275,0.170493
17398,9.359492,-2.718823,1.497652,0.267578,0.402287,0.228422
17399,8.902545,-3.259374,2.168014,-0.076586,0.491479,0.314485
17400,8.433421,-4.165525,2.666788,-0.336149,0.532304,0.462053
17401,8.085191,-5.059562,3.370679,-0.434352,0.554124,0.547147
17402,8.045989,-5.475695,3.984973,-0.434382,0.554279,0.562560
17403,8.146766,-5.342357,4.372333,-0.414387,0.546447,0.557929
17404,8.271239,-5.043565,4.516158,-0.423435,0.513593,0.559673
17405,8.256818,-5.027104,4.193766,-0.452411,0.481889,0.562704
17406,8.051077,-5.085698,3.130247,-0.460878,0.472324,0.588160
17407,7.693712,-5.075662,1.911931,-0.363843,0.404071,0.607821
17408,7.622459,-4.988237,1.045191,-0.130915,0.268534,0.587628
17409,7.825543,-4.744526,0.633250,0.149555,0.144784,0.527160
17410,8.109593,-4.338375,0.719226,0.392194,0.090701,0.441488
17411,8.286175,-4.054564,1.366285,0.498562,0.114224,0.419362
17412,8.214040,-4.218000,2.077987,0.361495,0.166357,0.458831
17413,8.016237,-5.013855,2.738648,0.179650,0.218830,0.579158
17414,7.735649,-6.052664,3.840443,0.180030,0.258530,0.752498
17415,7.462791,-7.026850,5.123076,0.304030,0.267509,0.849214
17416,7.412032,-7.018014,5.876450,0.404858,0.242419,0.840704
17417,7.580403,-6.279957,5.869861,0.378138,0.234032,0.887232
17418,7.655471,-5.523651,5.111389,0.209689,0.223899,0.894192
17419,7.751441,-5.106500,3.785879,0.040514,0.208028,0.871111
17420,7.859836,-5.065471,2.585204,-0.028471,0.192007,0.853175
17421,7.863571,-5.228044,1.551691,0.019889,0.142828,0.839493
17422,7.884979,-5.298855,0.860820,0.204365,0.073423,0.810121
17423,7.902334,-5.161400,0.733923,0.456109,0.052913,0.755891
17424,7.792800,-4.885609,1.164897,0.571357,0.086003,0.717492
17425,7.488494,-4.838023,1.518306,0.436995,0.115593,0.717173
17426,7.293120,-5.292196,2.142859,0.350378,0.107814,0.776974
17427,7.332699,-5.973586,3.361437,0.384612,0.118576,0.856944
17428,7.334483,-6.584590,4.805613,0.429037,0.174911,0.950304
17429,7.247432,-6.723737,5.710191,0.385157,0.232099,1.013145
17430,7.163928,-6.437317,6.097687,0.327488,0.271251,1.065068
17431,7.175339,-6.324962,6.253245,0.215477,0.293800,1.107151
17432,7.279479,-6.566929,5.599521,0.086585,0.304177,1.150283
17433,7.232962,-6.768697,4.583664,0.053452,0.322349,1.201289
17434,7.059808,-6.806829,3.421844,0.077069,0.302902,1.235167
17435,6.937614,-6.776347,2.431304,0.207057,0.219757,1.209829
17436,6.949806,-6.696352,1.822280,0.461880,0.124873,1.140267
17437,6.928742,-6.366196,1.641361,0.725316,0.069520,1.040216
17438,6.791919,-6.019414,1.945200,0.873751,0.015731,0.958341
17439,6.654373,-6.108150,2.489692,0.913838,-0.024147,0.929317
17440,6.538268,-6.611910,3.482819,0.938618,-0.029935,0.966974
17441,6.475629,-7.195957,4.381417,0.944054,0.010325,1.037440
17442,6.269506,-7.350438,5.076046,0.876866,0.095696,1.104079
17443,6.103803,-7.051721,5.512518,0.793027,0.178921,1.172901
17444,5.947619,-6.928265,5.820794,0.697251,0.219328,1.244455
17445,5.982664,-7.223379,5.932567,0.621709,0.207795,1.301898
17446,6.153749,-7.812006,5.933652,0.662999,0.191526,1.326238
17447,6.429411,-8.089202,5.528553,0.789875,0.180381,1.316179
17448,6.628972,-7.441361,4.380678,0.933882,0.130942,1.278850
17449,6.670269,-6.331740,3.289327,0.975304,0.103727,1.179056
17450,6.677941,-5.688698,2.767238,0.984506,0.075963,1.090215
17451,6.847318,-5.639232,2.750981,1.031707,0.061096,0.980810
17452,6.940706,-5.454828,2.724846,1.078254,0.097731,0.907455
17453,6.650501,-5.116558,2.834710,1.068373,0.160883,0.876832
17454,6.103590,-5.066150,3.118529,0.904810,0.192911,0.884352
17455,5.856490,-5.487266,3.490042,0.688240,0.201018,0.930473
17456,5.851955,-6.201581,4.186388,0.585821,0.224261,0.992352
17457,5.929310,-6.832378,5.101550,0.530094,0.284736,1.063234
17458,5.762617,-7.062797,5.764753,0.449831,0.370427,1.116088
17459,5.466962,-6.877412,6.067601,0.361069,0.433008,1.124038
17460,5.191817,-6.662354,6.357042,0.289874,0.450992,1.113214
17461,5.127856,-7.013016,6.624371,0.273480,0.461732,1.126111
17462,5.088962,-7.570188,6.629903,0.336866,0.480368,1.168191
17463,4.850966,-7.730625,6.251758,0.416081,0.496599,1.204134
17464,4.539412,-7.550509,5.508809,0.495590,0.450802,1.244594
17465,4.325580,-7.390787,4.597857,0.573623,0.344602,1.245198
17466,4.298214,-7.340842,3.941387,0.691455,0.211690,1.215161
17467,4.301910,-7.357323,3.547332,0.921358,0.060126,1.138123
17468,4.397862,-6.933282,3.430732,1.163748,-0.060485,1.031881
17469,4.429272,-6.399546,3.395760,1.227805,-0.148291,0.944955
17470,4.495815,-5.916767,3.549726,1.186541,-0.196956,0.886333
17471,4.616117,-5.699928,4.137161,1.065851,-0.168660,0.849046
17472,4.847960,-5.770522,4.707122,0.886750,-0.062767,0.846409
17473,4.962010,-5.800266,5.569774,0.750631,0.093206,0.868016
17474,4.836923,-5.954014,7.195558,0.615621,0.323859,0.890164
17475,4.400598,-6.331956,8.534049,0.341811,0.568091,0.953659
17476,4.143207,-6.581247,8.907013,0.100278,0.700458,1.038788
17477,3.794258,-6.852230,9.132372,-0.094171,0.787957,1.151824
17478,3.494488,-7.534325,8.502806,-0.316835,0.804453,1.270135
17479,3.227181,-8.317295,7.207079,-0.349339,0.749036,1.358915
17480,2.850163,-8.754561,5.971048,-0.179803,0.620050,1.387895
17481,2.501911,-8.873829,4.808961,0.161973,0.385549,1.355508
17482,2.399278,-8.644765,4.239264,0.639098,0.116237,1.245215
17483,2.460067,-8.271311,3.969746,1.070762,-0.144372,1.124294
17484,2.664277,-7.521860,4.200010,1.410089,-0.318937,0.992784
17485,2.670002,-6.571515,4.458503,1.534211,-0.458431,0.906342
17486,2.781138,-5.929215,4.795620,1.514639,-0.542892,0.874340
17487,3.018003,-5.692469,5.266165,1.368562,-0.520329,0.878003
17488,3.284564,-5.640768,6.015368,1.212941,-0.368860,0.902273
17489,3.291941,-5.595317,6.816121,0.992126,-0.172714,0.942553
17490,3.267643,-5.613587,7.444641,0.693872,-0.032315,0.992397
17491,3.426429,-5.795871,7.470479,0.427859,0.082200,1.054119
17492,3.295139,-6.002787,7.779948,0.276485,0.273290,1.070529
17493,2.703662,-6.317563,8.090681,0.033880,0.393626,1.087141
17494,2.175286,-6.850328,7.604875,-0.145842,0.372701,1.135790
17495,1.972335,-7.291712,6.657718,-0.097267,0.315735,1.194286
17496,1.925961,-7.290979,6.083335,0.065100,0.256107,1.205533
17497,1.960331,-7.162136,5.560745,0.212778,0.203079,1.188299
17498,1.786313,-6.804232,5.265869,0.384496,0.115311,1.136730
17499,1.756213,-6.369152,5.156143,0.486435,-0.011978,1.071266
17500,1.831684,-5.883020,5.071187,0.567731,-0.092009,0.973151
17501,1.769386,-5.410582,5.455526,0.569199,-0.088282,0.864824
17502,1.557454,-5.474092,5.936818,0.402474,-0.045914,0.777157
17503,1.728943,-5.696915,5.993587,0.250122,-0.030076,0.718028
17504,1.825747,-5.907026,6.322210,0.136806,-0.037132,0.670233
17505,1.952500,-6.227992,6.787332,-0.046820,-0.045816,0.675260
17506,2.036390,-6.641815,7.096333,-0.135958,0.044491,0.693344
17507,1.802027,-6.753969,7.557499,-0.149625,0.122520,0.727636
17508,1.453316,-6.631555,7.796046,-0.244452,0.162603,0.763112
17509,0.968249,-6.955089,8.121248,-0.529710,0.186411,0.850286
17510,0.375835,-7.834398,7.591509,-0.640136,0.048577,0.968862
17511,0.089882,-8.386819,6.828588,-0.248977,-0.144222,1.003015
17512,0.435724,-7.753705,6.610599,0.170289,-0.233693,0.960155
17513,0.537834,-6.879201,6.249120,0.265566,-0.260431,0.910385
17514,0.625697,-6.449005,6.089705,0.229924,-0.341495,0.831751
17515,0.900141,-6.248649,5.696070,0.274238,-0.429681,0.721064
17516,1.544625,-5.842807,5.446008,0.422522,-0.426567,0.602457
17517,1.795618,-5.317671,6.039396,0.444452,-0.342425,0.488696
17518,1.914104,-5.050786,6.425110,0.207413,-0.218196,0.376196
17519,2.103438,-5.313009,6.838954,-0.034431,-0.063520,0.308465
17520,1.715295,-6.027489,7.079793,-0.225099,0.054165,0.280192
17521,1.523468,-6.570680,7.062864,-0.197422,0.115216,0.238341
17522,1.298435,-6.874207,7.569281,-0.172828,0.206704,0.232021
17523,0.682449,-7.318014,7.817850,-0.195879,0.237217,0.224822
17524,0.423203,-7.674120,7.502989,-0.095197,0.140774,0.238127
17525,0.829959,-7.567720,7.372468,0.116577,0.073572,0.276054
17526,1.075469,-7.173987,7.120038,0.276649,0.143895,0.322037
17527,0.943669,-6.461355,6.670042,0.445753,0.150435,0.285808
17528,1.509865,-5.768272,6.238105,0.480995,0.081587,0.183141
17529,1.812410,-5.168037,5.269060,0.517589,0.044274,-0.029909
17530,1.605922,-4.838675,5.949633,0.367637,0.169032,-0.168407
17531,1.035436,-5.333623,6.337801,0.081584,0.300335,-0.233481
17532,0.799359,-6.084781,6.808552,-0.081251,0.358087,-0.229823
17533,0.411200,-6.722488,6.726375,-0.155149,0.390807,-0.203184
17534,0.102979,-7.221854,7.142831,-0.170933,0.400612,-0.174219
17535,-0.079083,-7.340831,7.222678,-0.099355,0.349430,-0.136619
17536,-0.155425,-7.124116,7.404148,-0.090720,0.310543,-0.101646
17537,-0.194101,-7.245266,7.208837,-0.130468,0.241191,-0.066579
17538,0.154280,-7.474096,7.200866,-0.100904,0.178833,-0.028723
17539,0.706568,-7.570365,7.266518,-0.021656,0.205636,0.070040
17540,0.686879,-7.218498,7.174620,0.095741,0.258157,0.136860
17541,0.544224,-6.938798,7.118578,0.100477,0.298501,0.136944
17542,0.842549,-6.662711,6.442267,0.173003,0.245553,0.071018
17543,0.892466,-5.816504,6.119734,0.285003,0.241367,-0.056893
17544,1.013158,-5.449446,6.477298,0.104879,0.267535,-0.176091
17545,1.527675,-5.727233,6.481981,-0.037064,0.350807,-0.258571
17546,1.405694,-5.851221,7.175248,-0.080674,0.535847,-0.336990
17547,1.230459,-6.149479,7.824400,-0.236928,0.701729,-0.379381
17548,0.644332,-6.667224,8.363556,-0.342925,0.867526,-0.382134
17549,-0.093028,-7.366830,8.655322,-0.362190,0.904154,-0.370061
17550,-0.309911,-7.941154,8.878634,-0.295633,0.849989,-0.346857
17551,-0.341025,-8.393555,8.684400,-0.179297,0.778060,-0.298028
17552,-0.367905,-8.459478,8.229229,0.055038,0.631457,-0.249560
17553,-0.149640,-8.180839,7.707472,0.297781,0.527473,-0.210294
17554,0.429226,-7.743684,7.337571,0.521443,0.448108,-0.160007
17555,0.730202,-7.227174,6.543705,0.563402,0.469553,-0.107817
17556,0.493604,-6.362540,6.149266,0.673568,0.569542,-0.167443
17557,0.240238,-5.348555,6.426003,0.643237,0.622165,-0.297528
17558,0.419441,-4.593970,6.150625,0.512491,0.549884,-0.454677
17559,1.234412,-4.091270,6.078524,0.348941,0.606037,-0.580889
17560,1.349215,-4.032162,6.475439,-0.011258,0.793481,-0.683082
17561,0.944887,-4.459724,6.793030,-0.441715,0.976999,-0.813585
17562,0.571573,-5.682690,7.305269,-0.727230,1.079239,-0.897330
17563,0.581098,-7.196378,7.453996,-0.787037,1.108768,-0.914506
17564,0.960102,-8.363681,7.808926,-0.561185,1.149832,-0.823388
17565,0.858556,-8.985753,8.304522,-0.329796,1.235110,-0.627616
17566,0.006761,-9.151257,7.928961,-0.072589,1.237854,-0.475698
17567,-0.883052,-8.665110,7.285861,0.234744,1.169122,-0.486021
17568,-1.224342,-7.530973,7.621002,0.414176,1.164679,-0.638164
17569,-1.008160,-6.849323,8.508360,0.269341,1.214930,-0.687940
17570,-1.193961,-7.014583,7.755774,0.137244,1.144814,-0.641098
17571,-1.576962,-7.629278,6.796790,0.260700,0.974896,-0.650188
17572,-1.564840,-7.918982,6.653022,0.455669,0.811164,-0.652925
17573,-1.448241,-7.515245,5.948557,0.705730,0.585433,-0.747444
17574,-0.646636,-7.022312,5.826791,0.890870,0.456056,-0.813183
17575,-0.251315,-6.658553,5.682561,0.971959,0.388162,-0.831260
17576,0.160473,-6.141758,5.266553,1.008321,0.354901,-0.850140
17577,0.487702,-5.886916,5.455298,1.087166,0.369633,-0.815243
17578,0.535177,-5.784083,5.989496,1.144567,0.440609,-0.739505
17579,0.337625,-5.693298,6.290637,1.095429,0.601832,-0.715358
17580,0.088299,-4.943163,7.332477,0.921111,0.886977,-0.796619
17581,-0.207213,-4.152954,9.426869,0.428255,1.132291,-0.876281
17582,-0.332651,-4.098413,10.396374,-0.526143,1.369836,-0.847339
17583,-0.411532,-5.251669,9.798031,-1.516247,1.621761,-0.674019
17584,-0.811466,-7.484385,8.736170,-1.734001,1.620161,-0.437898
17585,-1.351021,-9.293288,7.844829,-1.123707,1.376446,-0.252994
17586,-1.441442,-9.682605,7.185468,-0.530329,1.085325,-0.156486
17587,-1.362886,-9.753276,6.424442,-0.043427,0.836169,-0.140852
17588,-1.577868,-9.307904,5.922245,0.659683,0.571998,-0.235366
17589,-1.713988,-8.130517,5.581471,1.218114,0.313433,-0.404631
17590,-1.781542,-6.556096,5.001296,1.501754,-0.020511,-0.628969
17591,-1.209212,-5.127739,4.644399,1.513726,-0.289229,-0.836752
17592,-0.158687,-4.440889,5.235971,1.418971,-0.374596,-0.920898
17593,0.570432,-4.429636,6.439457,1.300422,-0.314965,-0.885214
17594,1.001181,-4.842248,7.507579,0.991224,-0.101979,-0.740639
17595,0.886581,-5.627448,7.941012,0.645518,0.149535,-0.520141
17596,0.546766,-6.227682,8.417583,0.540247,0.371515,-0.328091
17597,0.097723,-6.137642,8.898435,0.380186,0.599850,-0.207409
17598,-0.305455,-5.853853,9.263314,0.096833,0.816956,-0.193395
17599,-0.600936,-5.758669,9.365201,-0.143874,0.952407,-0.242653
17600,-0.759242,-5.560209,9.463550,-0.315124,1.025745,-0.311512
17601,-0.910401,-5.452897,9.331786,-0.670155,1.082673,-0.382074
17602,-1.290904,-5.716578,8.909422,-0.937404,1.017065,-0.385929
17603,-1.665457,-5.989865,7.777646,-1.036254,0.771896,-0.393987
17604,-1.771491,-6.549473,6.290056,-1.046714,0.516614,-0.409874
17605,-1.994994,-7.063999,4.334447,-0.789343,0.188150,-0.475512
17606,-1.825413,-7.033655,2.679586,-0.470688,-0.162943,-0.578906
17607,-1.019489,-7.129154,2.539514,0.053891,-0.445295,-0.697131
17608,-0.008903,-7.361596,3.869550,0.725855,-0.551283,-0.722715
17609,0.675098,-7.510024,5.673069,1.089593,-0.483524,-0.608777
17610,0.924862,-7.417347,7.364960,1.155856,-0.255053,-0.400972
17611,0.749737,-6.846514,8.891723,1.084227,0.036679,-0.170043
17612,0.265177,-5.823335,9.934902,0.855192,0.338309,-0.008498
17613,-0.279541,-4.498432,10.268591,0.464889,0.595725,0.028938
17614,-0.538932,-3.203641,10.267722,0.001713,0.826324,-0.081984
17615,-0.467113,-2.251207,10.627063,-0.627778,1.057033,-0.287197
17616,-0.237006,-2.016093,10.757689,-1.604741,1.283948,-0.452977
17617,-0.151181,-2.976388,10.217476,-2.792607,1.412614,-0.409132
17618,-0.873556,-5.536370,8.431223,-3.787786,1.260827,-0.221577
17619,-1.933997,-9.043673,4.591187,-3.710391,0.798095,-0.090707
17620,-2.049569,-11.312017,2.505391,-2.224553,0.351320,-0.121626
17621,-1.624309,-11.128271,2.807636,-0.682171,0.174515,-0.251371
17622,-1.415590,-10.068024,3.746809,0.217072,0.107779,-0.400311
17623,-1.125017,-9.099751,4.395370,0.877829,0.009470,-0.497699
17624,-0.699130,-8.115488,5.551778,1.389283,-0.071423,-0.512676
17625,-0.293930,-7.284588,7.403342,1.725735,-0.114504,-0.409267
17626,-0.141073,-6.540006,8.967783,1.634014,-0.027904,-0.230316
17627,-0.280434,-5.619307,9.390937,1.209802,0.205652,-0.089183
17628,-0.729410,-4.519299,9.424700,0.788245,0.405037,-0.057201
17629,-0.907362,-3.623166,9.353519,0.243944,0.525035,-0.141724
17630,-0.321806,-3.173249,8.869774,-0.603138,0.629178,-0.278835
17631,0.240744,-3.838642,8.291802,-1.469982,0.736999,-0.340431
17632,0.244473,-5.317988,7.268497,-1.995400,0.808072,-0.293090
17633,-0.230534,-6.951451,5.804786,-2.014184,0.829986,-0.226047
17634,-0.855971,-8.323446,4.955639,-1.541019,0.781997,-0.201692
17635,-1.342801,-8.928706,5.001162,-0.942457,0.707285,-0.199555
17636,-1.446632,-8.947010,5.157057,-0.392215,0.622962,-0.246570
17637,-1.458359,-8.291546,5.297676,0.115764,0.509208,-0.296668
17638,-1.296974,-7.422094,5.598306,0.392656,0.377385,-0.360629
17639,-0.691787,-6.755362,6.500184,0.552941,0.296908,-0.389251
17640,-0.433661,-6.638643,8.154706,0.608122,0.325952,-0.336894
17641,-0.797090,-6.781459,8.869966,0.358042,0.440367,-0.264856
17642,-1.134794,-6.716157,8.168173,0.087916,0.516261,-0.256682
17643,-1.056153,-6.438535,7.776220,0.061155,0.543258,-0.274216
17644,-0.871246,-6.362733,7.728085,-0.040287,0.536755,-0.309439
17645,-0.641466,-6.654713,7.499111,-0.136564,0.513077,-0.356611
17646,-0.541145,-7.029985,7.197827,-0.091531,0.517549,-0.385451
17647,-0.767001,-7.138535,6.776059,0.090196,0.515961,-0.405212
17648,-0.892997,-6.945319,6.639915,0.318933,0.497626,-0.439851
17649,-0.896753,-6.544439,6.324359,0.426067,0.484576,-0.463955
17650,-0.905437,-6.214070,6.119806,0.440618,0.482081,-0.475652
17651,-0.772128,-5.887331,5.972715,0.347937,0.503399,-0.471931
17652,-0.494472,-5.440108,5.773450,0.222356,0.583226,-0.509404
17653,-0.458924,-5.115012,5.736985,0.029385,0.646479,-0.557739
17654,-0.523750,-5.313283,6.196229,-0.303816,0.671004,-0.586338
17655,-0.686786,-6.085984,6.829516,-0.629637,0.693330,-0.575831
17656,-0.931051,-7.003751,6.932704,-0.819237,0.720446,-0.539265
17657,-1.106663,-7.401270,6.815155,-0.845717,0.791638,-0.501637
17658,-1.498534,-7.369941,7.097511,-0.793714,0.822353,-0.485376
17659,-1.848368,-7.643336,6.861532,-0.843628,0.764016,-0.485870
17660,-1.817687,-7.982119,6.443342,-0.783621,0.698103,-0.468738
17661,-1.621453,-8.308634,6.321214,-0.562728,0.624138,-0.435915
17662,-1.263236,-8.526490,6.115217,-0.289726,0.576613,-0.421497
17663,-1.001056,-8.444522,6.028717,-0.022152,0.575532,-0.410322
17664,-0.823701,-8.161391,6.006332,0.137192,0.607604,-0.421426
17665,-0.824614,-7.769318,6.370951,0.210053,0.634169,-0.430493
17666,-1.011812,-7.327914,6.501919,0.179774,0.681394,-0.460151
17667,-1.141416,-6.770666,6.313444,0.022716,0.723453,-0.485073
17668,-1.263305,-6.296195,6.037793,-0.201388,0.741486,-0.487132
17669,-1.228442,-6.304818,5.527881,-0.471308,0.728924,-0.481952
17670,-1.142002,-6.720250,4.973798,-0.603596,0.686546,-0.480934
17671,-0.989303,-7.420258,5.242702,-0.575809,0.612083,-0.455100
17672,-0.872141,-8.041305,5.753829,-0.543742,0.618851,-0.416513
17673,-1.019367,-8.222587,5.971358,-0.425639,0.720427,-0.401257
17674,-1.710073,-7.952693,6.323058,-0.362655,0.757326,-0.399205
17675,-2.288111,-8.112060,6.426910,-0.427524,0.646560,-0.420227
17676,-2.421622,-8.673669,6.231836,-0.386848,0.500390,-0.401655
17677,-2.274200,-9.232714,5.730078,-0.175476,0.356136,-0.375485
17678,-1.767441,-9.507157,5.489992,0.220444,0.254137,-0.348528
17679,-1.149253,-9.230137,5.726730,0.676792,0.229750,-0.323583
17680,-0.758283,-8.513415,6.061595,0.981047,0.246153,-0.331833
17681,-0.663172,-7.600876,6.483772,1.112709,0.312533,-0.342836
17682,-0.959956,-6.944281,6.687903,0.960861,0.365034,-0.331251
17683,-1.283105,-6.841461,6.155127,0.609127,0.356723,-0.306390
17684,-1.271737,-6.936456,5.584850,0.341230,0.350164,-0.278592
17685,-1.072101,-6.693861,5.055401,0.119409,0.389017,-0.255757
17686,-0.861142,-6.030882,4.269919,-0.088289,0.416603,-0.277476
17687,-0.303503,-5.016397,3.958762,-0.264199,0.462576,-0.366841
17688,-0.235274,-4.607034,4.249664,-0.517428,0.463379,-0.471901
17689,-1.041085,-5.934967,4.862668,-0.917050,0.303179,-0.509899
17690,-2.038435,-8.571075,5.403006,-1.105761,0.104816,-0.453603
17691,-2.433179,-10.964370,5.772216,-0.660425,0.015322,-0.309971
17692,-2.264078,-11.289895,6.189083,0.152436,0.018963,-0.152539
17693,-1.748674,-9.716682,6.436760,0.598859,0.051716,-0.109843
17694,-1.153057,-8.073185,6.339729,0.622186,0.039685,-0.137380
17695,-0.681290,-7.288027,6.116086,0.358207,0.003227,-0.177034
17696,-0.526063,-7.538422,5.911255,0.119062,0.002807,-0.210116
17697,-0.790223,-8.162924,5.939406,0.044132,0.034213,-0.227173
17698,-1.251881,-8.601487,5.995603,0.087069,0.063044,-0.186020
17699,-1.594999,-8.479403,6.054945,0.193977,0.085654,-0.158330
17700,-1.619376,-7.991128,5.908974,0.220159,0.089515,-0.124310
17701,-1.438688,-7.157129,4.952806,0.144945,0.066213,-0.103328
17702,-0.815819,-5.902328,4.224819,0.153912,0.026463,-0.121816
17703,-0.106267,-4.571149,4.394491,0.104297,0.061331,-0.205967
17704,-0.473260,-4.837476,5.121994,-0.414422,0.011370,-0.278721
17705,-1.501481,-7.472452,5.676751,-1.084552,-0.167349,-0.272179
17706,-1.972143,-10.813045,5.891246,-0.966779,-0.271830,-0.156540
17707,-1.711399,-11.863458,6.097306,-0.093033,-0.186706,-0.004788
17708,-1.500839,-10.032195,6.425364,0.506449,-0.061425,0.052940
17709,-1.129634,-7.963336,6.389048,0.646582,-0.114576,0.006041
17710,-0.368778,-6.824555,6.645067,0.449788,-0.229229,-0.032475
17711,-0.097393,-6.867093,6.529787,0.111065,-0.231537,-0.033580
17712,-0.483103,-7.411240,6.227985,-0.012607,-0.182443,-0.021505
17713,-1.098997,-7.824909,6.211405,-0.004272,-0.158052,0.026061
17714,-1.507760,-8.006344,6.247542,0.088288,-0.202943,0.058268
17715,-1.287222,-7.906316,6.231621,0.238094,-0.296333,0.105656
17716,-0.768055,-7.505317,6.145646,0.341343,-0.376633,0.137214
17717,-0.183202,-7.029133,6.219115,0.446731,-0.389574,0.153987
17718,-0.023753,-6.513134,6.405373,0.524976,-0.361078,0.151851
17719,-0.383915,-6.551725,6.581186,0.317644,-0.348449,0.168668
17720,-1.063145,-7.327936,6.046528,-0.004819,-0.353604,0.210192
17721,-1.448002,-8.246877,5.691819,-0.056016,-0.395187,0.243327
17722,-1.441406,-8.820170,5.594405,0.004994,-0.416609,0.271466
17723,-1.328397,-8.914143,5.198216,0.104980,-0.407981,0.284782
17724,-1.105287,-8.524840,4.896685,0.227098,-0.408747,0.261600
17725,-0.926450,-8.234648,4.574801,0.159225,-0.382681,0.264620
17726,-1.035917,-8.338839,3.749461,-0.128090,-0.355334,0.312923
17727,-1.149253,-8.652051,2.910037,-0.461552,-0.345359,0.353623
17728,-1.058770,-9.015991,3.211255,-0.608086,-0.383436,0.318908
17729,-0.790626,-8.876852,4.443077,-0.614825,-0.342985,0.187580
17730,-0.827245,-8.210839,5.732417,-0.607103,-0.200872,0.065737
17731,-1.118569,-7.454749,7.098824,-0.634040,-0.061302,0.023436
17732,-1.265075,-6.927776,7.746539,-0.790809,0.019941,0.040853
17733,-0.879212,-6.543335,8.327913,-0.751926,0.049458,0.083098
17734,-0.242413,-6.099101,8.941727,-0.585550,0.003184,0.130432
17735,0.323238,-5.633255,9.133243,-0.490357,-0.025975,0.129217
17736,0.420180,-5.381907,8.712029,-0.530666,0.019334,0.070819
17737,-0.313529,-6.272480,7.377260,-0.609521,-0.049731,0.030308
17738,-0.842127,-7.721583,6.261619,-0.405047,-0.251679,0.042065
17739,-0.628832,-8.487256,5.392438,0.071391,-0.364388,0.050358
17740,-0.460968,-8.302255,4.500742,0.671138,-0.383600,0.038208
17741,-0.453710,-7.588119,4.227332,1.060747,-0.453349,0.020916
17742,-0.239674,-7.186503,4.988582,1.092182,-0.527857,0.017842
17743,-0.060508,-7.551542,5.704987,0.906822,-0.522555,0.056599
17744,-0.166315,-8.002940,6.338567,0.828598,-0.436969,0.105333
17745,-0.401581,-7.931907,7.050440,0.784589,-0.339026,0.133693
17746,-0.622152,-7.412594,7.589134,0.657965,-0.263932,0.108001
17747,-0.673554,-6.778365,7.741538,0.454329,-0.224571,0.045700
17748,-0.572641,-6.420760,7.608103,0.226607,-0.196607,-0.020486
17749,-0.527933,-6.434773,7.180814,0.030069,-0.166506,-0.060936
17750,-0.544234,-6.673689,6.523560,-0.028767,-0.160571,-0.076083
17751,-0.538817,-6.979596,6.043363,0.027354,-0.176689,-0.058387
17752,-0.587426,-7.383626,5.750444,0.168463,-0.189454,-0.039563
17753,-0.762959,-7.817190,5.773997,0.367696,-0.214629,-0.012159
17754,-1.113315,-8.342948,6.008819,0.585422,-0.257945,-0.002155
17755,-1.922715,-8.734686,6.011587,0.735759,-0.389550,0.007899
17756,-2.888004,-8.671202,4.640300,0.642067,-0.579864,-0.000138
17757,-3.098362,-8.934223,3.287624,0.485372,-0.765713,-0.029060
17758,-2.313348,-9.473118,2.775137,0.580126,-0.912865,0.032919
17759,-1.002360,-9.517483,3.219008,0.883992,-0.998884,0.151043
17760,0.187501,-8.500455,4.316756,1.143767,-0.951441,0.239377
17761,0.874479,-7.115344,5.829577,1.156938,-0.812653,0.249480
17762,1.060727,-6.098790,7.440437,0.779491,-0.599931,0.250988
17763,0.846613,-5.779932,8.777656,0.008448,-0.335471,0.280475
17764,0.458475,-6.168017,9.495450,-0.725021,-0.060552,0.329913
17765,0.065198,-6.515932,10.077702,-1.026520,0.115520,0.357411
17766,0.029733,-6.301860,10.313717,-1.045278,0.175337,0.348759
17767,0.127854,-5.955896,10.031380,-1.092121,0.196408,0.323321
17768,0.090457,-6.025452,8.967757,-1.234860,0.232167,0.298730
17769,-0.265464,-6.824448,7.213941,-1.203878,0.183558,0.255942
17770,-0.479116,-7.783505,5.617641,-0.772195,0.041764,0.190554
17771,-0.659909,-8.121912,4.644498,-0.138330,-0.145526,0.133452
17772,-0.792319,-7.895547,3.856830,0.324932,-0.366682,0.059833
17773,-0.741216,-8.031828,3.599282,0.659027,-0.581637,0.036848
17774,-0.601242,-8.336397,4.056105,1.018179,-0.760472,0.063242
17775,-0.327464,-8.345187,4.989109,1.314695,-0.890213,0.110468
17776,-0.116555,-7.939945,6.229103,1.482399,-0.897874,0.150493
17777,-0.007816,-7.272847,7.526808,1.489887,-0.788503,0.167635
17778,0.044139,-6.470598,8.680222,1.345340,-0.631131,0.174268
17779,0.139776,-5.642665,9.394221,1.084840,-0.474529,0.175727
17780,0.267513,-5.026196,9.518266,0.742368,-0.343876,0.176876
17781,0.515960,-4.864154,9.384680,0.362178,-0.184910,0.186492
17782,0.656340,-5.323223,8.648031,-0.064468,-0.019806,0.223281
17783,0.612408,-6.053130,7.564092,-0.352711,0.053191,0.287225
17784,0.408805,-6.665443,6.359799,-0.433174,0.027108,0.336786
17785,0.223641,-7.072085,5.504442,-0.342232,-0.006362,0.317123
17786,-0.055696,-7.411396,5.224648,-0.210883,-0.061581,0.297526
17787,-0.357374,-7.857287,5.138933,-0.061681,-0.143696,0.301557
17788,-0.773197,-8.252441,5.115637,0.102398,-0.249099,0.328227
17789,-1.207456,-8.563195,5.083203,0.179734,-0.413180,0.380740
17790,-1.486354,-8.724960,4.804936,0.246532,-0.606087,0.403257
17791,-1.477505,-8.658912,4.901441,0.408467,-0.804274,0.420481
17792,-1.275782,-8.402137,5.043657,0.556539,-0.961305,0.435838
17793,-0.848643,-7.920729,5.408465,0.742091,-1.027450,0.449738
17794,-0.406594,-7.131080,6.772076,0.907656,-0.950549,0.428848
17795,-0.005795,-6.420987,8.366988,0.851740,-0.792320,0.398394
17796,0.399448,-6.065841,9.756475,0.629433,-0.591993,0.431644
17797,0.772425,-5.921130,10.897852,0.235392,-0.347410,0.529086
17798,0.879295,-6.163796,10.923315,-0.349816,-0.059825,0.679255
17799,0.279986,-6.830745,9.742482,-0.813114,0.145199,0.798264
17800,-0.328896,-7.567170,8.236600,-0.956005,0.222105,0.870389
17801,-1.002759,-7.911997,7.118201,-0.846782,0.176981,0.887547
17802,-1.531042,-8.300896,6.027968,-0.703326,-0.047610,0.896903
17803,-1.739321,-8.692409,4.646683,-0.320147,-0.379069,0.867924
17804,-1.524395,-8.328091,4.275592,0.286737,-0.683853,0.807874
17805,-0.997737,-7.414770,4.363531,0.721980,-0.891006,0.738782
17806,-0.325757,-6.528933,5.149390,0.988075,-0.980141,0.699007
17807,0.153673,-5.978389,6.175975,1.026529,-0.927193,0.681553
17808,0.430530,-5.447420,7.277337,0.885809,-0.745252,0.673795
17809,0.556764,-4.865716,8.616814,0.590142,-0.507486,0.694576
17810,0.513755,-5.048248,10.030193,-0.024466,-0.230455,0.782814
17811,0.175470,-6.392504,9.786264,-0.641441,-0.025376,0.903964
17812,-0.421143,-7.499332,8.850932,-0.662311,0.024088,1.019134
17813,-1.106038,-7.731941,7.878245,-0.499663,-0.054027,1.077789
17814,-1.344958,-7.747041,7.063379,-0.336116,-0.190591,1.112911
17815,-1.348745,-7.593960,6.415765,-0.214323,-0.315900,1.141290
17816,-1.621844,-7.197401,5.614174,-0.002728,-0.487397,1.047833
17817,-1.464899,-6.810801,5.607402,0.191837,-0.594098,0.935464
17818,-0.997885,-6.603106,5.977469,0.253209,-0.663828,0.894479
17819,-0.352200,-6.485469,6.173133,0.314397,-0.703293,0.885744
17820,-0.152376,-6.112830,6.907944,0.390788,-0.622571,0.841064
17821,-0.302697,-6.139936,7.312951,0.273731,-0.515620,0.753763
17822,-0.460167,-6.062194,7.436928,0.259571,-0.474109,0.666479
17823,-0.553038,-5.823997,8.135432,0.201377,-0.488954,0.565916
17824,-0.463103,-5.844020,8.148985,0.068754,-0.517659,0.540216
17825,-0.739547,-6.299253,8.456096,-0.117815,-0.485526,0.571906
17826,-1.061763,-7.123760,8.275673,-0.205079,-0.513849,0.624215
17827,-1.021965,-7.739002,8.014896,-0.053330,-0.621577,0.665012
17828,-1.043817,-7.979914,7.192936,0.188906,-0.681746,0.703181
17829,-1.281928,-7.286729,6.738840,0.588127,-0.704922,0.724880
17830,-1.438435,-6.117509,6.683916,0.784540,-0.730631,0.720289
17831,-0.933594,-5.153350,6.684470,0.742665,-0.804527,0.693366
17832,-0.323215,-4.819868,7.162677,0.482422,-0.780557,0.655236
17833,-0.015102,-5.034480,7.104292,0.267414,-0.661888,0.618608
17834,-0.188177,-5.363734,7.041000,0.182815,-0.597956,0.550351
17835,-0.490690,-5.601456,6.981115,0.120613,-0.594133,0.473433
17836,-0.463081,-5.828480,6.690751,0.104571,-0.661041,0.388426
17837,0.328564,-5.996344,6.625736,0.176449,-0.699301,0.310438
17838,0.852084,-5.546299,7.329667,0.256818,-0.595159,0.249199
17839,0.542831,-5.125838,7.797031,0.147560,-0.407868,0.207472
17840,0.016753,-5.456380,8.080365,-0.051613,-0.310863,0.166834
17841,-0.583567,-6.127246,7.949084,-0.076440,-0.322523,0.149594
17842,-0.913333,-6.434097,7.711752,0.127987,-0.442447,0.095543
17843,-0.685017,-6.308482,7.554405,0.317600,-0.594060,0.043657
17844,-0.557736,-6.180099,7.403803,0.445654,-0.694058,0.004573
17845,-0.166238,-5.773875,7.394531,0.608259,-0.751367,-0.008349
17846,0.845804,-4.686753,7.538702,0.672209,-0.674643,0.019731
17847,1.349093,-3.833257,7.122153,0.453053,-0.466388,0.053877
17848,0.856800,-3.742259,6.803590,0.151209,-0.273409,-0.000459
17849,0.410966,-4.355886,6.863523,-0.011880,-0.184108,-0.115379
17850,0.090599,-4.857912,7.577460,-0.075454,-0.161342,-0.225692
17851,-0.026517,-5.487478,7.187225,-0.103394,-0.217114,-0.317048
17852,-0.518301,-6.158434,7.610053,-0.081626,-0.211306,-0.375458
17853,-0.808716,-7.197988,8.906403,-0.098575,-0.237569,-0.378632
17854,-0.766919,-7.835697,9.414039,0.087247,-0.278681,-0.321442
17855,-1.002352,-7.911864,9.667583,0.257151,-0.295121,-0.228887
17856,-1.314587,-7.981147,9.206261,0.398665,-0.441328,-0.138041
17857,-0.485903,-7.209940,8.367041,0.709436,-0.650961,-0.067365
17858,0.585818,-5.703675,7.688338,0.840662,-0.690503,-0.029357
17859,1.235523,-4.496735,7.024430,0.774826,-0.650383,-0.036840
17860,2.113242,-3.312385,6.018224,0.719091,-0.635122,-0.146524
17861,2.858282,-1.852207,5.227235,0.565335,-0.503732,-0.323603
17862,2.953547,-0.864471,5.346560,0.169707,-0.262970,-0.517821
17863,2.496139,-1.489151,6.302194,-0.429833,0.035834,-0.695668
17864,1.583749,-3.396317,6.714917,-0.740580,0.245020,-0.864491
17865,0.700742,-5.243910,8.126587,-0.895567,0.401748,-0.937808
17866,-0.085033,-6.900257,9.299071,-0.886236,0.414857,-0.900279
17867,-0.574990,-7.898983,10.059545,-0.735545,0.358322,-0.770557
17868,-1.073126,-8.632780,10.145686,-0.636174,0.283279,-0.606506
17869,-1.868585,-9.199467,9.174973,-0.389490,0.059133,-0.462142
17870,-1.963779,-8.835549,8.267540,0.048424,-0.333514,-0.398826
17871,-0.699853,-7.965673,8.021557,0.339316,-0.642156,-0.330879
17872,-0.215460,-7.022673,7.436141,0.556166,-0.760060,-0.268407
17873,0.285412,-6.005478,7.000308,0.759698,-0.878499,-0.316153
17874,1.494320,-4.652409,6.659941,0.824528,-0.923607,-0.390732
17875,2.805670,-3.153456,6.268750,0.760839,-0.858206,-0.512207
17876,3.993312,-2.054261,6.673038,0.405754,-0.597024,-0.637912
17877,4.274875,-2.402444,7.307852,-0.162897,-0.190212,-0.749718
17878,3.687592,-3.631890,7.501146,-0.394200,0.118955,-0.865169
17879,2.917958,-4.478841,8.016889,-0.442233,0.318742,-0.986645
17880,2.297593,-5.159712,8.496801,-0.438980,0.429611,-1.066877
17881,1.090552,-6.008275,8.735364,-0.444558,0.528734,-1.133112
17882,0.023374,-6.768775,8.855695,-0.319013,0.412201,-1.212482
17883,0.080081,-7.162437,8.994655,-0.103349,0.139963,-1.225272
17884,0.338116,-7.492653,8.959536,0.062533,-0.005829,-1.155038
17885,0.234761,-7.865022,8.763577,0.240231,-0.157071,-1.055416
17886,0.661638,-7.787317,8.416187,0.509697,-0.342470,-0.968962
17887,1.094771,-6.950999,7.892475,0.781923,-0.471229,-0.909313
17888,1.329646,-5.855662,7.458494,0.909334,-0.518891,-0.898607
17889,1.328262,-4.919187,6.289968,0.969323,-0.590602,-0.991057
17890,2.050181,-3.669546,5.991789,1.065494,-0.694059,-1.141653
17891,3.057821,-2.478582,6.209291,0.897585,-0.679359,-1.302901
17892,3.848044,-2.046000,6.551692,0.467532,-0.507006,-1.405250
17893,3.970923,-2.624787,7.077024,-0.075972,-0.272760,-1.424584
17894,3.754584,-3.861158,7.527358,-0.452968,-0.099688,-1.392365
17895,3.376752,-4.895759,7.931946,-0.545334,0.009467,-1.340633
17896,2.729155,-5.553700,8.186636,-0.562333,0.090024,-1.278611
17897,2.168269,-6.195114,8.576573,-0.497784,0.116480,-1.285172
17898,1.744963,-6.395768,9.189319,-0.325235,0.036752,-1.296977
17899,1.597693,-6.501415,9.227032,-0.167286,-0.116946,-1.273669
17900,1.800934,-6.548405,8.960518,0.030631,-0.263858,-1.235032
17901,1.890533,-6.407338,8.559470,0.266473,-0.382301,-1.205494
17902,2.336408,-5.815435,8.052969,0.479680,-0.545160,-1.196804
17903,3.113841,-5.209872,7.562035,0.583833,-0.638680,-1.203337
17904,3.716838,-4.496914,6.816719,0.650987,-0.662950,-1.250689
17905,4.229455,-3.721377,6.469994,0.663958,-0.651080,-1.330595
17906,4.358052,-3.248516,6.390300,0.579745,-0.600420,-1.436217
17907,4.516679,-3.030574,6.531721,0.414395,-0.553415,-1.530348
17908,4.686464,-3.128096,6.985619,0.234173,-0.493477,-1.559755
17909,4.326659,-3.485182,7.087536,-0.014005,-0.413326,-1.544613
17910,3.774622,-3.824278,7.823206,-0.119699,-0.371668,-1.558744
17911,3.391245,-4.328327,8.792246,-0.284032,-0.409471,-1.578101
17912,3.562582,-5.137890,8.622637,-0.399601,-0.501735,-1.535400
17913,3.849458,-5.835469,8.269559,-0.193933,-0.603675,-1.465931
17914,4.078238,-5.972765,8.123303,0.102605,-0.691296,-1.400285
17915,4.120232,-5.747122,7.801467,0.325126,-0.776602,-1.363703
17916,3.839460,-5.353485,7.564372,0.543432,-0.887677,-1.369495
17917,3.524209,-4.896474,7.343803,0.715819,-1.071833,-1.397549
17918,3.874371,-4.531204,6.885948,0.812791,-1.246824,-1.404748
17919,4.473186,-3.852297,5.903798,0.900612,-1.362042,-1.442707
17920,5.061641,-3.178379,5.482115,1.029902,-1.372705,-1.460276
17921,5.536984,-2.447163,5.339616,1.035061,-1.335934,-1.447000
17922,5.899084,-1.973671,5.596597,0.865620,-1.242064,-1.387920
17923,5.928804,-2.017828,6.228229,0.558540,-1.111351,-1.280825
17924,5.671500,-2.158586,6.825673,0.307525,-0.890880,-1.247089
17925,5.591690,-2.001963,8.334992,0.202901,-0.716503,-1.239396
17926,5.850254,-1.624210,9.946921,-0.033220,-0.592774,-1.145643
17927,6.099755,-1.964041,10.708370,-0.660377,-0.379339,-0.979468
17928,6.050286,-3.323267,10.643048,-1.238977,-0.159400,-0.830223
17929,5.854028,-4.591753,10.060488,-1.376863,-0.119217,-0.722597
17930,5.657671,-5.686035,8.935277,-1.188746,-0.181323,-0.665483
17931,5.463725,-6.565183,7.890010,-0.733568,-0.327507,-0.624427
17932,5.194371,-6.610562,6.912936,-0.084898,-0.571035,-0.619780
17933,5.464240,-5.779401,6.245803,0.466585,-0.812608,-0.631846
17934,5.647958,-4.548914,5.455282,0.861588,-0.966277,-0.659150
17935,6.013447,-3.306109,4.746645,1.133207,-1.097952,-0.724122
17936,6.484634,-2.058870,4.244025,1.229877,-1.182932,-0.788982
17937,6.962083,-0.956201,3.935472,1.123263,-1.208395,-0.806835
17938,7.117522,-0.364213,4.396076,0.778251,-1.106173,-0.740934
17939,6.861939,-0.463733,5.136412,0.181615,-0.862638,-0.673398
17940,6.411492,-1.007854,5.990057,-0.196989,-0.612374,-0.657175
17941,6.135809,-1.354560,7.792674,-0.311863,-0.440900,-0.581491
17942,6.227303,-1.470062,9.305150,-0.573804,-0.358281,-0.467071
17943,6.553860,-1.704781,9.170033,-1.000869,-0.289068,-0.341776
17944,7.004858,-2.415011,8.768426,-1.247569,-0.236683,-0.253985
17945,7.309191,-3.391622,8.722163,-1.198246,-0.213928,-0.227806
17946,7.255571,-4.389270,8.235638,-0.892564,-0.237678,-0.280097
17947,6.778993,-4.467166,7.102494,-0.507247,-0.326463,-0.395514
17948,6.213475,-3.918151,6.031862,-0.241958,-0.524283,-0.489956
17949,5.884329,-3.627968,5.117348,-0.111497,-0.820552,-0.532426
17950,6.171386,-3.684563,4.056334,0.045473,-1.121867,-0.557501
17951,6.984181,-3.595581,3.027605,0.375864,-1.345791,-0.573576
17952,7.500658,-2.980221,2.591517,0.854814,-1.418509,-0.602231
17953,7.607499,-1.848232,2.737384,1.175663,-1.390431,-0.609649
17954,7.674143,-0.747800,3.707423,1.139479,-1.314253,-0.572498
17955,7.805616,-0.069526,4.947431,0.721789,-1.209456,-0.463536
17956,7.932855,0.034082,6.116395,-0.099333,-0.954363,-0.340277
17957,8.069481,-0.455868,6.918457,-0.976541,-0.708951,-0.165105
17958,8.271088,-1.369146,6.839898,-1.521586,-0.554762,-0.015769
17959,8.420977,-2.218432,6.553849,-1.759553,-0.400803,0.080110
17960,8.230327,-2.772306,6.717337,-1.647839,-0.297796,0.054947
17961,7.952671,-3.198564,7.591367,-1.347920,-0.272011,-0.020551
17962,7.821667,-3.641798,8.163768,-1.198113,-0.262509,-0.072625
17963,7.744583,-4.051598,7.799589,-1.147671,-0.289909,-0.098689
17964,7.588189,-4.265079,6.682673,-1.048018,-0.374096,-0.111717
17965,7.361639,-4.343473,5.538851,-0.903783,-0.440285,-0.108472
17966,7.083311,-4.376069,4.508335,-0.671172,-0.638557,-0.126986
17967,7.099265,-4.195948,3.085907,-0.295985,-0.913648,-0.189391
17968,7.349842,-3.476085,1.816535,-0.026988,-1.124514,-0.289801
17969,7.793275,-2.706326,1.103440,0.046605,-1.208398,-0.338758
17970,8.163313,-2.221697,1.355689,0.154936,-1.218966,-0.268835
17971,8.487552,-2.241254,2.900063,0.365378,-1.167455,-0.144581
17972,9.133428,-2.266844,4.852184,0.600516,-1.069372,-0.084061
17973,9.853070,-1.935668,7.161363,0.683018,-0.848911,0.040447
17974,10.005895,-1.069572,9.000689,0.271296,-0.493840,0.168746
17975,9.550852,-0.293732,9.514271,-0.676104,-0.139310,0.236131
17976,8.971978,-0.485349,8.560922,-1.684758,0.085581,0.256549
17977,8.531746,-1.562318,7.015290,-2.272834,0.132134,0.193714
17978,8.492594,-2.951485,5.580591,-2.426371,0.042620,0.113780
17979,8.383374,-4.149138,4.290588,-2.249578,-0.104176,0.038218
17980,8.136397,-4.883191,2.851021,-1.791129,-0.280402,-0.038248
17981,7.853475,-5.199933,1.586895,-1.145721,-0.434590,-0.096052
17982,7.693465,-5.161057,0.788726,-0.500755,-0.560182,-0.103409
17983,7.775001,-4.605846,0.575247,-0.016879,-0.662617,-0.051579
17984,8.116311,-3.831773,0.779029,0.369957,-0.818096,-0.013153
17985,8.682585,-3.123844,1.822868,0.806546,-0.959356,-0.022621
17986,9.367212,-2.486893,3.887877,1.242968,-0.927358,-0.010717
17987,9.731160,-1.860430,6.612636,1.228005,-0.653609,0.074385
17988,9.312396,-1.154113,8.219612,0.303584,-0.296844,0.181857
17989,8.857699,-0.918893,8.132277,-1.162849,-0.009946,0.281587
17990,8.617622,-1.671615,6.971809,-2.230442,0.143956,0.345611
17991,8.794900,-2.893797,5.856804,-2.510486,0.124853,0.354291
17992,8.955767,-4.153025,4.793749,-2.227127,0.028049,0.317630
17993,8.843543,-5.089363,3.549266,-1.704998,-0.089150,0.202241
17994,8.563206,-5.630088,2.337386,-1.102077,-0.243439,0.016017
17995,8.482653,-5.676589,1.052331,-0.259841,-0.416300,-0.154235
17996,8.442143,-5.138636,0.820715,0.828345,-0.610880,-0.197107
17997,8.435112,-3.935781,1.437324,1.522726,-0.739172,-0.225079
17998,8.435348,-2.605915,2.017823,1.732382,-0.804396,-0.212875
17999,8.659036,-1.453028,2.428912,1.543799,-0.786452,-0.201264
18000,8.988410,-0.521940,3.171488,1.050855,-0.650025,-0.186787
18001,9.314931,-0.149292,3.967152,0.237538,-0.425714,-0.108914
18002,9.230724,-0.394264,4.688276,-0.954070,-0.119407,0.050477
18003,8.877706,-1.276944,4.543492,-2.163335,0.172083,0.158856
18004,8.638601,-2.276449,3.894308,-2.883061,0.287533,0.231266
18005,8.589952,-3.244207,2.958135,-2.954067,0.266409,0.212424
18006,8.754761,-4.129884,2.359863,-2.332726,0.122901,0.134981
18007,8.909087,-4.650877,2.758459,-1.500270,-0.016490,0.034350
18008,8.860531,-4.834336,3.626260,-1.019194,-0.083715,-0.035880
18009,8.585281,-5.337061,3.924216,-0.805937,-0.117456,-0.042334
18010,8.161280,-5.958770,3.745747,-0.535483,-0.200752,-0.018281
18011,7.966487,-6.072753,2.831833,-0.055947,-0.350677,-0.033833
18012,8.269842,-5.159248,1.749300,0.539732,-0.496130,-0.086534
18013,8.657631,-3.456980,1.228315,0.888721,-0.549847,-0.177318
18014,9.236349,-1.979791,1.285578,1.057384,-0.607028,-0.275793
18015,9.903308,-1.023517,1.967975,0.976826,-0.574584,-0.280872
18016,10.102402,-0.671051,2.904660,0.415413,-0.363656,-0.169651
18017,9.578186,-0.964235,3.425395,-0.616488,-0.132519,-0.077111
18018,9.028447,-1.712039,3.034123,-1.518828,-0.000894,-0.040705
18019,8.729513,-2.769147,2.686098,-1.987965,0.066068,0.040194
18020,8.433476,-3.997704,2.170524,-2.095841,0.068272,0.078999
18021,8.239274,-5.300953,1.927513,-1.724611,-0.086760,0.095779
18022,8.565266,-5.964148,2.417469,-1.096706,-0.260536,0.053140
18023,8.914789,-5.819071,3.078199,-0.581915,-0.308486,0.035230
18024,8.869946,-5.441854,3.512757,-0.157117,-0.291631,-0.002540
18025,8.923366,-4.886968,3.837509,0.235116,-0.292878,-0.032475
18026,9.108591,-4.291217,3.962382,0.464081,-0.271660,-0.023857
18027,9.105827,-3.665671,3.546360,0.461742,-0.201693,-0.006220
18028,9.059225,-3.049616,2.785992,0.359301,-0.122271,-0.007901
18029,9.072941,-2.481087,2.169859,0.246071,-0.108794,-0.036641
18030,9.358451,-2.059496,1.601507,-0.006421,-0.095462,-0.045479
18031,9.721112,-1.770129,1.222023,-0.288587,-0.081631,-0.042876
18032,9.792339,-1.946190,1.667651,-0.506232,-0.063664,-0.030747
18033,9.401581,-2.900828,2.324484,-0.819510,-0.060523,-0.012193
18034,8.812765,-4.505592,2.500292,-1.018957,-0.085117,0.053894
18035,8.411334,-6.101169,2.705201,-0.625466,-0.157080,0.050602
18036,8.740979,-6.122310,3.294242,0.013079,-0.158349,0.013523
18037,8.864963,-5.190516,3.601111,0.241174,-0.096071,0.039323
18038,8.885654,-4.362517,3.219057,0.326533,-0.109643,0.020801
18039,9.137631,-3.605627,2.590099,0.379204,-0.130091,-0.024342
18040,9.161506,-3.109574,1.958890,0.323581,-0.120536,-0.008844
18041,9.110432,-3.067999,1.296340,0.241451,-0.134732,0.010718
18042,9.217775,-3.196586,1.116170,0.219981,-0.122739,0.021163
18043,9.252132,-3.062011,1.220365,0.235573,-0.054016,-0.004802
18044,9.060357,-2.707545,1.528696,0.166349,-0.025707,-0.037042
18045,9.036697,-2.466833,2.027057,-0.060383,-0.029605,-0.048849
18046,8.974709,-2.885631,2.412195,-0.467268,-0.017101,-0.020288
18047,8.691499,-3.964014,2.279515,-0.729587,-0.022956,0.031809
18048,8.556944,-5.112204,2.349039,-0.555703,-0.062298,0.067389
18049,8.734027,-5.484047,2.744270,-0.177534,-0.088178,0.057116
18050,9.045911,-5.053948,2.917000,0.138913,-0.079748,0.041146
18051,9.131342,-4.262373,2.509749,0.320046,-0.038360,-0.002780
18052,8.978358,-3.388110,2.008836,0.446082,-0.033482,-0.047533
18053,9.028352,-2.765140,1.637048,0.422815,-0.080670,-0.078363
18054,9.191147,-2.555926,1.481766,0.249347,-0.056200,-0.068564
18055,9.038222,-2.663228,1.376773,0.001904,0.008794,-0.046093
18056,8.931625,-3.077203,1.424815,-0.207932,0.005645,-0.045567
18057,8.978965,-3.619221,1.509730,-0.365756,0.000141,-0.031812
18058,8.903802,-4.085118,1.737691,-0.357814,0.003319,-0.028158
18059,8.810908,-4.167896,2.208582,-0.226556,-0.003132,-0.042026
18060,8.722347,-4.236139,2.462622,-0.178217,-0.017954,-0.054274
18061,8.624747,-4.289123,2.228808,-0.113300,-0.036823,-0.053592
18062,8.647342,-4.193371,2.130210,0.018173,-0.078621,-0.049230
18063,8.656196,-4.097569,1.787522,0.079742,-0.109625,-0.039113
18064,8.735445,-3.924887,1.329073,0.177001,-0.130166,-0.043721
18065,8.932572,-3.577913,1.128840,0.287629,-0.146400,-0.046538
18066,9.125683,-3.081936,1.352730,0.343794,-0.146320,-0.056602
18067,9.298115,-2.760746,1.979436,0.279746,-0.128989,-0.076863
18068,9.230806,-2.700866,2.367867,0.097509,-0.086005,-0.087416
18069,9.234266,-2.594516,2.489670,-0.071091,-0.041885,-0.108026
18070,9.272645,-2.448120,2.491690,-0.165334,-0.013512,-0.139473
18071,9.448825,-2.405963,2.513676,-0.259967,0.009828,-0.164303
18072,9.488485,-2.591304,2.253620,-0.429651,0.074893,-0.163841
18073,9.135087,-3.122729,1.672899,-0.529285,0.069376,-0.154289
18074,8.990359,-3.948686,1.380927,-0.517306,0.005287,-0.114778
18075,8.914098,-4.683216,1.257205,-0.419319,-0.026008,-0.088516
18076,8.919494,-4.929942,1.343881,-0.193882,-0.019739,-0.079231
18077,8.883471,-4.529401,1.588899,-0.032928,0.006287,-0.066972
18078,8.879508,-4.067414,1.942100,-0.031863,0.000576,-0.058958
18079,8.963020,-3.795486,2.279711,-0.086948,-0.005318,-0.050229
18080,8.947204,-3.775823,2.251958,-0.154174,0.002978,-0.025883
18081,8.951035,-3.895018,1.991690,-0.151959,0.000013,-0.016092
18082,9.003908,-3.947465,1.982723,-0.084846,-0.009666,-0.005845
18083,9.125776,-3.996354,1.952374,-0.014764,-0.003733,-0.003255
18084,9.159290,-3.891980,1.962302,0.036445,0.016889,-0.009673
18085,9.106464,-3.767761,1.951517,0.070261,0.023250,-0.018104
18086,9.087387,-3.613970,2.017581,0.075923,0.021018,-0.019912
18087,9.104943,-3.588142,1.950625,0.043614,0.030366,-0.007533
18088,9.035441,-3.551142,1.932120,0.025122,0.021418,-0.007667
18089,9.035579,-3.624706,2.002289,0.013243,0.024737,-0.010670
18090,9.020439,-3.734743,1.873094,-0.008888,0.026865,-0.003701
18091,8.986333,-3.726750,1.778148,0.021179,0.027820,-0.004037
18092,9.002755,-3.711859,1.832497,0.062903,0.029257,-0.011085
18093,8.984794,-3.657924,1.841891,0.077693,0.033332,-0.016028
18094,8.916012,-3.615810,1.776097,0.072496,0.020491,-0.013189
18095,8.900565,-3.657261,1.678603,0.089426,0.005453,-0.015641
18096,8.986584,-3.603338,1.711561,0.116300,-0.005458,-0.016370
18097,9.020797,-3.532090,1.745408,0.140670,-0.010281,-0.020099
18098,9.036906,-3.410746,1.807546,0.135327,-0.003112,-0.021365
18099,9.002599,-3.336090,1.791711,0.109533,-0.005561,-0.027747
18100,9.021660,-3.383147,1.790733,0.083727,-0.008137,-0.030850
18101,9.093028,-3.407334,1.717411,0.053671,-0.009056,-0.032210
18102,9.131096,-3.499175,1.614351,0.050905,0.000479,-0.036759
18103,9.114789,-3.441018,1.595846,0.070549,0.004593,-0.051626
18104,9.131815,-3.355204,1.702163,0.072272,0.000968,-0.061646
18105,9.047307,-3.410171,1.821511,0.023821,0.007460,-0.062563
18106,8.986235,-3.630016,1.560887,-0.041973,0.007604,-0.058606
18107,8.923039,-3.752068,1.379721,-0.000327,0.000599,-0.057619
18108,8.938898,-3.639098,1.583416,0.056613,-0.017316,-0.062122
18109,8.989405,-3.485070,1.717025,0.069081,-0.019053,-0.062292
18110,9.023356,-3.384199,1.871256,0.053531,-0.012555,-0.068474
18111,8.992322,-3.448971,1.890971,0.001091,0.000145,-0.062557
18112,8.928302,-3.540302,1.761204,-0.032946,0.005372,-0.055445
18113,8.931821,-3.603117,1.731291,-0.024178,-0.001497,-0.054124
18114,8.950889,-3.620364,1.802622,0.014920,-0.010731,-0.051546
18115,8.987341,-3.655891,1.898171,0.022300,-0.000603,-0.049605
18116,8.957042,-3.752176,1.843287,0.017180,0.011015,-0.040907
18117,8.925235,-3.776833,1.745424,0.033045,0.017629,-0.035888
18118,8.924453,-3.705854,1.777485,0.053152,0.014334,-0.031258
18119,8.922760,-3.641538,1.906986,0.061917,0.007367,-0.026643
18120,9.010142,-3.653702,1.909345,0.044596,0.009136,-0.019833
