// Start Time: Unknown
// Update Rate: 100.0Hz
// Filter Profile: human (46.1)
// Firmware Version: 4.3.5
PacketCounter,Acc_X,Acc_Y,Acc_Z,Gyr_X,Gyr_Y,Gyr_Z
24143,9.796761,-0.232203,0.983151,-0.024618,0.025038,-0.079633
24144,9.811472,-0.273537,0.954534,-0.018184,0.024170,-0.080644
24145,9.832799,-0.343253,0.858532,-0.006184,0.019036,-0.081921
24146,9.840660,-0.358609,0.861810,0.004194,0.012789,-0.075636
24147,9.880108,-0.369046,0.794545,0.019936,0.012262,-0.070590
24148,9.880303,-0.409772,0.851514,0.030932,0.009779,-0.061596
24149,9.887679,-0.429397,0.819670,0.053911,0.003504,-0.057372
24150,9.864034,-0.404490,0.836372,0.071896,0.001729,-0.051472
24151,9.873202,-0.416464,0.907109,0.089292,-0.005103,-0.044772
24152,9.939311,-0.339257,0.882273,0.105273,-0.010774,-0.040957
24153,9.940130,-0.331220,0.915995,0.119852,-0.010472,-0.042246
24154,9.949569,-0.245615,0.908438,0.135562,-0.008402,-0.044222
24155,9.892596,-0.234551,0.891059,0.141108,-0.010119,-0.051507
24156,9.900984,-0.201499,0.870628,0.131369,-0.007609,-0.045900
24157,9.884491,-0.203033,0.853847,0.134230,-0.005145,-0.042370
24158,9.876757,-0.174863,0.851488,0.124153,-0.008025,-0.039380
24159,9.836044,-0.208237,0.872586,0.114407,-0.005489,-0.033770
24160,9.762952,-0.202877,0.873305,0.117182,-0.008773,-0.036295
24161,9.722544,-0.186489,0.872175,0.125628,-0.010557,-0.033014
24162,9.658206,-0.151392,0.886702,0.132127,-0.014004,-0.027009
24163,9.635658,-0.122259,0.969933,0.126869,-0.018767,-0.017433
24164,9.603613,-0.031645,0.925189,0.118318,-0.023052,0.000275
24165,9.581329,0.044608,0.985278,0.101601,-0.022411,0.012518
24166,9.654202,0.039292,0.947029,0.082331,-0.031986,0.027086
24167,9.662632,0.063702,0.923639,0.068107,-0.032943,0.036758
24168,9.710749,0.021965,0.888789,0.060602,-0.031598,0.043237
24169,9.736519,0.055641,0.915816,0.056408,-0.036801,0.047367
24170,9.794374,0.096408,0.906280,0.047720,-0.039483,0.049779
24171,9.836024,0.083214,0.937080,0.036540,-0.040527,0.054775
24172,9.902835,0.153328,0.941094,0.018279,-0.043208,0.054613
24173,9.958791,0.086462,0.907340,0.000294,-0.042724,0.052269
24174,9.928330,0.127563,0.951140,-0.017482,-0.041343,0.042973
24175,9.976352,0.085111,0.915205,-0.030286,-0.043229,0.028517
24176,9.935134,0.041476,0.898833,-0.043634,-0.041829,0.013910
24177,9.951918,-0.002066,0.933599,-0.051087,-0.038023,-0.001869
24178,9.935202,-0.058442,0.936152,-0.056058,-0.035851,-0.020231
24179,9.901728,-0.120780,0.922778,-0.062014,-0.030922,-0.028348
24180,9.899031,-0.228048,0.861592,-0.063510,-0.027249,-0.038269
24181,9.824225,-0.280194,0.814242,-0.062416,-0.024218,-0.042489
24182,9.840061,-0.372336,0.837940,-0.049540,-0.030780,-0.042297
24183,9.814789,-0.405950,0.804721,-0.038839,-0.024200,-0.042690
24184,9.774457,-0.439861,0.824259,-0.017784,-0.026061,-0.041563
24185,9.757948,-0.493128,0.827733,-0.000611,-0.026418,-0.037222
24186,9.743318,-0.490436,0.877410,0.028157,-0.032456,-0.023778
24187,9.753613,-0.355072,0.878520,0.046020,-0.026763,-0.011996
24188,9.806151,-0.225540,0.948686,0.055364,-0.026383,-0.006000
24189,10.082619,-0.132064,1.208406,0.062935,-0.005171,0.006780
24190,10.399901,-0.042913,1.836580,0.065286,0.066473,0.009134
24191,10.851675,-0.082575,2.503016,0.093851,0.195045,-0.025398
24192,10.713642,-0.202213,2.984736,0.182089,0.380129,-0.125023
24193,10.589283,-0.363786,2.830327,0.348993,0.533143,-0.229939
24194,10.023035,-0.481513,2.464726,0.585834,0.615540,-0.311015
24195,9.641261,-0.387052,2.004301,0.861620,0.610687,-0.343675
24196,9.624110,0.092511,1.539244,1.034152,0.552028,-0.368444
24197,9.407778,0.550303,0.902518,1.094939,0.482008,-0.402541
24198,9.218455,1.229222,0.177165,1.035823,0.385363,-0.430343
24199,9.277319,1.993442,-0.354660,0.852308,0.290389,-0.432218
24200,9.434831,2.108990,-0.548000,0.522183,0.203899,-0.401840
24201,9.573147,2.152588,-0.502239,0.138078,0.134774,-0.376618
24202,9.607996,1.905394,-0.231219,-0.278477,0.088143,-0.348339
24203,9.676183,1.335052,0.112576,-0.601343,0.054521,-0.317958
24204,9.733486,0.742604,0.399886,-0.807916,0.031160,-0.260676
24205,9.648976,0.043490,0.757383,-0.889484,0.017831,-0.211832
24206,9.567129,-0.578922,0.984446,-0.859343,0.005576,-0.157377
24207,9.533861,-0.858327,1.120205,-0.741004,-0.015800,-0.112711
24208,9.667323,-0.893552,1.434291,-0.586257,-0.018140,-0.073883
24209,10.106428,-0.993540,1.992345,-0.434879,0.016940,-0.032024
24210,10.163955,-1.082187,2.405683,-0.279931,0.097579,-0.007827
24211,10.081532,-0.783971,2.553438,-0.121391,0.153662,0.003413
24212,10.066614,-0.532979,2.315050,-0.032124,0.186980,0.029505
24213,10.070675,-0.522889,2.003644,0.036029,0.214493,0.063402
24214,10.080111,-0.385148,1.663244,0.081588,0.238929,0.090156
24215,9.923782,-0.292060,1.497546,0.113819,0.256849,0.098046
24216,9.754133,-0.116942,1.199899,0.130522,0.255955,0.109795
24217,9.353069,0.036236,0.630970,0.131410,0.222000,0.119105
24218,8.532451,0.274505,-0.444785,0.097309,0.117968,0.122105
24219,7.831090,0.349982,-1.702628,0.038716,-0.088179,0.140843
24220,7.853562,0.263854,-2.335223,-0.051467,-0.320628,0.187640
24221,8.727471,0.021899,-2.045621,-0.199447,-0.470693,0.256285
24222,9.213216,0.082298,-1.282474,-0.390499,-0.520335,0.315255
24223,9.459688,0.553836,-0.389693,-0.578805,-0.560918,0.355292
24224,9.912995,0.729128,0.414556,-0.803239,-0.594287,0.436232
24225,10.370161,0.135410,1.130392,-1.042244,-0.586689,0.524916
24226,10.651591,-0.658658,1.793305,-1.174787,-0.539674,0.576616
24227,10.841574,-0.948116,2.629547,-1.115762,-0.464906,0.582455
24228,11.118182,-1.129252,4.223037,-0.949138,-0.349634,0.568048
24229,11.745338,-1.313915,5.414395,-0.752761,-0.138453,0.532657
24230,11.401316,-1.258209,5.466943,-0.477055,0.079112,0.461150
24231,10.688520,-0.755658,4.263941,-0.144386,0.170044,0.391413
24232,10.479012,-0.812410,2.937185,0.145708,0.196261,0.328994
24233,10.861630,-1.353575,2.348729,0.396588,0.289848,0.268997
24234,10.777634,-0.577580,2.249660,0.527403,0.416004,0.201117
24235,9.798417,0.375129,1.134098,0.498393,0.471034,0.145924
24236,8.560527,0.792160,-0.559659,0.377568,0.379406,0.108961
24237,7.873751,0.410996,-2.045357,0.156956,0.206737,0.151098
24238,7.951702,-0.018306,-2.060040,-0.063721,0.051472,0.211618
24239,8.831155,0.052897,-1.359329,-0.393222,-0.024066,0.302364
24240,9.198848,0.602986,-0.939008,-0.713173,-0.046067,0.368777
24241,9.228992,0.538297,-0.784400,-0.999918,-0.127300,0.462986
24242,9.538613,-0.239523,-0.575349,-1.225887,-0.234563,0.525152
24243,9.778522,-0.877269,0.205131,-1.296777,-0.318796,0.517577
24244,10.057534,-1.363530,1.531574,-1.226868,-0.337281,0.457047
24245,10.664918,-1.048524,3.352611,-1.017060,-0.244308,0.357211
24246,10.676438,-0.638897,4.468736,-0.813951,-0.094042,0.252873
24247,10.460391,-0.415833,4.325089,-0.471024,-0.012548,0.121850
24248,10.838909,-0.587552,4.411984,-0.164330,0.103101,0.019751
24249,11.425547,-0.477973,4.557779,0.017704,0.298877,-0.070896
24250,11.228467,-0.046410,4.057023,0.137914,0.480141,-0.138673
24251,10.765170,0.023316,2.955155,0.141717,0.575144,-0.166551
24252,9.943624,-0.461920,1.147909,0.052848,0.595886,-0.153472
24253,8.532540,-1.272470,-1.280155,-0.033522,0.462640,-0.109121
24254,8.295804,-2.438132,-2.556893,-0.130532,0.228857,0.035589
24255,8.584499,-3.450872,-2.768329,-0.248864,0.068757,0.219647
24256,8.679164,-2.970086,-1.985666,-0.210878,-0.080694,0.350765
24257,9.558803,-1.998594,-0.434830,-0.218523,-0.159551,0.433455
24258,9.708689,-1.255209,0.295287,-0.294930,-0.153385,0.484873
24259,9.331678,-1.251173,0.266039,-0.347496,-0.220322,0.538096
24260,9.537057,-1.844395,0.726074,-0.303644,-0.287346,0.608955
24261,10.350660,-2.291152,2.736029,-0.156037,-0.259753,0.642954
24262,11.650405,-1.326749,5.748300,0.075443,-0.060120,0.556343
24263,13.714680,0.538311,8.651979,0.185686,0.357682,0.423780
24264,13.518638,1.275079,8.690677,0.136872,0.921403,0.273980
24265,12.120965,0.585389,7.684773,0.233756,1.352131,0.151214
24266,12.095196,-0.432897,7.288620,0.247662,1.668210,0.090612
24267,11.941415,-1.470139,6.749551,0.306682,1.896433,0.028488
24268,11.673611,-2.074760,5.975478,0.483759,2.034895,-0.022994
24269,10.990213,-2.761637,4.142169,0.696905,2.133326,-0.032367
24270,8.897677,-3.750997,0.573356,0.964144,2.106163,-0.013941
24271,6.814718,-4.699872,-3.135046,1.333654,1.776908,0.021651
24272,5.816023,-5.470597,-5.678918,1.653548,1.173429,0.100579
24273,6.107970,-4.989184,-6.809321,1.818858,0.515914,0.162289
24274,7.802378,-3.339232,-6.218717,1.750895,0.056532,0.234238
24275,8.759699,-1.088743,-4.670563,1.465899,-0.114557,0.293266
24276,8.815816,0.631361,-2.806091,1.041590,-0.176858,0.359669
24277,8.941236,1.287377,-0.303096,0.503686,-0.216680,0.427835
24278,9.782936,1.695593,3.439108,-0.096264,-0.136572,0.511649
24279,10.784202,2.061826,7.008009,-0.803049,0.165160,0.579686
24280,11.235390,2.362379,9.403626,-1.433509,0.618065,0.591494
24281,10.658777,1.348348,9.829446,-1.843213,1.070710,0.606113
24282,9.352612,-1.317824,8.421151,-1.768553,1.265009,0.630457
24283,9.684166,-3.865899,7.105949,-1.278044,1.205586,0.616430
24284,11.135926,-5.264369,6.501423,-0.682499,1.203630,0.599848
24285,11.273908,-5.705812,5.481669,-0.058750,1.290397,0.537467
24286,10.040595,-5.365918,3.273650,0.646029,1.317142,0.445176
24287,8.153627,-4.609294,0.358546,1.320560,1.168561,0.358136
24288,6.662019,-4.139674,-2.152652,1.846055,0.793212,0.309771
24289,5.990725,-3.305652,-3.942624,2.088346,0.273802,0.273473
24290,6.008294,-1.860401,-5.172108,2.006296,-0.256912,0.233511
24291,6.834249,-0.526568,-4.997157,1.718314,-0.683444,0.228941
24292,7.980062,0.396210,-3.156922,1.189374,-0.899599,0.294676
24293,8.624408,1.260939,-0.983284,0.469683,-0.927394,0.415325
24294,8.916911,1.915458,1.223823,-0.348342,-0.865631,0.537460
24295,9.597770,1.622591,4.915327,-1.157887,-0.676644,0.662004
24296,10.861030,1.310010,9.223781,-2.064360,-0.276833,0.801135
24297,11.720523,1.852845,12.151671,-2.846057,0.310625,0.854011
24298,11.694000,1.153990,13.363130,-3.437669,0.918754,0.891793
24299,10.406820,-2.255076,11.910724,-3.523939,1.230535,0.946551
24300,10.789795,-6.093752,9.760030,-2.959102,1.271245,0.978700
24301,11.944603,-8.854930,7.813188,-2.081722,1.299332,0.999473
24302,11.385107,-9.976965,5.708604,-1.026137,1.312518,0.961344
24303,10.138317,-10.280908,3.284174,0.110534,1.234914,0.910125
24304,8.827385,-9.825891,1.076537,1.237431,1.141021,0.888942
24305,7.338412,-8.293343,-0.474360,2.053229,0.958394,0.900656
24306,6.398016,-6.284006,-1.529362,2.503559,0.648458,0.887925
24307,6.577998,-4.477849,-1.963505,2.614379,0.341730,0.874226
24308,7.160460,-2.859179,-1.804297,2.396173,0.123447,0.869525
24309,7.886728,-1.565423,-1.081949,1.961400,0.010090,0.914465
24310,8.642241,-0.529463,0.180232,1.333903,-0.032986,1.022049
24311,8.762458,0.432708,1.639646,0.539189,-0.022291,1.145573
24312,8.673724,1.023976,4.023809,-0.326003,0.002114,1.236442
24313,9.487088,1.292264,7.572814,-1.275270,0.171410,1.301167
24314,10.289314,1.465177,10.690501,-2.258413,0.587532,1.326208
24315,10.233204,1.149591,11.830590,-3.056206,1.077650,1.331317
24316,9.276213,-1.044047,10.927068,-3.435876,1.410211,1.322617
24317,9.017873,-4.592029,9.261091,-3.293369,1.509849,1.327194
24318,9.605684,-7.657273,7.621790,-2.793137,1.515381,1.359240
24319,9.737422,-9.904144,6.277187,-2.063682,1.504908,1.385073
24320,9.468809,-11.339357,5.103667,-1.015385,1.468704,1.378236
24321,8.835971,-11.794899,3.756211,0.245524,1.421195,1.341351
24322,7.900997,-11.428989,2.339821,1.514842,1.360471,1.294911
24323,6.533276,-10.162888,0.790066,2.611231,1.229577,1.255025
24324,5.348443,-8.367260,-0.629419,3.417639,0.995867,1.193762
24325,4.860842,-6.700844,-1.839080,3.919788,0.698927,1.142754
24326,5.040967,-4.895873,-2.341328,4.128969,0.406299,1.088882
24327,5.619703,-2.654014,-2.002074,3.956454,0.176819,1.035640
24328,6.037249,-0.295573,-0.699621,3.381763,0.010931,0.993103
24329,6.305666,1.337376,1.128624,2.496279,-0.087701,0.963775
24330,6.820503,1.839374,3.740026,1.427179,-0.065385,0.992788
24331,7.659003,1.765904,6.663745,0.301920,0.152351,1.089503
24332,8.251470,1.633331,9.699591,-0.789053,0.549104,1.193241
24333,8.881391,0.729913,12.629615,-1.728951,1.036101,1.233006
24334,8.972704,-1.444167,14.654020,-2.404582,1.574147,1.211982
24335,8.104013,-4.781418,14.542691,-2.577485,1.976089,1.236905
24336,7.408384,-8.061736,12.419192,-2.149023,2.110978,1.329284
24337,7.876791,-11.074594,9.810363,-1.351115,2.144756,1.433072
24338,8.135883,-13.659297,7.766013,-0.282737,2.130738,1.519861
24339,7.772751,-14.755110,6.290391,1.031277,2.015204,1.502617
24340,7.000701,-13.941336,4.351395,2.467977,1.868285,1.406084
24341,5.435545,-11.523464,2.169286,3.759730,1.729854,1.265529
24342,3.411621,-8.159785,0.319326,4.583268,1.482168,1.120802
24343,1.980139,-4.923455,-1.110360,4.850089,1.075320,0.960288
24344,1.712303,-1.650818,-1.560385,4.613603,0.656448,0.802238
24345,2.328086,1.339675,-1.169221,3.974550,0.322310,0.673972
24346,3.295248,3.594028,-0.132778,2.946856,0.140087,0.595304
24347,3.741718,4.496839,1.176658,1.680351,0.026643,0.561121
24348,4.050835,3.010400,2.808525,0.417867,-0.038663,0.554655
24349,4.211950,1.340781,5.181290,-0.538799,-0.006851,0.592366
24350,4.442526,-0.478476,7.938672,-1.402460,0.066380,0.734049
24351,4.645933,-1.461478,10.971110,-2.142020,0.159003,0.913289
24352,4.673497,-3.131716,11.971567,-2.509761,0.247978,0.992901
24353,5.256491,-6.476724,11.499971,-2.345499,0.374613,0.933635
24354,5.808911,-9.121349,10.794427,-1.690981,0.487326,0.898070
24355,5.737405,-9.989093,10.275967,-0.868438,0.550052,0.897153
24356,5.480222,-9.966721,9.662369,-0.048911,0.596568,0.885985
24357,5.131182,-9.551348,8.773755,0.755514,0.642010,0.874269
24358,4.477867,-8.628206,7.713007,1.475059,0.671796,0.885180
24359,3.561171,-7.196042,6.516380,1.973358,0.648014,0.892622
24360,2.582415,-5.543343,5.195607,2.197138,0.552605,0.887838
24361,1.975548,-4.020604,4.292908,2.163559,0.391029,0.874840
24362,1.718880,-2.645972,3.693234,1.925513,0.242486,0.856976
24363,1.450181,-1.344818,3.196544,1.536527,0.081644,0.818516
24364,1.324146,-0.296714,2.601178,1.009962,-0.137649,0.766671
24365,1.273850,0.044410,1.956674,0.406394,-0.421248,0.715047
24366,1.557163,0.046196,2.022456,-0.223745,-0.734669,0.656271
24367,2.021275,-0.603161,2.381031,-0.800806,-1.051161,0.621062
24368,2.663088,-2.029185,3.133711,-1.270473,-1.353617,0.632072
24369,3.243007,-3.683291,4.326977,-1.664333,-1.611153,0.712933
24370,3.927355,-4.965464,6.076167,-2.017712,-1.805776,0.881665
24371,4.964760,-5.932577,8.200624,-2.280945,-1.849534,1.018816
24372,5.792319,-7.492991,10.574079,-2.298052,-1.589873,1.012748
24373,5.754326,-9.021892,12.726315,-1.949140,-1.212817,0.911183
24374,5.183727,-9.537641,13.638870,-1.401762,-0.886167,0.835600
24375,5.019404,-9.421567,13.049438,-0.777684,-0.597499,0.802925
24376,5.086254,-9.431015,11.870675,-0.105787,-0.385193,0.796291
24377,5.549685,-9.440335,10.795736,0.545356,-0.264418,0.785073
24378,5.763767,-9.112697,9.551338,1.096302,-0.189481,0.758829
24379,5.448982,-8.713232,8.550188,1.603961,-0.103059,0.745850
24380,4.464025,-8.385115,7.687928,2.099450,-0.006810,0.746257
24381,3.421934,-7.545503,6.963593,2.473715,0.025823,0.758438
24382,2.798027,-6.081666,6.385480,2.674446,0.025605,0.799639
24383,2.325883,-4.434382,5.765877,2.671148,0.039830,0.841692
24384,1.989588,-2.642822,4.986503,2.423205,0.011817,0.858893
24385,1.990458,-1.047053,4.359358,1.981442,-0.039365,0.839006
24386,2.228812,0.233560,4.050046,1.387455,-0.122070,0.780428
24387,2.800727,0.756861,3.617306,0.701452,-0.249662,0.719267
24388,2.989907,0.368309,3.325914,0.081397,-0.465868,0.640608
24389,3.039036,-0.734202,3.424582,-0.383747,-0.801635,0.564007
24390,3.272556,-2.176142,4.514106,-0.715154,-1.151838,0.510538
24391,3.998929,-4.157972,6.453209,-0.927993,-1.360657,0.526576
24392,4.603205,-5.834498,9.026539,-1.035804,-1.319530,0.581687
24393,4.956580,-6.925514,11.227447,-0.985971,-1.150392,0.628516
24394,5.492206,-7.506982,11.750117,-0.703528,-0.945950,0.638652
24395,5.751742,-7.740302,11.677476,-0.262041,-0.710197,0.609672
24396,5.686604,-7.887112,11.244567,0.185381,-0.557169,0.564827
24397,6.150179,-7.838217,10.910402,0.647435,-0.386708,0.524961
24398,5.868970,-7.887261,10.829187,1.174735,-0.076733,0.524729
24399,4.598402,-7.416830,10.550436,1.695915,0.201414,0.549043
24400,3.968883,-6.194051,9.580273,2.038608,0.326098,0.590324
24401,4.032624,-4.421307,8.396863,2.177708,0.427749,0.600882
24402,3.743960,-2.844479,7.529492,2.138126,0.514524,0.554629
24403,3.329370,-1.328507,6.878461,1.976282,0.500862,0.451127
24404,2.860867,0.092884,6.186620,1.716087,0.450037,0.305709
24405,2.514679,1.590293,5.942183,1.315506,0.337592,0.141194
24406,2.507233,2.849698,6.087450,0.729281,0.177277,-0.028436
24407,2.583071,2.496536,6.301766,0.132988,0.025977,-0.169674
24408,2.816085,1.195409,6.819730,-0.336885,-0.118240,-0.272023
24409,3.273520,-0.071923,7.561237,-0.662683,-0.188864,-0.375783
24410,3.894339,-1.449151,7.985005,-0.831719,-0.199973,-0.492051
24411,4.540792,-2.608101,8.876011,-0.910000,-0.174554,-0.579481
24412,4.779638,-3.684502,10.336971,-0.935199,-0.101203,-0.644910
24413,4.882764,-4.875944,11.597766,-0.838958,-0.033763,-0.697583
24414,4.738614,-5.474036,12.116267,-0.604166,0.049849,-0.731631
24415,4.729603,-5.276537,11.549813,-0.240248,0.213331,-0.820294
24416,4.860794,-4.325466,10.578133,0.085940,0.377963,-0.952768
24417,5.155252,-2.741100,9.763593,0.326850,0.528711,-1.114728
24418,5.208188,-1.246669,9.039274,0.432522,0.694144,-1.291247
24419,4.789913,-0.232424,8.656681,0.381271,0.836881,-1.450596
24420,4.437268,-0.150382,8.083393,0.063506,0.870738,-1.539220
24421,4.663825,-0.966113,7.816170,-0.371375,0.821269,-1.499657
24422,4.594785,-1.113075,9.096750,-0.917000,0.826441,-1.434107
24423,4.469231,-1.718298,10.060231,-1.476718,0.906786,-1.408854
24424,5.064792,-3.693047,9.938335,-1.803199,1.173896,-1.378185
24425,5.072749,-6.162831,9.783293,-1.828156,1.453305,-1.276897
24426,4.778248,-8.069443,9.680175,-1.427376,1.546648,-1.111441
24427,4.599906,-8.265843,10.057027,-0.900308,1.613868,-0.991052
24428,4.714739,-8.238158,9.649469,-0.311580,1.679478,-0.924841
24429,4.839572,-7.719024,9.372999,0.174845,1.723546,-0.908910
24430,4.622706,-7.386030,8.833083,0.531711,1.661297,-0.927878
24431,4.251601,-6.673246,7.112763,0.833101,1.487731,-0.965755
24432,3.549854,-5.388504,4.410253,0.985078,1.289152,-1.031774
24433,2.471329,-3.579684,3.002224,1.055688,1.094056,-1.088154
24434,1.286913,-1.663382,2.566241,0.972706,0.874311,-1.136652
24435,0.254837,-0.207613,2.385067,0.586337,0.630822,-1.187820
24436,-0.416221,0.160190,2.109284,0.065240,0.385720,-1.190652
24437,-0.526538,-0.213647,1.954241,-0.457350,0.124933,-1.150658
24438,0.014195,-1.105812,1.819330,-0.911992,-0.129870,-1.103448
24439,1.270022,-2.290821,1.817783,-1.225201,-0.386044,-1.034335
24440,3.069550,-2.858967,4.100547,-1.504983,-0.493158,-0.961909
24441,4.668511,-3.072994,8.184485,-2.019758,-0.442509,-0.881821
24442,6.112178,-3.331745,12.099943,-2.622204,-0.254502,-0.793922
24443,6.816549,-4.250110,14.534672,-3.062465,0.091592,-0.705275
24444,6.431393,-6.434466,15.274856,-3.036203,0.492528,-0.624351
24445,5.744946,-9.028781,15.142808,-2.538244,0.808237,-0.590598
24446,5.300028,-10.826087,14.720082,-1.737450,1.019473,-0.571263
24447,5.093379,-11.336265,14.098301,-0.782552,1.137886,-0.582896
24448,4.490226,-11.284878,11.834802,0.128413,1.191894,-0.587780
24449,3.269253,-10.631098,8.410528,1.052167,1.181898,-0.629353
24450,1.692738,-8.814274,5.374894,1.863987,1.059114,-0.702261
24451,0.396731,-6.653197,2.680336,2.418838,0.825939,-0.807479
24452,-0.099284,-4.061467,0.695475,2.731441,0.500439,-0.919458
24453,0.119252,-1.315739,0.068726,2.686899,0.179160,-1.016365
24454,0.693542,1.154196,0.654727,2.176103,-0.094100,-1.050199
24455,1.412263,2.526087,2.007087,1.249542,-0.297051,-1.034396
24456,2.030797,2.003490,3.331391,0.173037,-0.416777,-0.959742
24457,2.404847,0.759338,4.343437,-0.872912,-0.501393,-0.858431
24458,2.926978,-0.093572,5.577000,-1.864523,-0.598056,-0.779230
24459,4.212488,-1.083350,7.606474,-2.600927,-0.623887,-0.760590
24460,6.513758,-2.454756,11.228918,-2.999378,-0.410255,-0.797825
24461,8.438278,-4.039685,15.770821,-3.332678,0.172102,-0.825333
24462,7.475085,-6.824246,17.718819,-3.561966,0.763427,-0.782564
24463,4.874297,-9.585634,16.205046,-3.257600,0.994907,-0.750145
24464,4.305444,-10.996478,14.005527,-2.333150,1.004038,-0.715272
24465,4.742616,-11.488813,12.639165,-1.215526,1.097210,-0.672085
24466,4.268201,-11.735958,10.736233,-0.213133,1.226937,-0.665769
24467,2.731486,-11.042893,8.074401,0.729160,1.217062,-0.694041
24468,1.099397,-9.190674,5.071142,1.571737,1.049933,-0.728122
24469,0.063345,-6.705595,2.408374,2.229826,0.803625,-0.804253
24470,-0.166157,-4.030807,0.634652,2.591444,0.496095,-0.920299
24471,0.374369,-1.581068,0.092019,2.516875,0.174194,-1.003031
24472,1.529567,0.075870,0.772938,2.041334,-0.124233,-1.008220
24473,2.796345,0.501191,1.895658,1.217187,-0.373444,-0.942275
24474,3.754663,0.405520,3.123734,0.200134,-0.528154,-0.878761
24475,4.258948,0.602360,5.098379,-0.877570,-0.560337,-0.869750
24476,4.816677,1.023506,8.059316,-1.857536,-0.474710,-0.943194
24477,6.301188,1.425485,12.373878,-2.766851,-0.233639,-1.052217
24478,7.891661,1.355702,17.547666,-3.656941,0.330482,-1.130776
24479,7.226273,-1.329617,20.494300,-4.455167,1.064007,-1.012954
24480,4.075125,-6.539970,17.637352,-4.664024,1.365410,-0.732733
24481,3.708561,-10.727987,12.722292,-3.874701,1.329011,-0.581512
24482,5.457416,-13.553738,9.347627,-2.365119,1.364125,-0.488184
24483,5.348120,-14.427396,7.230533,-0.807560,1.388114,-0.511855
24484,3.148837,-13.332533,3.977683,0.630984,1.204785,-0.636686
24485,1.142125,-11.035509,0.703558,1.953045,0.858309,-0.760440
24486,0.423120,-8.346254,-1.014058,2.969370,0.494056,-0.833083
24487,0.529974,-5.164880,-1.034819,3.371094,0.153276,-0.837691
24488,1.439492,-1.965888,0.472276,3.060992,-0.173772,-0.787973
24489,3.101321,0.678792,3.105445,2.204187,-0.343673,-0.741609
24490,4.445501,1.736615,5.628347,0.900881,-0.317335,-0.663620
24491,4.531424,2.057996,7.022185,-0.492808,-0.216081,-0.629299
24492,3.890310,2.052981,7.316238,-1.758967,-0.186737,-0.648288
24493,4.091689,0.915293,7.879549,-2.741357,-0.231129,-0.685445
24494,5.620125,-1.065952,10.815112,-3.311361,-0.086752,-0.799504
24495,7.621632,-3.082233,15.010349,-3.760840,0.489284,-0.887002
24496,6.158449,-5.878516,16.127756,-4.098641,1.141479,-0.724287
24497,3.143541,-9.785287,13.058170,-3.632968,1.306480,-0.545230
24498,3.528418,-12.301105,10.185411,-2.498879,1.201923,-0.435017
24499,4.629891,-13.729605,8.286115,-1.241879,1.171055,-0.347193
24500,3.707582,-13.307443,6.438862,-0.066305,1.058248,-0.346793
24501,2.331159,-11.733120,4.066418,1.019422,0.787605,-0.364164
24502,1.806477,-9.908453,2.254816,1.966467,0.538692,-0.343587
24503,1.600900,-7.994129,1.385342,2.532038,0.313001,-0.297630
24504,1.606869,-5.664151,1.784518,2.546577,0.057793,-0.262465
24505,1.977324,-3.093182,2.860874,2.083076,-0.211683,-0.248602
24506,2.852449,-1.281628,4.237024,1.299241,-0.366356,-0.221165
24507,3.916100,-0.808875,5.577700,0.254680,-0.343482,-0.139878
24508,4.708603,-1.086692,6.603745,-0.789971,-0.194119,-0.074865
24509,4.909082,-1.327430,7.388976,-1.789853,0.016528,-0.109038
24510,4.317200,-2.391272,7.812676,-2.618943,0.134044,-0.180089
24511,3.829906,-3.583910,8.422873,-3.068174,0.111748,-0.304015
24512,4.621224,-4.747194,10.898428,-3.163342,0.143198,-0.479698
24513,5.992022,-5.756368,14.348866,-3.229077,0.557984,-0.599605
24514,4.862311,-8.232048,15.210138,-3.208523,1.185961,-0.436528
24515,2.409656,-11.232264,12.839594,-2.588313,1.416694,-0.118997
24516,2.868538,-12.990165,9.825528,-1.544808,1.366986,0.122830
24517,4.206449,-13.718859,7.445441,-0.411073,1.344207,0.271488
24518,3.624966,-13.510065,5.317430,0.683921,1.258673,0.314742
24519,2.097089,-12.125981,3.214522,1.748033,1.007177,0.298131
24520,1.258117,-10.266337,1.574917,2.577817,0.717088,0.301536
24521,1.236541,-8.351198,1.322946,2.934115,0.444466,0.357753
24522,1.507027,-6.057811,1.848952,2.709769,0.199340,0.427790
24523,1.830263,-3.651583,2.612204,2.045271,-0.011832,0.480537
24524,2.589920,-2.010247,3.932691,1.157715,-0.145660,0.535392
24525,4.041735,-1.647294,6.297211,0.026058,-0.088622,0.630254
24526,4.528442,-1.250125,8.584768,-1.257090,0.291147,0.635916
24527,3.142483,-0.438747,9.284372,-2.432676,0.607764,0.511034
24528,1.527360,-1.119351,8.833775,-3.309324,0.523844,0.385279
24529,1.640120,-2.993997,7.804005,-3.817244,0.182900,0.297301
24530,2.780587,-5.031553,6.786355,-3.872579,-0.006433,0.236909
24531,4.104366,-7.170998,7.026371,-3.480270,0.056640,0.146959
24532,4.498717,-8.605932,8.819282,-2.978668,0.419647,0.006060
24533,2.893514,-9.754196,8.913057,-2.397944,0.730910,-0.132715
24534,0.888425,-10.858744,6.910048,-1.229430,0.744888,-0.160495
24535,0.230021,-10.830286,4.736000,0.101343,0.553674,-0.069663
24536,0.028709,-9.845355,3.288889,0.880158,0.294685,0.071230
24537,0.483770,-9.530721,2.366350,1.012588,-0.001013,0.267709
24538,1.278398,-9.190591,1.769130,0.818170,-0.193524,0.412141
24539,1.389096,-7.320292,1.394685,0.405642,-0.350569,0.523722
24540,1.935563,-4.392650,2.733883,-0.343402,-0.491241,0.609894
24541,3.211391,-2.205578,5.416362,-1.598104,-0.563639,0.686595
24542,3.896750,-0.258056,7.762412,-3.162280,-0.484583,0.650286
24543,3.681688,-0.587088,8.225874,-4.421780,-0.368712,0.443065
24544,3.133592,-1.821808,7.232629,-5.158486,-0.212773,0.248455
24545,2.407556,-4.513296,5.956396,-5.365611,-0.158683,0.046404
24546,2.826491,-7.466118,6.016805,-4.941430,-0.025737,-0.078347
24547,3.297409,-11.796569,5.820636,-4.166526,0.192220,-0.203310
24548,2.253465,-15.684401,5.112594,-2.737957,0.434753,-0.250545
24549,0.958267,-17.349129,4.075761,-0.815510,0.413205,-0.274353
24550,0.494824,-15.655494,2.348172,1.147686,0.198990,-0.313792
24551,1.557124,-13.807531,1.143346,2.644748,0.021193,-0.349779
24552,1.582405,-12.226415,-0.485579,3.539064,-0.113802,-0.340839
24553,1.118557,-10.081899,-1.143761,3.968510,-0.276764,-0.288024
24554,1.360610,-7.200136,0.660075,3.631632,-0.422325,-0.114200
24555,1.815877,-4.284897,2.957283,2.599336,-0.574581,0.109192
24556,2.629578,-2.426770,4.889223,1.135741,-0.674913,0.218944
24557,3.287492,-2.570513,6.061798,-0.271955,-0.588913,0.180828
24558,3.252787,-3.792796,6.654111,-1.266433,-0.433793,0.080554
24559,2.391480,-4.224387,6.798450,-1.871281,-0.347816,-0.066206
24560,1.659304,-4.775829,7.045923,-2.217179,-0.355258,-0.178507
24561,2.678028,-6.603885,7.670124,-2.281932,-0.267596,-0.209331
24562,3.408218,-9.964626,6.780553,-2.048528,-0.020310,-0.182545
24563,2.375420,-13.356052,4.661191,-1.049041,0.079423,-0.178373
24564,3.090515,-13.099259,6.208799,0.312416,0.109283,-0.212339
24565,4.022093,-12.143992,7.653313,1.347261,0.213337,-0.267519
24566,3.737695,-11.675395,6.941836,2.388781,0.336256,-0.432125
24567,3.232081,-10.952943,5.965968,3.535082,0.431354,-0.558420
24568,3.068539,-10.492676,5.497923,4.540062,0.499752,-0.573192
24569,2.438254,-10.136809,4.501704,5.075228,0.470856,-0.506352
24570,1.139682,-9.035269,2.437342,5.173434,0.257603,-0.464840
24571,0.012063,-7.549379,-0.334574,4.947688,-0.146796,-0.376261
24572,0.403406,-6.712679,-0.911690,4.487350,-0.525797,-0.192414
24573,1.488993,-5.425765,0.448925,3.373911,-0.814293,0.075014
24574,2.763192,-4.411852,1.819101,1.851011,-1.003238,0.312652
24575,4.186327,-4.783649,2.458388,0.549425,-0.996851,0.515068
24576,3.976700,-5.494018,3.718086,-0.313432,-0.897662,0.613467
24577,3.201753,-4.990525,5.555458,-0.958916,-0.908745,0.620376
24578,2.889663,-3.877572,8.307638,-1.606829,-0.983759,0.567739
24579,3.855449,-3.098081,11.323520,-2.283105,-0.889152,0.522102
24580,4.550900,-3.456223,12.867719,-2.881381,-0.503775,0.499287
24581,4.106044,-6.000097,12.498822,-2.983606,-0.122529,0.461899
24582,3.298791,-9.475872,10.712076,-2.449441,0.059425,0.425371
24583,3.053433,-11.632787,8.749129,-1.409667,0.065576,0.288938
24584,3.944036,-12.442134,8.342828,-0.203306,0.106453,0.170188
24585,4.282844,-12.686881,8.250746,0.976995,0.277690,0.095265
24586,3.125702,-12.157950,7.199653,2.137809,0.388828,0.061835
24587,0.831276,-11.159036,3.307498,2.948013,0.160954,0.081999
24588,-0.067749,-9.391459,-0.083290,3.547232,-0.257835,0.100002
24589,0.177154,-7.763586,-1.215778,3.777434,-0.626897,0.154690
24590,0.875122,-5.907819,-1.280245,3.550797,-0.933902,0.212755
24591,1.688408,-3.792588,-0.711682,2.986981,-1.196643,0.273176
24592,2.676267,-2.140069,0.314276,2.230269,-1.354240,0.310342
24593,3.711725,-2.060830,2.273929,1.436028,-1.381205,0.331563
24594,4.442420,-2.693041,5.794175,0.611724,-1.282397,0.351514
24595,4.927429,-2.430380,10.128542,-0.341952,-1.053108,0.420342
24596,5.423879,-1.564485,14.115780,-1.348560,-0.682763,0.519263
24597,5.149951,-1.412410,16.503211,-2.292776,-0.216287,0.621609
24598,3.662053,-5.057324,14.891282,-2.915163,0.059960,0.714994
24599,3.314069,-9.479214,11.248099,-2.649227,0.030689,0.711809
24600,4.305153,-12.827140,9.024736,-1.717554,-0.040663,0.696853
24601,4.623191,-14.438752,8.086725,-0.475926,-0.048605,0.661275
24602,3.580605,-13.684174,6.566249,0.719246,-0.088874,0.566480
24603,1.945152,-11.788387,4.044040,1.817721,-0.199051,0.493974
24604,0.898048,-9.947844,1.849685,2.755073,-0.368621,0.455359
24605,0.555849,-7.651568,0.605305,3.288884,-0.610047,0.438752
24606,0.855595,-5.127619,-0.025761,3.299225,-0.843593,0.405485
24607,1.339071,-2.413266,0.267784,2.918381,-1.040914,0.380202
24608,2.038557,-0.194760,1.132917,2.155774,-1.234600,0.359524
24609,2.505070,1.055783,2.209314,1.146426,-1.422415,0.317965
24610,3.066425,1.431254,3.581263,0.110526,-1.582274,0.265873
24611,3.692177,1.551885,5.903950,-0.916206,-1.620975,0.248376
24612,4.942238,0.691395,8.938321,-1.869120,-1.536989,0.236912
24613,6.554287,-1.152259,11.563385,-2.644897,-1.196071,0.203835
24614,6.263680,-4.181516,12.478728,-2.993880,-0.782836,0.133903
24615,5.418210,-8.042600,11.621192,-2.638800,-0.615639,0.058400
24616,5.582455,-10.520851,10.121777,-1.854314,-0.557098,0.016290
24617,5.654031,-11.162205,9.195825,-1.080310,-0.399630,0.017454
24618,5.198039,-11.874460,8.612861,-0.311459,-0.257035,0.041933
24619,4.427067,-12.361878,7.901161,0.541531,-0.214260,0.094853
24620,3.411599,-12.445898,5.985480,1.257691,-0.254244,0.141371
24621,2.639017,-12.396339,3.591988,1.964241,-0.439245,0.226047
24622,2.398985,-11.054738,2.659504,2.566175,-0.623958,0.319780
24623,2.323065,-8.880068,2.255860,2.911265,-0.785265,0.377052
24624,2.339529,-6.653693,2.129113,2.949314,-0.962979,0.391194
24625,2.714371,-4.318796,2.585302,2.689637,-1.129478,0.387350
24626,3.154563,-2.346665,3.173000,2.140097,-1.236979,0.385942
24627,3.317088,-1.073944,3.767252,1.418633,-1.323140,0.366505
24628,3.166669,-0.351653,4.781954,0.581794,-1.420985,0.358323
24629,3.596621,-1.097031,5.543867,-0.139575,-1.542981,0.409729
24630,4.764878,-2.740523,7.158714,-0.702921,-1.481325,0.517235
24631,5.610459,-4.345950,9.522935,-1.144576,-1.223619,0.641963
24632,5.719096,-5.602243,10.859681,-1.333468,-0.955325,0.716522
24633,5.523957,-6.909914,10.496459,-1.230066,-0.733923,0.695324
24634,5.270063,-8.224924,9.596156,-0.833456,-0.578514,0.615548
24635,5.342918,-9.021372,8.936566,-0.250051,-0.530892,0.553211
24636,5.637894,-9.028828,8.092581,0.305778,-0.501801,0.515497
24637,5.550228,-8.812789,7.274840,0.820194,-0.449086,0.487874
24638,4.884859,-8.355654,6.538487,1.272386,-0.385792,0.487003
24639,3.902917,-8.118716,5.473144,1.613781,-0.394662,0.501142
24640,3.200822,-7.723427,4.395422,1.914280,-0.480160,0.512485
24641,2.746241,-6.817911,3.479890,2.111004,-0.625765,0.504134
24642,2.988389,-5.427487,2.989602,2.159210,-0.863853,0.479103
24643,3.679442,-3.616019,3.107286,1.964009,-1.079838,0.426877
24644,4.104849,-2.112118,2.874301,1.558278,-1.274721,0.329031
24645,4.114732,-1.185923,2.581141,1.065606,-1.515240,0.220796
24646,4.032047,-0.482286,3.937073,0.463016,-1.693958,0.142227
24647,4.563395,-1.258743,5.724372,-0.131929,-1.777469,0.117994
24648,6.142455,-2.762230,7.583337,-0.637475,-1.680365,0.200597
24649,7.228969,-4.263314,9.634731,-1.005536,-1.405935,0.300505
24650,7.398806,-6.722868,10.557135,-0.964649,-1.125345,0.303821
24651,7.495917,-8.448751,10.492517,-0.545290,-0.929823,0.253709
24652,7.588722,-8.802111,9.869773,0.053533,-0.761560,0.221243
24653,7.252073,-8.810275,9.210981,0.699141,-0.569044,0.203889
24654,6.438959,-8.539123,8.710727,1.328268,-0.381013,0.228031
24655,5.473149,-7.801576,8.014483,1.854990,-0.256766,0.261743
24656,5.000252,-6.723308,7.165870,2.209908,-0.207481,0.270193
24657,4.822583,-5.405489,6.598877,2.344626,-0.137122,0.258926
24658,4.327176,-4.114124,5.903453,2.317366,-0.105602,0.216178
24659,4.023478,-3.061140,4.860672,2.163933,-0.180899,0.133963
24660,3.997380,-1.746463,4.305766,1.883894,-0.316984,0.016156
24661,4.001180,-0.468191,3.891454,1.434914,-0.515081,-0.086466
24662,4.249897,0.542561,3.500185,0.869134,-0.780920,-0.192443
24663,4.256572,1.054731,3.819418,0.182758,-1.060220,-0.301733
24664,4.750579,0.448978,4.901027,-0.524595,-1.269168,-0.363604
24665,5.454223,-1.193977,6.339994,-1.099771,-1.296561,-0.307021
24666,6.201301,-2.996327,7.689687,-1.533608,-1.224517,-0.179712
24667,7.101429,-4.776912,8.392779,-1.681485,-1.094189,-0.086375
24668,7.569946,-6.595109,8.990845,-1.548736,-0.923486,-0.084192
24669,7.901605,-7.948415,9.401418,-1.132196,-0.741724,-0.143989
24670,7.649130,-8.462736,9.798013,-0.582702,-0.544817,-0.198482
24671,7.150804,-8.383008,9.782985,0.002096,-0.371074,-0.218148
24672,6.862797,-8.194376,8.964596,0.585842,-0.249589,-0.217200
24673,6.797166,-8.023117,7.814320,1.144709,-0.165345,-0.201964
24674,6.361542,-7.535174,6.569105,1.671627,-0.097401,-0.191622
24675,5.567665,-6.583266,5.322531,2.104345,-0.076662,-0.208807
24676,5.026179,-5.081431,3.972646,2.357178,-0.147483,-0.259877
24677,5.162060,-2.877602,3.352309,2.324040,-0.207121,-0.338712
24678,4.902268,-0.616621,3.247789,2.048435,-0.263286,-0.452929
24679,4.069674,0.990365,2.766705,1.559766,-0.417605,-0.574423
24680,3.589079,1.978558,2.373471,0.882421,-0.681670,-0.669015
24681,3.983871,1.881098,2.258303,0.228322,-0.988910,-0.723117
24682,4.832065,1.203178,2.563362,-0.309269,-1.236638,-0.745849
24683,5.593646,0.072511,3.305140,-0.824257,-1.419340,-0.754898
24684,6.388351,-1.495206,4.853646,-1.295291,-1.507785,-0.723622
24685,7.748882,-2.837051,6.943841,-1.656699,-1.499099,-0.652290
24686,8.860463,-3.872822,8.507914,-1.881718,-1.313091,-0.578947
24687,9.263054,-4.803494,9.321814,-1.736931,-1.021495,-0.596737
24688,9.599906,-5.488938,9.526598,-1.349109,-0.774547,-0.697711
24689,9.833514,-6.017053,9.333136,-0.864045,-0.565217,-0.830510
24690,9.674155,-5.919493,9.161078,-0.300086,-0.362251,-0.972803
24691,8.940877,-5.385997,8.509659,0.231651,-0.249963,-1.096978
24692,8.114724,-4.620585,7.460277,0.681999,-0.179139,-1.185904
24693,7.448398,-3.588700,6.265566,0.940331,-0.124601,-1.202419
24694,7.172280,-2.828359,5.029417,1.032349,-0.114949,-1.164506
24695,7.068910,-2.500233,3.569591,1.035222,-0.117149,-1.134306
24696,6.588661,-2.267081,2.037055,0.939601,-0.218404,-1.164312
24697,6.006063,-1.561989,1.367338,0.644456,-0.484569,-1.234465
24698,5.656797,-0.788112,0.917096,0.146028,-0.860868,-1.303229
24699,5.781274,-0.257075,0.524745,-0.421248,-1.224123,-1.356747
24700,6.240881,-0.327286,-0.118811,-0.903462,-1.489880,-1.337873
24701,7.117447,-1.158103,-0.376161,-1.213570,-1.669850,-1.224905
24702,8.406704,-1.722409,1.687159,-1.617695,-1.718771,-1.065200
24703,10.122954,-2.321497,4.641856,-2.177481,-1.597079,-0.865212
24704,11.369173,-2.548547,7.425408,-2.702145,-1.240467,-0.652682
24705,11.713455,-2.960277,9.444711,-3.062219,-0.762086,-0.470581
24706,11.129874,-4.008990,10.424297,-3.175451,-0.298982,-0.352194
24707,10.044442,-6.075064,9.944511,-2.984533,0.007383,-0.263310
24708,9.449172,-8.112375,8.541722,-2.441257,0.137017,-0.234840
24709,9.443045,-9.577985,6.999541,-1.552311,0.210816,-0.247589
24710,9.342823,-9.559307,6.238205,-0.583662,0.240483,-0.303166
24711,9.187322,-8.455976,5.388292,0.328137,0.210886,-0.363697
24712,8.420949,-6.307225,4.528200,0.985824,0.187458,-0.439930
24713,7.577606,-4.686290,3.265981,1.298448,0.076184,-0.496509
24714,6.995676,-3.799912,1.981307,1.472318,-0.067825,-0.517042
24715,6.788740,-2.996186,1.236294,1.453267,-0.237398,-0.503403
24716,6.477099,-2.057588,0.776364,1.263296,-0.391606,-0.506562
24717,5.946206,-1.084398,0.178742,1.014819,-0.586682,-0.595098
24718,6.059154,-0.042821,-0.083670,0.721977,-0.830883,-0.708915
24719,6.892116,0.705821,-0.206385,0.257073,-1.086830,-0.727479
24720,7.823262,0.639689,-0.059296,-0.258625,-1.293624,-0.639004
24721,9.032712,-0.274845,1.412120,-0.770286,-1.344014,-0.502601
24722,10.693216,-0.952758,4.515887,-1.322103,-1.128173,-0.345431
24723,11.987015,-0.655495,8.097744,-1.990701,-0.685912,-0.224471
24724,12.904141,-0.305012,10.404567,-2.603242,-0.115046,-0.163690
24725,12.223498,-1.537788,10.456812,-2.791910,0.478946,-0.161641
24726,9.704795,-4.453772,8.592473,-2.352286,0.722040,-0.146047
24727,8.266640,-7.493220,6.190606,-1.491130,0.462249,-0.154858
24728,9.135382,-8.490773,4.558518,-0.551306,0.176122,-0.183656
24729,9.655528,-7.592286,3.834333,0.263502,0.160995,-0.214646
24730,8.712752,-5.839372,2.957452,0.865426,0.183891,-0.223812
24731,7.542720,-4.380302,1.887039,1.238267,0.056736,-0.250356
24732,7.243659,-3.375425,0.721013,1.412973,-0.116309,-0.262914
24733,7.275042,-2.921843,-0.039763,1.428216,-0.278298,-0.255872
24734,7.259451,-2.555161,-0.644615,1.373876,-0.499853,-0.280138
24735,7.751327,-2.015007,-0.929819,1.286637,-0.683245,-0.325271
24736,8.280530,-1.041549,-0.576600,1.099164,-0.763297,-0.360676
24737,8.710083,-0.013820,0.582993,0.719492,-0.770265,-0.348402
24738,9.247680,0.720401,2.819172,0.132136,-0.724996,-0.302951
24739,10.262064,0.902713,5.708590,-0.621315,-0.568906,-0.221701
24740,11.099801,0.803748,8.174669,-1.428436,-0.277215,-0.125848
24741,11.449232,0.383580,9.398243,-2.041642,0.070512,-0.049405
24742,11.014756,-1.426741,8.615559,-2.176945,0.348228,0.018321
24743,10.077959,-4.066649,6.559859,-1.768516,0.414143,-0.009912
24744,9.818023,-5.870804,4.671751,-0.965501,0.307413,-0.161036
24745,9.846256,-5.864227,3.523055,-0.123521,0.239244,-0.353710
24746,9.340035,-5.031827,2.840137,0.564045,0.244186,-0.516845
24747,8.341844,-3.649810,2.261513,1.020837,0.220002,-0.622721
24748,7.553428,-2.663332,1.303821,1.256563,0.101204,-0.655328
24749,7.030365,-2.033299,0.003846,1.316817,-0.088523,-0.636570
24750,6.755273,-1.552501,-1.275318,1.233557,-0.357861,-0.630419
24751,6.669813,-0.998430,-2.095201,1.069334,-0.675078,-0.677179
24752,7.915851,-0.048869,-0.820996,0.885408,-0.882906,-0.752054
24753,9.447496,0.720646,1.588632,0.522898,-0.847940,-0.714917
24754,10.002285,1.229637,3.300199,-0.040550,-0.676187,-0.615884
24755,9.954350,1.544222,4.156111,-0.623771,-0.495688,-0.529781
24756,10.430795,1.259218,5.188046,-1.068333,-0.341523,-0.482581
24757,11.279446,0.324707,6.398288,-1.387893,-0.141490,-0.448143
24758,11.220179,-0.514298,6.943788,-1.591142,0.061989,-0.436117
24759,10.361631,-1.330101,6.394449,-1.569921,0.142974,-0.476471
24760,9.912006,-2.702257,5.144044,-1.243995,0.110023,-0.535094
24761,9.823446,-4.049812,4.079096,-0.677286,0.097787,-0.567401
24762,9.290832,-4.699461,3.185817,-0.057774,0.079759,-0.571958
24763,8.273400,-4.827469,2.360434,0.553579,-0.061454,-0.556714
24764,7.801513,-4.670516,1.219250,1.048702,-0.340706,-0.516093
24765,7.893724,-4.394012,0.031249,1.292833,-0.620142,-0.495054
24766,8.408890,-3.770607,-1.335297,1.324455,-0.777240,-0.471205
24767,8.682092,-2.821830,-1.900919,1.295891,-0.802060,-0.412427
24768,8.682588,-1.368770,-1.112443,1.198987,-0.802489,-0.359709
24769,9.052146,-0.054469,0.559992,0.872686,-0.789222,-0.301775
24770,9.172325,0.973436,1.919690,0.320056,-0.742740,-0.240473
24771,9.219809,1.624831,2.612839,-0.323445,-0.693036,-0.190634
24772,9.657221,1.937046,3.176339,-0.866568,-0.640723,-0.164916
24773,10.457415,2.021566,4.079301,-1.215791,-0.525362,-0.163911
24774,10.933990,1.651751,5.101716,-1.444013,-0.355281,-0.218270
24775,10.874101,1.105481,5.598813,-1.482604,-0.197436,-0.310856
24776,10.451330,0.298501,5.320003,-1.326354,-0.113202,-0.424962
24777,10.027520,-0.641800,4.373196,-0.963387,-0.091257,-0.581015
24778,9.722758,-0.945479,3.577751,-0.492930,-0.112996,-0.775078
24779,9.670074,-0.534870,2.911515,-0.091193,-0.165595,-0.962896
24780,9.587800,0.074594,2.016109,0.228456,-0.225263,-1.133264
24781,9.607709,0.359576,1.210673,0.482162,-0.267384,-1.232431
24782,9.714755,-0.011911,0.695034,0.550109,-0.270268,-1.198701
24783,9.380421,-1.072074,-0.031302,0.370714,-0.358199,-1.056535
24784,9.421616,-1.764396,-0.354217,0.192011,-0.586455,-0.925873
24785,9.447736,-2.327249,-0.956190,0.081446,-0.765146,-0.841160
24786,9.212605,-2.659836,-1.419044,0.096515,-0.896367,-0.763487
24787,9.455511,-2.402669,-0.926389,0.127934,-0.950414,-0.628738
24788,9.730575,-2.106986,0.258083,0.062869,-0.906293,-0.442849
24789,9.856489,-1.630858,1.808874,0.010384,-0.815376,-0.298011
24790,10.121200,-0.742172,3.187989,-0.027390,-0.714470,-0.213699
24791,10.420005,-0.065798,4.123826,-0.093016,-0.588116,-0.180098
24792,10.524434,0.335435,4.359667,-0.135011,-0.461259,-0.189639
24793,10.349619,0.282875,3.939035,-0.118845,-0.366870,-0.236159
24794,10.498312,-0.318728,3.511769,-0.009327,-0.316820,-0.280057
24795,10.754094,-0.932141,2.980130,0.147612,-0.237536,-0.294018
24796,10.371065,-1.057319,2.052615,0.244778,-0.185318,-0.294029
24797,9.653974,-1.127505,0.801583,0.293182,-0.215789,-0.273407
24798,9.295199,-1.233304,-0.366932,0.349187,-0.287981,-0.213440
24799,9.350098,-1.340466,-0.915377,0.417724,-0.337459,-0.101161
24800,9.306880,-1.072076,-1.005419,0.378183,-0.367272,0.043015
24801,9.043446,-0.617490,-1.119301,0.299142,-0.443419,0.157222
24802,9.134741,-0.107654,-0.686209,0.278771,-0.540205,0.226822
24803,9.441454,0.236596,0.495396,0.231563,-0.579674,0.275515
24804,9.729405,0.357464,1.500390,0.123385,-0.574818,0.300290
24805,9.795725,0.678195,1.915542,0.025733,-0.554054,0.303947
24806,9.991670,0.970140,1.888225,-0.016814,-0.540766,0.278496
24807,10.375609,1.269722,2.145172,-0.037131,-0.513502,0.227148
24808,10.796009,1.095907,2.751167,-0.050050,-0.408593,0.153831
24809,10.791070,0.772861,3.093084,-0.062023,-0.280038,0.077075
24810,10.514446,0.676732,2.844170,-0.047627,-0.200101,0.002959
24811,10.499811,0.472098,2.239178,-0.031693,-0.147845,-0.054538
24812,10.384189,0.146334,1.581092,-0.003216,-0.091120,-0.095918
24813,10.124017,-0.001718,1.115792,0.034264,-0.051586,-0.126913
24814,9.978516,-0.057921,0.785948,0.064901,-0.032517,-0.150643
24815,9.954541,-0.128971,0.566734,0.077148,-0.009732,-0.172352
24816,9.778173,-0.140508,0.497048,0.091944,0.015618,-0.178623
24817,9.776859,-0.115785,0.567454,0.096599,0.017471,-0.170717
24818,9.783388,-0.202313,0.580711,0.105087,0.026848,-0.150249
24819,9.749546,-0.286094,0.558415,0.105370,0.025790,-0.121544
24820,9.707029,-0.354457,0.498866,0.133675,0.015608,-0.086263
24821,9.730062,-0.315435,0.462760,0.178382,0.006717,-0.039369
24822,9.780310,-0.339886,0.502497,0.216408,-0.002257,0.003550
24823,9.820661,-0.215532,0.507181,0.251186,-0.001707,0.034615
24824,9.889116,-0.156698,0.553863,0.283639,-0.005492,0.062183
24825,9.862399,-0.010917,0.569956,0.310161,-0.004843,0.081407
24826,9.861767,0.116208,0.570197,0.326376,-0.011172,0.089025
24827,9.826041,0.282933,0.580252,0.344266,-0.023293,0.090041
24828,9.847514,0.449889,0.606852,0.335828,-0.029966,0.091071
24829,9.824814,0.545923,0.640188,0.319932,-0.037792,0.081883
24830,9.867273,0.660665,0.601791,0.289813,-0.040130,0.069369
24831,9.821818,0.727973,0.672283,0.250887,-0.040557,0.056897
24832,9.835299,0.782311,0.658728,0.200660,-0.040974,0.045811
24833,9.797994,0.734630,0.641378,0.148784,-0.044538,0.037642
24834,9.837083,0.638037,0.615170,0.097217,-0.050799,0.033188
24835,9.802981,0.537047,0.588320,0.060695,-0.052510,0.030183
24836,9.829627,0.377707,0.535754,0.026466,-0.065534,0.028018
24837,9.871795,0.227871,0.498554,0.011093,-0.076352,0.019265
24838,9.806228,0.109314,0.436551,0.019035,-0.088251,0.021179
24839,9.750749,0.097151,0.340292,0.029487,-0.108430,0.021643
24840,9.728795,0.059290,0.333594,0.033989,-0.128712,0.028020
24841,9.747316,0.021644,0.395647,0.035348,-0.138623,0.039167
24842,9.693278,-0.025846,0.422724,0.027565,-0.141644,0.039541
24843,9.763465,-0.105559,0.420810,0.032913,-0.141757,0.044048
24844,9.728632,-0.202645,0.420748,0.039290,-0.136718,0.037117
24845,9.731950,-0.254927,0.432320,0.065144,-0.134842,0.042721
24846,9.757685,-0.271802,0.438875,0.081529,-0.135772,0.040922
24847,9.833868,-0.310093,0.518871,0.099938,-0.129438,0.050671
24848,9.869077,-0.350241,0.529482,0.117909,-0.127000,0.057815
24849,9.914417,-0.284948,0.506872,0.135265,-0.122454,0.068270
24850,9.914815,-0.286330,0.529558,0.149498,-0.116571,0.079845
24851,9.937664,-0.258878,0.513027,0.157932,-0.114316,0.096198
24852,9.919230,-0.223563,0.495700,0.172620,-0.103445,0.106743
24853,9.882277,-0.139140,0.505823,0.181759,-0.105798,0.115015
24854,9.880203,-0.090824,0.539146,0.180959,-0.094169,0.125341
24855,9.885072,-0.011399,0.585346,0.180916,-0.090716,0.126452
24856,9.889708,0.056995,0.563530,0.174333,-0.085349,0.125002
24857,9.929081,0.090126,0.564936,0.164140,-0.082495,0.122145
24858,9.993562,0.104766,0.552106,0.157186,-0.074357,0.117004
24859,10.007657,0.151634,0.535030,0.146295,-0.067096,0.110336
