// Start Time: Unknown
// Update Rate: 100.0Hz
// Filter Profile: human (46.1)
// Firmware Version: 4.3.5
PacketCounter,Acc_X,Acc_Y,Acc_Z,Gyr_X,Gyr_Y,Gyr_Z
34112,9.836714,-0.290088,0.693073,0.026360,0.006540,-0.020887
34113,9.804089,-0.291886,0.683240,0.027181,0.004724,-0.021903
34114,9.819085,-0.301643,0.698596,0.023973,-0.000169,-0.021876
34115,9.839578,-0.255106,0.674531,0.022597,0.002642,-0.017748
34116,9.836870,-0.281510,0.694392,0.012915,0.000449,-0.017295
34117,9.783890,-0.214307,0.720056,0.018686,-0.004654,-0.018566
34118,9.814340,-0.252050,0.697466,0.003774,-0.003066,-0.016298
34119,9.814393,-0.250568,0.697256,0.001151,-0.001337,-0.013560
34120,9.794043,-0.293740,0.721218,-0.000813,-0.005149,-0.012136
34121,9.819519,-0.290036,0.697399,-0.005646,-0.006084,-0.013740
34122,9.827320,-0.302455,0.678130,-0.002056,-0.006232,-0.013529
34123,9.845072,-0.285108,0.672918,-0.000549,-0.005971,-0.010033
34124,9.845130,-0.284254,0.672441,-0.001650,-0.003658,-0.007461
34125,9.819794,-0.285960,0.695217,0.004826,-0.006354,-0.007885
34126,9.827115,-0.283367,0.728363,0.000975,-0.005385,-0.010201
34127,9.862518,-0.250040,0.718603,-0.000828,-0.005474,-0.008475
34128,9.837208,-0.251685,0.741114,0.001078,-0.009930,-0.008399
34129,9.830024,-0.252633,0.706637,-0.002630,-0.005564,-0.006749
34130,9.830091,-0.251860,0.705974,-0.005118,-0.007731,-0.009534
34131,9.817505,-0.309374,0.711328,0.000997,0.002232,-0.004376
34132,9.792145,-0.311370,0.734523,0.000137,-0.003894,-0.005525
34133,9.847527,-0.332425,0.741157,0.003885,-0.000317,-0.005012
34134,9.832566,-0.319903,0.725987,0.006493,-0.002369,-0.004089
34135,9.827547,-0.277469,0.724787,0.008016,-0.001782,-0.004257
34136,9.842557,-0.289010,0.739721,0.009540,-0.001195,-0.004424
34137,9.875218,-0.284384,0.750119,0.010784,-0.000111,-0.003033
34138,9.842570,-0.288115,0.739898,0.009156,0.003847,-0.004668
34139,9.867929,-0.285273,0.717042,0.010663,0.004109,-0.001172
34140,9.842511,-0.287602,0.740875,0.007775,0.006658,-0.000537
34141,9.862804,-0.242915,0.717126,0.005288,0.004490,-0.003320
34142,9.842440,-0.287023,0.742050,0.007512,0.007480,-0.002642
34143,9.842379,-0.286841,0.742922,0.002821,0.009939,-0.000280
34144,9.835052,-0.288498,0.710228,0.000755,0.010672,-0.000658
34145,9.812256,-0.262622,0.714980,-0.000330,0.013310,-0.001750
34146,9.824464,-0.302794,0.751042,0.001457,0.013076,0.000187
34147,9.802136,-0.292632,0.703654,-0.003235,0.015535,0.002548
34148,9.831965,-0.316915,0.735382,0.003402,0.016564,0.002425
34149,9.816857,-0.305175,0.721998,0.001056,0.017794,0.003604
34150,9.832218,-0.332829,0.686459,0.003142,0.017386,0.000319
34151,9.827035,-0.291112,0.687160,0.004366,0.018146,0.005374
34152,9.824195,-0.319765,0.708627,0.001058,0.017794,0.003601
34153,9.839010,-0.332196,0.725526,0.002302,0.018879,0.004993
34154,9.831668,-0.334234,0.693617,0.006454,0.017738,0.002088
34155,9.833665,-0.290781,0.728280,0.004268,0.022691,0.003564
34156,9.834083,-0.306438,0.678060,0.005373,0.020377,0.000993
34157,9.833939,-0.306793,0.679992,0.007678,0.018499,0.007142
34158,9.818857,-0.295271,0.666678,0.004652,0.017649,0.003810
34159,9.825891,-0.293871,0.702187,0.006177,0.018236,0.003643
34160,9.833525,-0.307912,0.685447,0.002047,0.019701,0.002879
34161,9.830642,-0.336451,0.706962,0.006719,0.016917,0.004189
34162,9.815585,-0.324727,0.693465,0.016245,0.015395,0.003444
34163,9.795502,-0.271019,0.678890,0.011834,0.017358,0.004237
34164,9.818104,-0.297163,0.676839,0.012754,0.010996,0.005036
34165,9.790265,-0.229928,0.680488,0.011110,0.014631,0.007054
34166,9.779589,-0.245000,0.720274,-0.006837,0.015362,0.005970
34167,9.807182,-0.313543,0.719461,-0.014580,0.016651,0.008651
34168,9.877939,-0.363563,0.690869,-0.006578,0.014541,0.008075
34169,9.894826,-0.332543,0.740041,0.002691,0.013838,0.005230
34170,9.912407,-0.316795,0.736768,0.003513,0.012020,0.004220
34171,9.904484,-0.303284,0.756920,0.005929,0.019057,0.001530
34172,10.024081,-0.301034,0.840007,0.014164,0.028937,-0.000264
34173,10.019472,-0.298044,0.968530,0.009237,0.052979,-0.001208
34174,10.026565,-0.335049,1.134391,0.019944,0.077843,-0.003555
34175,9.945279,-0.353701,1.284947,0.041236,0.103732,-0.014687
34176,9.975340,-0.406062,1.222333,0.083930,0.125023,-0.024795
34177,10.113958,-0.544164,1.144993,0.129732,0.155120,-0.029458
34178,10.109192,-0.528076,1.057773,0.199824,0.195755,-0.042579
34179,10.169292,-0.348896,0.881656,0.253652,0.230388,-0.066558
34180,9.889570,-0.296806,0.625364,0.271897,0.262833,-0.102120
34181,9.331888,-0.073995,0.146426,0.285280,0.217193,-0.115149
34182,9.033784,0.499642,-0.435073,0.206546,0.096907,-0.096779
34183,8.988513,0.806440,-0.584992,-0.005386,-0.026940,-0.051391
34184,9.744346,0.895442,-0.089007,-0.308025,-0.070345,0.016798
34185,10.029560,0.501339,0.690901,-0.603660,0.005788,0.066141
34186,9.940019,0.122548,1.157358,-0.734112,0.053202,0.088873
34187,9.978336,-0.312531,1.422771,-0.751876,0.071085,0.134416
34188,10.106985,-0.700576,1.716728,-0.709420,0.091375,0.157545
34189,10.476193,-0.974688,2.382004,-0.603306,0.152834,0.145485
34190,10.750849,-1.048751,3.190926,-0.443824,0.274752,0.104842
34191,10.683136,-0.377073,3.570085,-0.234331,0.417298,0.023040
34192,10.697267,0.146787,3.515125,-0.076792,0.530200,-0.037650
34193,10.881921,0.090612,3.490918,0.018776,0.649711,-0.073136
34194,10.640327,-0.122887,3.276570,0.066553,0.767527,-0.111448
34195,10.402016,-0.190327,2.873580,0.167256,0.845489,-0.132491
34196,10.603250,-0.430698,2.518298,0.244609,0.904222,-0.128471
34197,10.551911,-0.747197,2.004288,0.308283,0.967431,-0.125716
34198,9.845138,-0.754667,1.188993,0.385775,0.955010,-0.141007
34199,9.007694,-0.410514,0.011471,0.464190,0.825460,-0.157734
34200,8.793180,-0.082112,-0.969735,0.455465,0.644369,-0.154970
34201,8.874452,0.029968,-1.558354,0.265818,0.488138,-0.120199
34202,9.006039,0.151387,-1.539211,0.021926,0.359718,-0.075234
34203,9.487377,0.176445,-0.621298,-0.250062,0.282049,-0.017162
34204,9.821790,0.141096,0.625795,-0.561013,0.298980,0.058711
34205,9.630133,0.045154,1.181698,-0.792124,0.329109,0.107660
34206,9.304662,-0.283793,1.458197,-0.865513,0.303760,0.143928
34207,9.846670,-0.947855,2.416903,-0.818387,0.296579,0.191062
34208,10.791381,-1.909215,4.035708,-0.739260,0.426897,0.241324
34209,11.406542,-2.137728,5.555763,-0.596833,0.681672,0.258539
34210,11.199931,-2.076818,5.926600,-0.425527,0.963548,0.290131
34211,9.964122,-2.144810,4.810809,-0.117919,1.112682,0.305718
34212,9.410084,-2.340918,3.683249,0.283413,1.072296,0.308280
34213,9.916822,-2.645601,3.025729,0.544302,1.011727,0.315896
34214,9.621671,-2.330734,2.094537,0.716383,1.005482,0.282977
34215,8.722531,-1.467270,0.708835,0.887352,0.912400,0.247326
34216,8.590445,-0.942494,-0.512005,0.974523,0.725593,0.280720
34217,8.641199,-0.598389,-0.858599,0.895993,0.530999,0.323506
34218,8.812228,-0.067394,-0.492910,0.652367,0.350950,0.355573
34219,9.321899,0.506695,0.440259,0.291262,0.238652,0.399214
34220,9.695994,0.787732,1.521503,-0.121067,0.262276,0.454180
34221,9.528517,0.920055,2.217349,-0.550856,0.320476,0.522648
34222,9.071733,0.787130,2.183126,-0.907102,0.319481,0.576825
34223,9.007941,0.402747,2.499621,-1.134436,0.247809,0.613777
34224,10.275455,-0.307415,5.023412,-1.292581,0.283033,0.638360
34225,11.921251,-0.894263,7.786455,-1.603894,0.577766,0.653279
34226,11.703042,-0.928912,8.262078,-1.714915,1.033897,0.598326
34227,9.831990,-1.701994,6.772032,-1.408769,1.288412,0.579730
34228,9.080817,-3.109996,5.017321,-0.860327,1.190255,0.623176
34229,9.606901,-4.254338,3.973155,-0.382584,1.014462,0.643363
34230,10.031417,-4.388871,3.396855,0.020869,0.917817,0.615110
34231,9.810798,-3.798319,2.684173,0.402392,0.919972,0.574650
34232,8.932763,-2.882889,1.927886,0.711594,0.921385,0.556445
34233,8.227056,-2.338022,1.408988,0.883037,0.839210,0.560770
34234,7.809460,-1.868398,1.045766,0.862949,0.693855,0.564540
34235,7.836510,-1.352062,1.001036,0.740785,0.516947,0.561695
34236,8.486636,-0.851387,1.583502,0.513166,0.420688,0.587388
34237,9.110265,-0.531758,2.365843,0.171776,0.449272,0.649573
34238,9.081884,-0.288263,2.948964,-0.225610,0.510246,0.711019
34239,8.917807,-0.130413,3.534504,-0.586517,0.528209,0.769368
34240,9.431235,-0.232621,4.946578,-0.957993,0.558340,0.820698
34241,10.171956,-0.667380,6.645178,-1.362260,0.711673,0.861079
34242,10.683908,-1.159087,7.986660,-1.657413,0.985618,0.890893
34243,10.521170,-2.182379,8.048636,-1.800024,1.274887,0.951041
34244,9.764532,-3.924807,6.945273,-1.630594,1.444247,1.021010
34245,9.295727,-5.579180,6.171232,-1.238134,1.465773,1.084686
34246,9.470609,-6.444902,5.863031,-0.825741,1.435953,1.157998
34247,9.482461,-6.620599,5.194088,-0.422554,1.432732,1.237145
34248,8.781684,-6.468683,3.741060,0.032159,1.383227,1.291060
34249,7.867775,-6.214184,2.176688,0.524537,1.215776,1.328121
34250,7.472650,-6.055752,1.368123,0.903595,0.990263,1.358598
34251,7.754070,-5.540365,1.498549,1.079528,0.797914,1.388166
34252,7.829613,-4.399845,1.960704,1.066725,0.689021,1.384781
34253,7.774147,-3.171637,2.416937,0.979445,0.613472,1.363873
34254,7.705139,-2.177832,2.891642,0.785318,0.553250,1.349078
34255,7.562579,-1.566864,3.141587,0.457965,0.504028,1.351360
34256,7.521830,-1.264333,3.690871,0.046838,0.461629,1.348327
34257,7.889978,-1.117224,5.036487,-0.410480,0.483783,1.357389
34258,8.513750,-1.244372,7.095283,-0.898426,0.628732,1.381470
34259,9.072407,-1.528001,9.146256,-1.378401,0.895669,1.421433
34260,9.046670,-2.310137,9.914198,-1.791158,1.211520,1.479649
34261,7.952095,-3.824869,8.808780,-1.914104,1.397309,1.538642
34262,7.086413,-5.654363,7.190843,-1.692337,1.322327,1.576744
34263,7.462787,-7.163088,5.980694,-1.311714,1.174528,1.592954
34264,7.790501,-8.070444,5.141576,-0.840026,1.096236,1.562686
34265,7.344490,-8.207409,4.351988,-0.250754,1.057252,1.504120
34266,6.615182,-7.861517,3.433643,0.390645,0.980499,1.460924
34267,5.957004,-7.267147,2.775114,0.966760,0.879013,1.432782
34268,5.523810,-6.523948,2.479416,1.339164,0.747966,1.391978
34269,5.343519,-5.352806,2.502016,1.500130,0.595024,1.334805
34270,5.251213,-4.058734,2.505914,1.502030,0.455458,1.247686
34271,5.358062,-2.825160,2.789359,1.341653,0.325931,1.167053
34272,5.638840,-2.064190,3.450177,1.020441,0.241297,1.101408
34273,6.000785,-1.582487,4.869498,0.577999,0.253791,1.065945
34274,6.314738,-1.483697,6.981056,0.040974,0.381553,1.079379
34275,6.465427,-1.897827,8.467047,-0.527632,0.574115,1.142352
34276,5.982116,-2.769701,8.541825,-1.011030,0.743536,1.216818
34277,5.109482,-4.245160,7.437691,-1.233073,0.729898,1.269131
34278,5.114272,-5.632232,6.684099,-1.159306,0.596187,1.270753
34279,5.861505,-6.862583,6.704080,-0.973158,0.539003,1.248856
34280,6.261814,-7.801815,6.657410,-0.661645,0.594446,1.213266
34281,5.800992,-8.210546,6.174306,-0.161646,0.654976,1.136996
34282,4.995523,-8.061619,5.446260,0.465613,0.639722,1.041100
34283,4.299763,-7.695089,4.529250,1.065382,0.536054,0.948189
34284,3.897388,-7.169714,3.646295,1.497616,0.401137,0.871510
34285,3.436926,-6.322024,2.735504,1.767357,0.250940,0.794669
34286,2.971819,-5.389435,2.047514,1.903917,0.057675,0.741179
34287,2.991557,-4.491657,1.747337,1.878925,-0.159998,0.703633
34288,3.293524,-3.707610,1.792242,1.598415,-0.324265,0.673461
34289,3.310391,-3.014344,2.044700,1.155179,-0.467277,0.651783
34290,3.349039,-2.626879,2.956569,0.690433,-0.630350,0.628177
34291,4.191508,-2.561239,4.804546,0.189087,-0.719198,0.642968
34292,5.076108,-2.599497,6.972139,-0.395437,-0.628809,0.693148
34293,5.546063,-2.992169,8.802823,-0.956790,-0.444748,0.729991
34294,5.973774,-4.284129,10.190189,-1.305634,-0.223377,0.770988
34295,5.998739,-5.995291,10.766354,-1.405448,-0.000285,0.798084
34296,5.695614,-7.759553,10.467941,-1.224635,0.112971,0.801161
34297,5.940784,-9.137182,9.995205,-0.770721,0.165762,0.790550
34298,6.290957,-10.337221,9.895239,-0.186442,0.302872,0.774929
34299,6.075401,-11.204573,9.799559,0.474954,0.551227,0.747985
34300,5.222645,-11.934998,8.708849,1.322817,0.728733,0.751322
34301,4.584367,-11.569515,7.697093,2.114427,0.702143,0.796671
34302,4.432398,-10.796670,6.264991,2.734545,0.592238,0.872089
34303,4.365271,-9.738676,5.363322,3.117500,0.527925,0.942856
34304,3.932560,-8.677253,4.622892,3.269458,0.502042,1.049798
34305,3.432664,-7.482446,3.781223,3.267914,0.451812,1.180605
34306,2.632094,-6.075187,3.332131,3.072066,0.390241,1.265804
34307,2.297782,-4.739899,3.888152,2.729552,0.289237,1.304447
34308,2.619362,-3.625904,4.882092,2.265952,0.271244,1.334585
34309,2.679322,-2.965476,4.946263,1.779294,0.257353,1.376122
34310,2.266157,-2.252946,4.413873,1.304593,0.133389,1.410216
34311,1.789395,-1.633937,3.857887,0.807161,-0.116519,1.412196
34312,1.755481,-1.673207,3.511027,0.336667,-0.437522,1.404430
34313,2.043443,-2.456144,3.831876,0.028747,-0.720432,1.397428
34314,2.735881,-3.232383,5.444515,-0.138651,-0.914606,1.400749
34315,3.646323,-4.143368,7.762687,-0.277049,-0.955178,1.385126
34316,3.993652,-4.623589,9.553563,-0.406977,-0.862146,1.316072
34317,3.823146,-4.841645,10.663684,-0.379844,-0.716295,1.197778
34318,3.824799,-5.598709,10.613073,-0.196187,-0.576246,1.092733
34319,3.701107,-6.128817,10.120424,0.033676,-0.453817,1.069488
34320,3.202467,-6.360243,9.478742,0.321508,-0.332917,1.100496
34321,2.948714,-6.124273,9.215814,0.582499,-0.267449,1.139022
34322,3.225077,-5.786219,9.024912,0.741841,-0.195507,1.181922
34323,3.359142,-5.454300,8.674640,0.813602,-0.083598,1.216814
34324,3.335792,-5.005115,8.554585,0.849878,0.020342,1.246967
34325,3.247830,-4.783130,8.430395,0.800343,0.121191,1.253653
34326,3.153251,-4.522011,8.223023,0.737011,0.180852,1.205712
34327,3.216877,-4.224495,8.104956,0.637543,0.242938,1.142815
34328,2.727842,-3.921984,7.666557,0.585015,0.257558,1.075343
34329,1.935553,-3.220676,7.018285,0.507980,0.156355,0.989992
34330,1.542271,-2.637599,6.406200,0.403021,-0.045935,0.899287
34331,1.597668,-2.337428,6.297513,0.254184,-0.226447,0.851326
34332,2.166499,-3.055071,6.775653,0.135536,-0.364283,0.843546
34333,2.864289,-3.810276,7.995533,-0.018376,-0.396461,0.835136
34334,2.878649,-4.616775,8.930496,-0.153180,-0.368841,0.796622
34335,2.921397,-5.276741,9.704955,-0.140748,-0.311103,0.761284
34336,3.081642,-5.596715,10.345574,-0.050962,-0.161177,0.737515
34337,2.967204,-5.769314,10.532402,0.087595,-0.006681,0.701565
34338,2.912150,-5.991389,10.288538,0.307894,0.095560,0.658252
34339,2.772037,-5.652955,10.218204,0.542563,0.182022,0.617338
34340,2.807603,-5.404672,10.191764,0.736298,0.282834,0.575078
34341,2.925300,-5.255275,10.159414,0.861659,0.423419,0.568745
34342,2.940430,-5.085874,9.888345,0.968677,0.564288,0.593491
34343,2.552742,-4.582094,9.160158,1.057710,0.693031,0.584466
34344,2.182307,-3.919061,8.492063,1.115352,0.727989,0.511902
34345,2.245352,-3.101299,8.662880,1.083008,0.775741,0.433401
34346,1.851801,-2.444874,8.819712,0.987572,0.838516,0.352115
34347,1.276779,-1.854101,8.034525,0.879358,0.808479,0.242091
34348,1.073126,-1.208464,7.275868,0.765516,0.691912,0.107353
34349,1.106045,-0.542732,7.250974,0.613659,0.588486,-0.016963
34350,1.250238,-0.533249,7.379584,0.352445,0.510569,-0.108866
34351,1.586166,-1.458835,7.114954,0.091240,0.393666,-0.136976
34352,1.729600,-2.764111,7.098398,-0.087056,0.259253,-0.143489
34353,1.697825,-3.758762,7.445026,-0.143616,0.121542,-0.173735
34354,1.508647,-3.933506,8.284861,-0.163978,0.095343,-0.238541
34355,1.312671,-3.932135,9.118471,-0.124101,0.149986,-0.343760
34356,1.106650,-3.681481,9.390617,-0.068872,0.203605,-0.460097
34357,0.974146,-3.225697,9.540465,-0.028210,0.230067,-0.553285
34358,1.047414,-3.002543,9.510095,0.070747,0.282303,-0.641197
34359,0.836593,-2.716502,9.824691,0.129282,0.329559,-0.740352
34360,0.844775,-2.741459,9.785677,0.189958,0.351479,-0.849800
34361,0.879525,-2.735889,9.766313,0.334344,0.347715,-0.980516
34362,0.867435,-2.534081,9.538010,0.454416,0.280486,-1.141279
34363,1.461995,-2.232959,8.301332,0.554493,0.230401,-1.342509
34364,2.093298,-1.180938,7.771487,0.697144,0.313946,-1.544351
34365,1.595622,0.041628,8.228726,0.705148,0.397561,-1.721567
34366,1.314820,0.935387,8.362328,0.461654,0.379294,-1.869043
34367,1.574863,1.265392,8.060567,0.109968,0.373975,-1.976375
34368,2.173974,0.556175,7.555637,-0.245852,0.384909,-2.044279
34369,2.889473,-1.103650,6.788829,-0.487910,0.363213,-2.042284
34370,3.390256,-2.548745,6.968412,-0.724782,0.265606,-1.974807
34371,3.595791,-2.921758,8.186823,-1.033448,0.186260,-1.901162
34372,3.551864,-3.156240,9.590877,-1.369411,0.191499,-1.904683
34373,3.496126,-4.440565,9.871105,-1.598531,0.332837,-1.951116
34374,3.083982,-5.988521,10.016555,-1.581683,0.466560,-1.948323
34375,2.881117,-7.169636,10.527559,-1.284937,0.551376,-1.922658
34376,2.651544,-7.782774,10.831123,-0.880049,0.571212,-1.904297
34377,2.631082,-7.686427,10.210402,-0.462364,0.531984,-1.908090
34378,3.101780,-7.246068,9.299307,0.010810,0.575369,-1.911603
34379,3.219567,-6.608309,8.816284,0.404858,0.663258,-1.927794
34380,3.034495,-5.371982,7.949535,0.661936,0.691442,-1.942534
34381,2.723983,-3.920958,7.434312,0.720623,0.696940,-1.921173
34382,2.213967,-2.927109,7.261071,0.531170,0.681318,-1.889397
34383,1.900980,-2.719790,6.993939,0.238280,0.614070,-1.828878
34384,1.920527,-2.924827,6.468243,-0.033993,0.525551,-1.759604
34385,1.866414,-3.269325,5.877532,-0.246453,0.426956,-1.708079
34386,2.257707,-3.707432,5.864113,-0.369504,0.295033,-1.661074
34387,2.557599,-3.896641,6.814438,-0.507457,0.219468,-1.569070
34388,2.196283,-3.884175,7.670104,-0.727995,0.205385,-1.536739
34389,2.182977,-4.290414,8.441469,-0.875320,0.233935,-1.543372
34390,2.577844,-4.434501,10.125709,-0.924436,0.323210,-1.570787
34391,3.630551,-4.924340,12.635291,-0.813776,0.509204,-1.580224
34392,5.004726,-5.885942,15.119372,-0.671621,0.852242,-1.516780
34393,5.402220,-7.342003,15.559648,-0.589943,1.211737,-1.441037
34394,5.026154,-8.763567,13.847724,-0.238524,1.381682,-1.414875
34395,4.826872,-9.036746,11.775318,0.429465,1.432912,-1.432137
34396,4.225316,-7.746480,9.969273,1.089542,1.456411,-1.471939
34397,2.695140,-5.530644,8.412413,1.459842,1.453356,-1.485253
34398,1.508066,-3.648536,7.222040,1.491245,1.398157,-1.441513
34399,1.300869,-2.582625,6.754444,1.316858,1.310048,-1.340371
34400,1.658653,-2.033278,6.764061,0.952358,1.232541,-1.231214
34401,1.485808,-1.786177,5.947932,0.467924,1.155285,-1.151086
34402,0.709721,-1.272295,4.293284,-0.003856,0.953144,-1.142792
34403,0.202069,-0.850817,2.717980,-0.383252,0.632236,-1.156170
34404,0.162231,-0.889572,2.035644,-0.620292,0.282444,-1.177254
34405,0.746552,-1.789191,2.764326,-0.727407,0.042541,-1.217138
34406,1.975219,-2.933248,4.968765,-0.810905,0.004780,-1.183280
34407,3.103127,-3.390063,8.221740,-1.098144,0.156805,-1.071071
34408,3.370244,-3.051531,11.599778,-1.641321,0.362805,-0.953630
34409,3.106007,-3.182034,13.829887,-2.133796,0.525599,-0.883029
34410,3.065924,-4.601562,14.560787,-2.224924,0.660147,-0.850031
34411,2.849856,-6.896681,13.543565,-1.994905,0.736436,-0.779762
34412,2.283256,-9.201547,11.784503,-1.446520,0.702580,-0.709456
34413,1.731501,-9.632346,9.855742,-0.729967,0.512815,-0.621694
34414,1.907196,-8.946003,8.028028,-0.032594,0.331392,-0.570621
34415,2.090069,-7.737567,6.700973,0.603938,0.316016,-0.534250
34416,1.343531,-6.150234,5.669436,0.928284,0.338932,-0.497989
34417,0.535228,-4.874722,4.942055,0.959584,0.328645,-0.495204
34418,-0.040776,-3.617189,4.001229,0.742691,0.235816,-0.485706
34419,-0.384633,-2.441207,3.206196,0.280398,0.043060,-0.485251
34420,-0.376712,-1.822083,2.781162,-0.241646,-0.201039,-0.515331
34421,0.104318,-1.617708,2.976647,-0.676268,-0.492496,-0.547871
34422,1.553065,-1.813522,5.054429,-1.040681,-0.653048,-0.597370
34423,3.678395,-2.128871,8.997315,-1.486890,-0.484126,-0.618882
34424,5.143656,-2.093515,13.993215,-2.070086,-0.036319,-0.593757
34425,4.793479,-2.799978,17.661825,-2.757539,0.498178,-0.452355
34426,2.715369,-5.020704,17.575920,-3.230365,0.786374,-0.196804
34427,1.454594,-7.395311,14.376786,-3.140964,0.796354,-0.022511
34428,2.143272,-9.457080,10.718479,-2.402897,0.799668,0.005664
34429,2.645206,-10.749695,8.352459,-1.255769,0.816396,-0.080512
34430,2.164932,-10.214149,7.125061,-0.226221,0.706069,-0.186529
34431,1.318503,-8.732725,5.020408,0.590864,0.550853,-0.255015
34432,0.467145,-6.722145,3.018917,1.240075,0.393731,-0.257269
34433,-0.223524,-4.592470,1.837306,1.483474,0.211320,-0.246805
34434,-0.335995,-2.613406,1.991833,1.285785,-0.022342,-0.261103
34435,0.364388,-1.124562,3.040959,0.698979,-0.276537,-0.288375
34436,1.610229,-0.442356,4.734989,-0.123282,-0.441429,-0.348196
34437,2.915066,0.007756,6.900759,-1.077767,-0.384607,-0.473708
34438,3.709069,0.426166,9.583160,-2.070431,-0.129254,-0.630432
34439,4.050632,0.257106,12.897431,-2.988489,0.244540,-0.757070
34440,3.603947,-0.968811,15.128216,-3.998404,0.640554,-0.733122
34441,1.933363,-4.014415,14.542705,-4.584082,0.905082,-0.641919
34442,1.016615,-7.728760,11.872157,-4.511526,0.954775,-0.502178
34443,1.535645,-10.980745,8.641683,-3.863667,0.937361,-0.393077
34444,2.295170,-13.276938,6.345834,-2.780658,0.904071,-0.325745
34445,2.321836,-13.934141,4.932279,-1.408711,0.820540,-0.307907
34446,1.895062,-12.378013,3.956015,-0.182021,0.716833,-0.298323
34447,0.784262,-9.802237,2.927936,0.609471,0.556361,-0.260809
34448,0.238523,-7.501494,2.481116,0.969026,0.344070,-0.217374
34449,0.661445,-5.576394,2.983386,0.867974,0.115482,-0.161098
34450,1.549394,-3.849926,4.125573,0.340718,-0.048213,-0.132904
34451,2.328007,-2.536165,5.375486,-0.515245,-0.124678,-0.142859
34452,2.548647,-1.818010,6.448245,-1.535298,-0.094123,-0.209900
34453,2.549223,-1.670983,7.149540,-2.542139,0.018271,-0.275835
34454,2.368624,-2.008692,7.783624,-3.505551,0.185312,-0.326564
34455,3.102543,-3.462249,6.087566,-4.445792,0.398801,-0.343390
34456,0.436649,-5.782562,2.711437,-4.814735,0.479377,-0.302604
34457,2.694060,-7.015713,5.058254,-4.461027,0.202396,-0.381962
34458,5.371380,-8.435979,8.504120,-4.837116,0.587270,-0.518121
34459,2.625549,-9.639553,7.909375,-4.721643,0.982873,-0.777624
34460,0.124595,-11.655378,5.605704,-3.775951,0.978527,-0.907980
34461,-0.189851,-15.006099,3.935746,-2.504641,0.922146,-0.675292
34462,0.113493,-16.540116,3.589625,-1.120403,0.796392,-0.391847
34463,0.971364,-14.537171,3.888077,0.135510,0.628626,-0.320228
34464,1.884280,-11.361311,3.821795,0.897083,0.519842,-0.338500
34465,2.032333,-8.928521,2.964922,1.287640,0.454789,-0.383712
34466,1.765700,-7.145720,2.313476,1.337239,0.380592,-0.465851
34467,1.530425,-6.221077,2.228175,1.050803,0.231134,-0.500715
34468,2.097256,-6.580337,2.733422,0.594338,0.134208,-0.462013
34469,2.416472,-7.587237,3.622205,0.068785,0.221984,-0.395400
34470,2.145732,-8.807198,4.434843,-0.248050,0.369644,-0.314900
34471,1.690024,-9.739286,4.513375,-0.281667,0.453900,-0.209468
34472,1.455317,-10.237922,4.911854,-0.123163,0.443034,-0.126282
34473,2.233718,-10.495455,5.426868,0.131318,0.375252,-0.075528
34474,3.097135,-10.489548,5.421054,0.378787,0.376046,-0.102899
34475,2.885859,-10.445139,5.218554,0.713725,0.389840,-0.164269
34476,2.089622,-10.536901,4.321821,1.152040,0.309171,-0.204822
34477,1.323727,-11.186789,3.026266,1.608919,0.199811,-0.144608
34478,0.404414,-11.774705,2.486081,1.885721,0.072069,0.046157
34479,0.510099,-11.601660,3.002115,1.885070,-0.153227,0.262571
34480,1.432380,-10.329156,3.551420,1.609255,-0.304132,0.434524
34481,2.323018,-8.538422,3.590128,1.210691,-0.319449,0.522455
34482,2.527726,-7.320718,3.861588,0.830031,-0.273255,0.543091
34483,2.095510,-6.727053,4.691805,0.528325,-0.251995,0.534621
34484,1.612071,-6.069690,5.557185,0.352101,-0.253658,0.497091
34485,1.316081,-5.354850,5.840446,0.309461,-0.271342,0.434956
34486,1.841815,-5.450316,5.788887,0.429885,-0.280591,0.371542
34487,2.752251,-6.097312,6.194769,0.713659,-0.176863,0.282840
34488,3.168943,-6.243720,6.672759,1.019444,-0.002215,0.166475
34489,2.967495,-6.346055,6.742890,1.320221,0.167351,0.045554
34490,2.683347,-6.441162,6.812266,1.588160,0.311102,-0.048603
34491,2.160112,-6.287488,6.869175,1.749504,0.419216,-0.128763
34492,1.541516,-6.501632,6.604008,1.831086,0.429011,-0.208461
34493,1.168464,-7.142462,6.023913,1.875883,0.358029,-0.239253
34494,0.951279,-7.769845,5.472743,1.840662,0.204558,-0.217846
34495,1.244897,-8.470614,5.214712,1.772805,0.034738,-0.141218
34496,1.573218,-8.867595,5.421386,1.705702,-0.086324,-0.044524
34497,1.514088,-8.995592,5.955662,1.617887,-0.233941,0.037203
34498,1.636837,-9.479798,5.540872,1.448747,-0.411598,0.127402
34499,2.007420,-9.806788,5.029492,1.369517,-0.484173,0.236982
34500,2.030446,-9.036687,5.089030,1.377700,-0.468533,0.359592
34501,1.783916,-7.626386,5.289091,1.320915,-0.446447,0.460143
34502,1.484302,-6.067668,5.844651,1.192449,-0.403922,0.509710
34503,1.389518,-5.249901,6.814324,0.952122,-0.336302,0.528337
34504,1.453052,-5.036946,7.670017,0.681520,-0.254806,0.527860
34505,1.380784,-5.169963,7.870290,0.472093,-0.173198,0.512405
34506,1.095151,-5.383257,7.496091,0.367565,-0.153230,0.485389
34507,1.003795,-5.665931,7.004672,0.358047,-0.200561,0.459636
34508,1.073823,-5.874841,6.577815,0.406206,-0.271556,0.430751
34509,1.223273,-5.836631,6.564700,0.410650,-0.307228,0.366075
34510,1.168554,-6.419599,6.054695,0.397975,-0.378207,0.345053
34511,1.120418,-6.991273,5.439656,0.459016,-0.521949,0.359874
34512,1.169959,-7.259385,4.854286,0.500681,-0.671756,0.406894
34513,1.069415,-7.179214,4.490581,0.508261,-0.789449,0.459939
34514,1.130167,-6.951154,4.302154,0.507538,-0.919182,0.531847
34515,1.136974,-6.310946,4.442010,0.443555,-1.052320,0.597008
34516,1.307067,-5.668694,5.013139,0.300834,-1.193732,0.631784
34517,1.668869,-5.382286,6.195148,0.146496,-1.272396,0.650025
34518,2.422971,-5.573154,7.857499,-0.055729,-1.225026,0.684286
34519,3.324473,-6.187937,9.273352,-0.247691,-1.041686,0.710699
34520,3.265616,-6.958699,10.148888,-0.342354,-0.809786,0.709019
34521,2.586522,-6.911645,10.948704,-0.305847,-0.669791,0.673476
34522,2.356251,-6.739808,11.157661,-0.196409,-0.590879,0.655770
34523,2.567489,-7.131028,10.578611,-0.030941,-0.483803,0.661794
34524,2.384151,-7.912945,9.176003,0.161419,-0.421111,0.699117
34525,1.949784,-8.385676,7.629168,0.397171,-0.481801,0.746180
34526,1.779858,-8.683074,6.185081,0.674162,-0.607865,0.815846
34527,1.664350,-8.668349,4.910756,0.917429,-0.728390,0.866516
34528,1.453802,-8.417919,4.067996,1.192026,-0.836998,0.878295
34529,1.593148,-7.630046,4.125064,1.419558,-1.008552,0.888383
34530,1.906393,-6.549670,3.940463,1.453025,-1.143432,0.897247
34531,1.877084,-5.227873,3.636128,1.356180,-1.278678,0.904911
34532,1.637621,-3.946888,3.821129,1.093341,-1.411796,0.929180
34533,2.059885,-3.517462,4.767735,0.729350,-1.562399,0.978992
34534,3.284258,-3.969381,6.142409,0.292833,-1.607738,1.059132
34535,3.698499,-4.251374,8.034077,-0.178946,-1.478734,1.106216
34536,3.240250,-3.807265,9.779113,-0.589210,-1.375918,1.081870
34537,3.169512,-3.609469,10.560947,-0.856380,-1.290909,1.013859
34538,3.542926,-4.598167,10.317583,-0.967080,-1.149147,0.967475
34539,3.715882,-5.929855,9.627244,-0.884309,-0.957330,0.939023
34540,3.588672,-7.004292,9.207823,-0.594032,-0.832982,0.899103
34541,3.762880,-7.785573,8.918956,-0.222312,-0.720280,0.863104
34542,3.216637,-8.257349,8.423865,0.172736,-0.602566,0.827896
34543,2.586717,-8.101145,7.753722,0.533831,-0.577979,0.825128
34544,2.287948,-7.745493,6.613295,0.830350,-0.599211,0.877020
34545,2.071723,-7.335292,5.694377,0.999186,-0.631952,0.966690
34546,1.930468,-7.173710,4.987611,1.075107,-0.713541,1.036918
34547,2.127719,-6.780754,4.805730,1.100247,-0.826451,1.090709
34548,2.366276,-6.376340,4.408081,1.045409,-0.979922,1.129718
34549,2.453681,-5.916117,3.828993,0.979323,-1.202766,1.134200
34550,2.869403,-5.429835,4.516476,0.864450,-1.402615,1.103885
34551,3.232376,-5.109358,6.144110,0.619883,-1.443825,1.024861
34552,3.164210,-5.004997,7.668888,0.369264,-1.369857,0.948649
34553,2.924204,-4.792879,8.828532,0.068449,-1.279274,0.946982
34554,2.903581,-4.775041,9.419586,-0.188996,-1.195725,1.019464
34555,2.884304,-4.854178,9.900138,-0.426695,-1.120323,1.055893
34556,3.840047,-5.693392,9.768216,-0.565100,-1.098888,1.091743
34557,4.639706,-7.269070,8.865715,-0.525456,-0.947397,1.122664
34558,4.216247,-8.796045,7.967243,-0.177164,-0.768911,1.144054
34559,3.389551,-9.639377,7.425260,0.375568,-0.686902,1.176107
34560,3.002361,-9.278027,7.363930,0.873608,-0.695369,1.217003
34561,2.997970,-8.479419,7.075302,1.217283,-0.705931,1.262650
34562,3.128045,-7.365460,7.077449,1.444346,-0.666942,1.298396
34563,3.026016,-6.436388,6.866089,1.563741,-0.657818,1.315956
34564,2.739758,-5.743056,5.933281,1.628687,-0.713219,1.302828
34565,2.321925,-4.841302,5.254808,1.559387,-0.808798,1.235893
34566,2.186612,-4.291209,4.553762,1.480863,-0.983284,1.157541
34567,2.209648,-3.583355,5.039963,1.355986,-1.158653,1.064748
34568,2.663754,-2.921303,6.707992,1.112886,-1.318664,0.993641
34569,3.534376,-2.394310,7.907382,0.770328,-1.288414,0.962225
34570,3.133113,-2.260897,8.020260,0.417485,-1.165367,0.913425
34571,2.557935,-2.709502,8.323036,0.124905,-1.170850,0.855446
34572,2.751093,-3.009191,8.717222,-0.063033,-1.114233,0.785211
34573,2.916554,-3.543928,8.896356,-0.206960,-0.981307,0.737811
34574,3.168869,-4.398640,8.874336,-0.286284,-0.868937,0.730078
34575,3.289396,-5.316642,8.595895,-0.269847,-0.761784,0.724162
34576,3.383862,-5.916461,8.175422,-0.134854,-0.714269,0.709843
34577,3.792437,-5.878564,8.023069,0.034075,-0.705572,0.675699
34578,4.066661,-5.777022,7.968084,0.158589,-0.678860,0.642416
34579,3.767925,-5.573151,8.000662,0.281536,-0.644545,0.589319
34580,3.272454,-5.527772,7.820223,0.400160,-0.641972,0.514125
34581,3.199187,-5.298067,7.787942,0.471484,-0.664428,0.418077
34582,3.191310,-4.976262,7.973308,0.478921,-0.669856,0.339819
34583,3.097761,-4.694694,8.114637,0.478251,-0.663032,0.274119
34584,3.152159,-4.591084,8.210434,0.474364,-0.641085,0.237366
34585,3.064764,-4.876577,8.288565,0.461421,-0.623491,0.219006
34586,3.274876,-5.345159,7.972956,0.529621,-0.644317,0.196694
34587,3.499566,-5.582257,8.160400,0.602565,-0.622189,0.152048
34588,3.617841,-6.014735,8.202096,0.868674,-0.537905,0.085761
34589,3.707842,-6.150917,8.202383,1.096284,-0.422953,0.048731
34590,3.502391,-5.889166,8.537560,1.315557,-0.248566,0.058996
34591,3.272181,-5.258529,8.638431,1.489542,-0.133608,0.076596
34592,3.735244,-4.145999,8.488410,1.472544,-0.042498,0.084869
34593,3.605719,-3.047681,7.782078,1.329699,0.081589,0.020934
34594,3.445388,-1.834035,7.067609,1.141005,0.116477,-0.117945
34595,3.359532,-0.778583,6.922452,0.737830,0.195250,-0.252884
34596,2.607142,-0.242081,6.555439,0.308604,0.163054,-0.391324
34597,2.435742,-0.164802,5.754980,-0.093675,-0.055094,-0.525004
34598,2.302516,-0.246793,5.376435,-0.472930,-0.304922,-0.628828
34599,2.332163,-1.272643,5.277732,-0.761270,-0.611543,-0.687555
34600,2.661326,-2.418502,5.817890,-1.056656,-0.870906,-0.707098
34601,3.285016,-3.843874,6.843044,-1.261002,-1.049745,-0.706064
34602,4.092304,-5.120238,8.347706,-1.379652,-1.039298,-0.717987
34603,4.713766,-6.023839,9.629823,-1.374562,-0.942696,-0.720350
34604,5.242597,-6.808725,10.550702,-1.217629,-0.722318,-0.718318
34605,5.302643,-7.632784,10.946960,-0.974528,-0.476199,-0.667794
34606,5.312486,-8.192524,10.901823,-0.605970,-0.288722,-0.615707
34607,5.593127,-8.416074,10.227128,-0.144644,-0.130271,-0.591797
34608,5.808764,-8.384317,9.597879,0.364279,0.038897,-0.605852
34609,5.493065,-7.962789,9.120638,0.871726,0.193911,-0.616279
34610,4.814551,-6.797090,8.365771,1.288293,0.306608,-0.606719
34611,4.427222,-5.270991,7.552685,1.481028,0.381059,-0.594423
34612,4.111108,-4.030729,7.070774,1.475919,0.471029,-0.590593
34613,3.789555,-2.807118,6.835317,1.333623,0.559575,-0.614738
34614,3.265118,-1.787865,6.231586,1.068515,0.507904,-0.695084
34615,2.959330,-0.762728,5.341924,0.722273,0.348719,-0.814229
34616,2.507583,-0.224433,4.533415,0.395965,0.131758,-0.970815
34617,2.336282,-0.026536,4.232415,0.111770,-0.137821,-1.127178
34618,2.650276,0.052552,4.258925,-0.184531,-0.399473,-1.248282
34619,3.214867,0.019253,4.424722,-0.514839,-0.606520,-1.353910
34620,3.978316,-0.420136,4.630441,-0.891482,-0.777423,-1.430814
34621,4.636583,-1.083170,5.176709,-1.283995,-0.923552,-1.437187
34622,5.144530,-2.078939,5.913211,-1.676010,-1.032468,-1.407776
34623,5.748562,-3.269503,6.468082,-1.999040,-1.086685,-1.349740
34624,6.386859,-4.691131,6.923079,-2.173258,-1.071658,-1.301250
34625,6.733701,-6.032360,7.376787,-2.133305,-0.997499,-1.280082
34626,6.971873,-7.055161,7.890737,-1.886125,-0.878536,-1.277134
34627,6.959816,-7.564109,8.279721,-1.491746,-0.742241,-1.287595
34628,6.743877,-7.425230,8.275679,-1.043384,-0.621472,-1.296728
34629,6.401741,-7.125402,7.787650,-0.586905,-0.546755,-1.325380
34630,5.937572,-6.753344,6.967321,-0.145889,-0.522459,-1.354481
34631,5.576673,-6.015924,6.454239,0.244107,-0.523599,-1.375330
34632,5.037530,-4.906240,6.090705,0.501573,-0.517421,-1.361947
34633,4.609599,-4.061527,5.349284,0.660991,-0.542393,-1.357722
34634,4.795498,-3.484525,4.471644,0.695812,-0.606374,-1.342310
34635,5.251211,-3.175276,3.869374,0.650804,-0.685796,-1.305150
34636,5.764145,-3.180330,3.714931,0.525355,-0.805423,-1.256523
34637,5.975021,-3.409426,3.623649,0.334895,-0.968910,-1.232762
34638,5.696098,-3.161740,3.869941,0.023180,-1.196446,-1.242089
34639,5.447867,-2.412654,3.731374,-0.335388,-1.441474,-1.308955
34640,5.222432,-1.879448,2.852941,-0.645188,-1.637032,-1.428794
34641,5.539870,-1.796126,1.704120,-0.889836,-1.866800,-1.510755
34642,6.430657,-2.061003,0.973783,-1.143582,-2.078305,-1.495673
34643,7.237717,-2.157685,1.509206,-1.486012,-2.246416,-1.451626
34644,8.241587,-2.504065,2.774520,-1.841712,-2.356117,-1.406250
34645,9.752265,-2.967660,4.358896,-2.194026,-2.330241,-1.323349
34646,10.918784,-3.574169,5.745378,-2.505857,-2.064109,-1.235811
34647,11.128768,-4.355843,7.286056,-2.696268,-1.660954,-1.147408
34648,10.606411,-5.237093,8.340851,-2.727859,-1.311037,-1.053385
34649,9.687557,-6.121115,8.101587,-2.515332,-1.121502,-0.977786
34650,9.083946,-6.990266,6.985807,-2.092975,-1.071725,-0.934470
34651,8.813178,-7.596963,5.736449,-1.503838,-1.066437,-0.920311
34652,8.784492,-7.752975,4.862749,-0.830409,-1.047590,-0.919368
34653,8.849560,-7.219729,4.399847,-0.224905,-1.031222,-0.922896
34654,8.973306,-6.157648,3.897719,0.200418,-1.014293,-0.931494
34655,8.778298,-5.084279,3.162363,0.450328,-0.979794,-0.954709
34656,8.424749,-4.064076,2.327588,0.529710,-1.034945,-0.976083
34657,8.363465,-3.649436,1.485529,0.517070,-1.157628,-1.003616
34658,8.407483,-3.159320,0.850941,0.459067,-1.297229,-1.058665
34659,8.332796,-2.239939,0.608026,0.315205,-1.491685,-1.111498
34660,8.728514,-1.422844,0.437743,0.122479,-1.712844,-1.134187
34661,9.526075,-0.817046,0.909625,-0.130289,-1.820868,-1.101723
34662,10.698302,-0.686772,2.659108,-0.525371,-1.743860,-0.991045
34663,11.892053,-0.810043,5.355425,-1.098891,-1.455018,-0.809616
34664,12.401865,-0.657941,7.329367,-1.820023,-1.014896,-0.646666
34665,12.078935,-0.870762,7.742165,-2.313550,-0.603672,-0.565186
34666,11.239470,-2.196084,6.461837,-2.343742,-0.340346,-0.529752
34667,10.560561,-4.244137,5.000898,-1.929166,-0.252337,-0.528359
34668,10.536658,-5.684359,4.076685,-1.339076,-0.252843,-0.533354
34669,10.602356,-5.747593,3.896410,-0.812408,-0.223020,-0.561281
34670,10.335810,-5.017167,3.598894,-0.423273,-0.161453,-0.613247
34671,9.934998,-4.469716,2.705609,-0.074608,-0.113157,-0.654763
34672,9.355129,-4.170380,1.633402,0.271182,-0.122749,-0.689398
34673,8.765066,-3.789805,0.699523,0.528771,-0.211277,-0.721388
34674,8.319048,-3.292149,-0.315217,0.670423,-0.372351,-0.754995
34675,8.183740,-2.694371,-1.132517,0.752500,-0.579267,-0.773452
34676,8.424530,-2.223692,-1.662535,0.762922,-0.793947,-0.744080
34677,8.979904,-1.651423,-1.550532,0.620833,-0.985544,-0.684013
34678,9.742321,-1.248298,-0.730886,0.334692,-1.071778,-0.576569
34679,10.404570,-1.173767,0.658067,0.065046,-1.005838,-0.459925
34680,10.901254,-0.980172,2.946600,-0.282289,-0.850147,-0.374503
34681,11.637594,-0.909323,4.808936,-0.644475,-0.583810,-0.305229
34682,11.963347,-1.114326,6.156157,-0.926109,-0.238517,-0.262777
34683,11.965251,-1.699553,6.525287,-1.021001,0.108228,-0.264365
34684,11.124968,-2.875951,5.573441,-0.874821,0.370131,-0.235721
34685,9.844040,-3.802939,3.844305,-0.435825,0.428019,-0.217297
34686,9.446386,-4.473633,2.321808,0.122779,0.361834,-0.220256
34687,9.711574,-4.620392,1.831042,0.640803,0.306036,-0.278202
34688,9.778900,-4.246267,1.595769,1.027709,0.333429,-0.369189
34689,8.544012,-2.888592,0.778669,1.331741,0.328440,-0.484099
34690,7.108411,-1.312356,-0.885432,1.558368,0.149747,-0.608800
34691,6.796520,-0.372715,-2.465879,1.708763,-0.143315,-0.662796
34692,7.941314,-0.642536,-2.592010,1.610717,-0.389798,-0.565486
34693,9.144108,-0.856097,-1.457180,1.173506,-0.506555,-0.389135
34694,9.413418,-0.530344,-0.752673,0.637378,-0.507145,-0.303293
34695,8.981822,0.355391,-0.541247,0.262976,-0.537252,-0.322809
34696,8.826364,0.668710,-0.359638,-0.011156,-0.694164,-0.321895
34697,9.296557,0.318378,-0.035569,-0.251972,-0.824777,-0.275411
34698,9.956311,-0.284441,1.002119,-0.472926,-0.802743,-0.208528
34699,10.520085,-0.647726,2.375177,-0.646305,-0.669406,-0.164121
34700,10.864603,-0.704910,3.504615,-0.742564,-0.500068,-0.177449
34701,10.696614,-0.634215,3.822861,-0.693874,-0.377336,-0.252114
34702,10.519186,-0.659504,3.490372,-0.509657,-0.332564,-0.330672
34703,10.402622,-0.952947,2.973297,-0.288216,-0.303260,-0.378606
34704,10.570424,-0.903435,2.661327,-0.127033,-0.261489,-0.448803
34705,10.547848,-0.567101,2.528774,-0.035171,-0.184015,-0.557827
34706,10.348819,-0.053303,2.153596,0.003671,-0.119782,-0.675909
34707,10.169191,0.197826,1.597200,-0.004757,-0.094990,-0.789624
34708,10.099381,-0.082473,1.256358,-0.024593,-0.064024,-0.826902
34709,10.009332,-1.026468,0.920484,-0.115460,-0.011666,-0.693819
34710,9.724399,-2.496772,0.492918,-0.130594,-0.005444,-0.455318
34711,9.523780,-3.434040,-0.004349,-0.040849,-0.110864,-0.285562
34712,9.399376,-3.799040,-0.904059,0.043123,-0.246790,-0.192607
34713,9.052389,-2.686198,-1.352750,0.116601,-0.340480,-0.149559
34714,9.076146,-1.227622,-0.909584,0.091663,-0.390931,-0.105893
34715,9.428279,-0.252700,0.112571,0.041309,-0.381730,-0.056619
34716,9.519929,0.194025,0.932442,-0.017795,-0.345582,-0.052873
34717,9.292467,0.623039,1.209599,-0.076617,-0.340410,-0.100769
34718,9.367073,1.057065,1.195735,-0.117479,-0.361746,-0.165413
34719,9.708397,1.303498,1.272426,-0.144584,-0.355802,-0.238714
34720,9.978577,1.429224,1.427979,-0.190912,-0.312787,-0.313065
34721,10.234100,1.239657,1.439559,-0.268509,-0.262245,-0.368334
34722,10.253679,1.048482,1.197216,-0.343932,-0.213983,-0.398065
34723,10.323639,0.840118,1.176366,-0.411147,-0.186789,-0.417905
34724,10.373170,0.688119,1.145522,-0.474987,-0.155633,-0.435433
34725,10.343550,0.471454,1.057032,-0.515605,-0.134174,-0.449337
34726,10.307298,0.046947,0.870990,-0.514392,-0.127471,-0.447337
34727,10.287978,-0.420259,0.711669,-0.480742,-0.118423,-0.429016
34728,10.235792,-0.790152,0.508892,-0.424605,-0.101812,-0.407431
34729,10.206135,-1.137272,0.390669,-0.363885,-0.087812,-0.368473
34730,10.076864,-1.329747,0.230810,-0.281986,-0.070911,-0.328164
34731,9.911386,-1.243893,0.203234,-0.219877,-0.062484,-0.281434
34732,9.848216,-1.120815,0.231224,-0.163451,-0.064937,-0.217428
34733,9.909430,-0.875130,0.368058,-0.149053,-0.073578,-0.162413
34734,9.980283,-0.885261,0.433294,-0.135361,-0.065163,-0.107769
34735,9.966654,-0.933862,0.389676,-0.113749,-0.055882,-0.066621
34736,9.934415,-0.864819,0.394062,-0.081868,-0.056320,-0.031772
34737,9.998799,-0.752515,0.419375,-0.049334,-0.047977,-0.008492
34738,9.997141,-0.714442,0.453729,-0.020891,-0.027749,0.019284
34739,9.938562,-0.660607,0.484516,0.016625,-0.015127,0.043419
34740,9.895489,-0.521071,0.537554,0.058935,-0.007755,0.060951
34741,9.981323,-0.432680,0.616601,0.088396,0.011345,0.083888
34742,9.948062,-0.376064,0.629956,0.107510,0.030228,0.088308
34743,9.935594,-0.348964,0.550644,0.136992,0.040962,0.096378
34744,9.933337,-0.319374,0.594084,0.163498,0.053527,0.108779
34745,9.947546,-0.272661,0.636910,0.186076,0.068073,0.116592
34746,9.844940,-0.195819,0.581409,0.205253,0.073742,0.128720
34747,9.820484,-0.083952,0.601765,0.209794,0.080423,0.142579
34748,9.820493,0.072985,0.637646,0.212428,0.075759,0.156507
34749,9.816386,0.121670,0.579575,0.196665,0.085777,0.165515
34750,9.791533,0.200225,0.615553,0.186318,0.089711,0.164799
34751,9.847637,0.236205,0.652271,0.158759,0.100449,0.165423
34752,9.891393,0.276065,0.622191,0.130793,0.109945,0.157665
34753,9.932155,0.255588,0.625820,0.091365,0.126604,0.144644
34754,9.957143,0.108569,0.574153,0.052863,0.136347,0.135813
34755,9.963306,-0.085725,0.542386,0.028417,0.154709,0.123624
34756,10.036493,-0.209186,0.503759,0.022193,0.157799,0.120130
34757,9.990859,-0.362028,0.397120,0.015431,0.162232,0.116120
34758,10.050912,-0.535700,0.411261,0.009967,0.155817,0.129968
34759,10.120150,-0.651802,0.426604,0.020124,0.150240,0.141543
34760,10.079728,-0.809464,0.352723,0.032833,0.142603,0.154075
34761,10.014098,-0.834509,0.341924,0.053207,0.128789,0.169484
34762,9.929231,-0.908419,0.347511,0.077561,0.106655,0.181145
34763,9.854158,-0.924134,0.352989,0.110381,0.093298,0.192373
34764,9.802997,-0.964974,0.351992,0.149469,0.076822,0.207031
34765,9.799408,-0.945338,0.398071,0.184861,0.069725,0.218050
34766,9.741191,-0.946334,0.399124,0.224960,0.063534,0.230917
34767,9.730925,-0.886707,0.447512,0.254044,0.058992,0.242081
34768,9.715403,-0.826019,0.461168,0.281166,0.051978,0.248618
34769,9.686556,-0.792921,0.422667,0.295877,0.049735,0.253999
34770,9.695202,-0.819088,0.497821,0.313811,0.044584,0.257181
34771,9.724762,-0.838445,0.517241,0.334575,0.041568,0.258087
34772,9.725293,-0.832012,0.507171,0.358245,0.039258,0.262465
34773,9.748251,-0.768776,0.564859,0.378028,0.032441,0.254050
34774,9.675852,-0.716173,0.583766,0.394696,0.023900,0.249448
34775,9.712240,-0.674667,0.566782,0.403508,0.020618,0.249215
34776,9.719099,-0.667166,0.588076,0.413430,0.016484,0.240619
34777,9.729460,-0.629134,0.591430,0.415456,0.014381,0.232332
34778,9.777444,-0.586930,0.640644,0.415287,0.009278,0.223222
34779,9.847020,-0.580983,0.598255,0.411900,0.011736,0.214546
34780,9.859965,-0.570228,0.652027,0.405297,0.009266,0.205709
34781,9.874940,-0.499301,0.635095,0.397029,0.004196,0.187223
34782,9.847336,-0.518685,0.659170,0.381809,0.004705,0.181892
34783,9.864523,-0.474504,0.693196,0.378337,0.000873,0.161644
34784,9.867852,-0.415781,0.711239,0.367481,0.001093,0.146308
34785,9.845558,-0.472317,0.734360,0.354437,0.001635,0.134221
34786,9.877369,-0.435943,0.783001,0.341674,0.006269,0.118845
34787,9.795359,-0.425076,0.797506,0.327593,0.006477,0.098083
34788,9.802691,-0.373944,0.762141,0.319341,0.008238,0.084218
34789,9.783506,-0.324147,0.748231,0.305319,0.008749,0.059868
34790,9.760516,-0.301164,0.752968,0.279503,0.010782,0.042871
34791,9.700781,-0.238611,0.745025,0.254746,0.018067,0.029191
34792,9.727853,-0.193185,0.759079,0.214955,0.019004,0.015204
34793,9.699643,-0.167902,0.729769,0.172556,0.017425,0.002079
34794,9.745008,-0.218225,0.726282,0.127748,0.012494,-0.008075
34795,9.755007,-0.256762,0.762772,0.089049,0.014448,-0.020518
34796,9.799928,-0.348561,0.725950,0.054016,0.012013,-0.034449
34797,9.786801,-0.402185,0.731600,0.032375,0.011931,-0.051884
34798,9.792282,-0.394618,0.766646,0.022391,0.005337,-0.071151
34799,9.778493,-0.374815,0.751450,0.003573,0.005724,-0.081520
34800,9.802987,-0.419082,0.802970,-0.009302,0.009281,-0.094508
34801,9.783962,-0.398649,0.754059,-0.027401,0.012056,-0.104041
