// Start Time: Unknown
// Update Rate: 100.0Hz
// Filter Profile: human (46.1)
// Firmware Version: 4.3.5
PacketCounter,Acc_X,Acc_Y,Acc_Z,Gyr_X,Gyr_Y,Gyr_Z
34112,9.197652,-2.779138,2.377842,0.014685,-0.005333,-0.021361
34113,9.213656,-2.805509,2.327498,0.011495,-0.004675,-0.020039
34114,9.245271,-2.788784,2.352067,0.008371,-0.006220,-0.018912
34115,9.230990,-2.823084,2.367819,0.006201,-0.004313,-0.017902
34116,9.231696,-2.821141,2.367382,0.007063,-0.009201,-0.020772
34117,9.216318,-2.797791,2.326249,0.005049,-0.001156,-0.017201
34118,9.193656,-2.778669,2.344223,-0.002815,-0.009424,-0.012541
34119,9.194327,-2.799165,2.332052,-0.005406,-0.004839,-0.013320
34120,9.202812,-2.808930,2.351804,-0.003612,-0.006741,-0.009861
34121,9.226281,-2.804282,2.344080,-0.008241,-0.004656,-0.010019
34122,9.211533,-2.796456,2.382257,-0.011055,-0.004005,-0.013164
34123,9.250176,-2.798601,2.335892,-0.004100,-0.001860,-0.011454
34124,9.235513,-2.812578,2.362679,-0.006024,-0.009237,-0.004773
34125,9.266921,-2.818917,2.375404,-0.004831,-0.001381,-0.008968
34126,9.235784,-2.768279,2.384575,-0.004476,-0.001855,-0.006988
34127,9.244022,-2.778682,2.404581,-0.008329,-0.002923,-0.003377
34128,9.213077,-2.771765,2.390744,-0.009414,-0.001969,-0.002873
34129,9.236394,-2.789451,2.371877,-0.010500,-0.001016,-0.002368
34130,9.221280,-2.782500,2.410515,-0.006004,0.001308,-0.001825
34131,9.221339,-2.782353,2.410457,-0.005273,0.000828,-0.004309
34132,9.213331,-2.771518,2.390051,-0.001086,0.000953,0.000504
34133,9.213345,-2.771494,2.390025,-0.001374,-0.000776,-0.001669
34134,9.236328,-2.745662,2.394473,0.003497,0.001543,-0.005590
34135,9.213418,-2.748959,2.401650,0.000020,0.000469,-0.006443
34136,9.221625,-2.758959,2.422254,0.001701,0.003445,-0.009044
34137,9.244860,-2.754148,2.415554,0.002787,0.002491,-0.009548
34138,9.253289,-2.785383,2.424931,0.006995,0.003086,-0.011178
34139,9.237581,-2.784491,2.373083,0.010232,-0.000242,-0.006247
34140,9.245630,-2.772585,2.405437,0.015034,0.004280,-0.009972
34141,9.253847,-2.782023,2.426656,0.015034,0.004280,-0.009971
34142,9.245944,-2.770079,2.407117,0.016407,0.005056,-0.008301
34143,9.276702,-2.732669,2.444409,0.013081,0.010119,-0.006595
34144,9.230874,-2.782777,2.436999,0.008450,0.012201,-0.006752
34145,9.230572,-2.760422,2.449716,0.006346,0.011903,-0.005938
34146,9.207376,-2.763614,2.458090,0.003819,0.014281,-0.006909
34147,9.230795,-2.823828,2.418381,0.007650,0.014883,-0.004073
34148,9.206816,-2.762547,2.461386,0.006781,0.019770,-0.001203
34149,9.198821,-2.794480,2.420136,0.005786,0.018983,-0.007332
34150,9.244223,-2.742766,2.430895,0.002527,0.021842,-0.005821
34151,9.205184,-2.767866,2.376255,-0.000949,0.020766,-0.006676
34152,9.243914,-2.784869,2.412081,-0.004209,0.023623,-0.005165
34153,9.220632,-2.809924,2.409866,-0.004632,0.026297,-0.006947
34154,9.235250,-2.794724,2.384788,-0.006073,0.027721,-0.008420
34155,9.257841,-2.790396,2.380118,-0.003926,0.025350,-0.002983
34156,9.234332,-2.793760,2.389470,-0.004321,0.028487,-0.011202
34157,9.225767,-2.760667,2.382681,-0.005934,0.023311,-0.008799
34158,9.225554,-2.781940,2.373379,-0.010666,0.027127,-0.002325
34159,9.225011,-2.781867,2.375575,-0.013476,0.027771,-0.005468
34160,9.201725,-2.807103,2.373222,-0.013758,0.026039,-0.007638
34161,9.224343,-2.802890,2.368374,-0.013477,0.027767,-0.005459
34162,9.246416,-2.755644,2.386374,-0.018039,0.027641,-0.005814
34163,9.214860,-2.748744,2.374996,-0.020567,0.030014,-0.006780
34164,9.183296,-2.741978,2.363501,-0.035341,0.030587,-0.007349
34165,9.167811,-2.778680,2.381314,-0.041449,0.033615,-0.002536
34166,9.190566,-2.796711,2.364798,-0.040255,0.030926,-0.009663
34167,9.198567,-2.850746,2.364064,-0.033905,0.029150,-0.005843
34168,9.213264,-2.836110,2.338417,-0.021445,0.024348,-0.006831
34169,9.290132,-2.834707,2.339830,-0.013618,0.021622,-0.007981
34170,9.298042,-2.866646,2.350482,-0.008707,0.021274,-0.005641
34171,9.243407,-2.841831,2.356713,0.000702,0.012726,-0.005726
34172,9.222202,-3.002780,2.193594,0.022288,0.008184,-0.005997
34173,9.217811,-3.220687,2.139759,0.070234,-0.007377,-0.006767
34174,9.093607,-3.676721,2.066867,0.204421,-0.031565,0.007383
34175,8.981336,-3.856521,2.108148,0.411255,-0.074093,0.013560
34176,8.991378,-3.922865,2.106356,0.654118,-0.129387,0.031804
34177,9.153007,-3.648502,2.366225,0.897791,-0.181757,0.045791
34178,9.529441,-3.102085,2.700948,1.065991,-0.206954,0.056910
34179,9.698287,-2.556687,2.930640,1.139100,-0.190694,0.063665
34180,9.798163,-1.782365,3.368025,1.202384,-0.149748,0.052659
34181,9.889343,-0.617605,4.024004,1.147946,-0.074258,0.009756
34182,10.242110,0.375810,5.330833,0.983447,0.107152,-0.020207
34183,10.524572,0.317214,4.860859,0.398746,0.435751,-0.119739
34184,9.631453,0.089124,3.928134,-0.045245,0.640682,-0.099370
34185,9.161202,0.242410,4.225969,-0.750948,0.739215,-0.111423
34186,9.251699,0.149432,4.426029,-1.516076,0.781107,-0.115851
34187,9.507810,-0.376305,4.557205,-2.321034,0.824163,-0.115417
34188,9.550302,-1.633003,3.747771,-3.058354,0.871444,-0.048790
34189,8.975290,-3.162072,2.691140,-3.460456,0.833018,0.108366
34190,8.622258,-5.030194,2.627899,-3.430574,0.731497,0.274110
34191,8.574588,-7.391207,2.324593,-3.013009,0.613099,0.407302
34192,8.810091,-9.705823,2.178924,-1.933776,0.430288,0.500482
34193,9.198899,-11.103844,2.362457,-0.418448,0.220257,0.590433
34194,9.697929,-11.238673,2.665882,1.326288,0.025210,0.670500
34195,9.958208,-9.534261,2.238348,2.767927,-0.068041,0.761895
34196,9.777867,-7.178876,2.133375,3.768676,-0.140723,0.836306
34197,10.022655,-5.007756,2.528974,4.245404,-0.157922,0.895173
34198,10.419702,-2.776783,3.932860,4.310664,-0.066706,0.911108
34199,10.726665,-0.176613,5.375508,3.835059,0.145817,0.888038
34200,10.458042,2.385084,5.880259,2.746179,0.458382,0.867218
34201,9.926126,4.068985,6.055778,1.306840,0.767635,0.831479
34202,9.347769,4.105680,4.769815,-0.490114,1.078502,0.783523
34203,8.629105,1.929945,3.050966,-2.033196,1.271356,0.761964
34204,8.169370,-0.981733,2.262578,-3.081700,1.335529,0.751480
34205,8.202275,-3.420062,2.466181,-3.523693,1.356587,0.753863
34206,8.301355,-5.270702,2.542059,-3.701921,1.380527,0.754209
34207,7.652264,-7.164930,1.456794,-3.596861,1.362422,0.822722
34208,6.422528,-9.449090,1.178393,-2.839371,1.173093,0.886640
34209,5.873547,-11.936100,0.987783,-1.463474,0.797489,0.892091
34210,6.422857,-13.533191,2.791125,0.773949,0.305974,0.842197
34211,8.202281,-12.127439,4.064329,2.784631,-0.056840,0.843518
34212,8.867649,-8.992285,3.799073,4.111558,-0.185972,0.918054
34213,8.808810,-5.702522,4.486429,4.806769,-0.217116,0.989175
34214,9.056069,-2.773110,6.058487,4.854282,-0.085543,1.009144
34215,9.209457,0.430348,6.920073,4.210988,0.155037,0.931931
34216,9.108589,2.766014,7.660251,2.938018,0.521279,0.850926
34217,9.072109,3.070611,7.484225,1.216537,0.935719,0.728748
34218,8.988503,1.423137,6.299887,-0.400610,1.306303,0.623261
34219,8.556538,-0.850610,5.207488,-1.613668,1.584232,0.545520
34220,7.929104,-2.789647,5.172035,-2.287396,1.768327,0.471262
34221,7.796102,-4.294183,5.759157,-2.577128,1.863619,0.480161
34222,8.431699,-5.008864,6.930935,-2.690083,1.951302,0.524624
34223,8.517771,-5.562989,6.170464,-2.983178,2.058408,0.630119
34224,7.184698,-7.010765,2.859416,-3.385365,2.066319,0.876551
34225,5.286248,-9.819813,2.234125,-2.833215,1.802433,1.052825
34226,5.084505,-12.282518,3.568712,-1.454332,1.262010,1.130260
34227,6.543173,-13.128081,5.323285,0.213859,0.772885,1.215140
34228,8.240138,-12.231539,5.486060,1.593323,0.506008,1.344141
34229,8.629709,-9.769500,5.320840,2.609754,0.393994,1.504498
34230,8.267295,-7.046394,5.408759,3.013747,0.400904,1.589025
34231,7.590342,-5.107583,6.146872,2.947661,0.552636,1.583593
34232,6.843974,-3.311073,6.801361,2.633500,0.670627,1.515518
34233,6.838398,-2.206610,7.524432,1.981701,0.872024,1.434028
34234,7.159216,-2.032770,7.720650,1.174969,1.159157,1.373534
34235,7.003988,-2.343028,7.324901,0.297264,1.469274,1.356568
34236,6.532012,-3.499628,6.698207,-0.520206,1.711605,1.343775
34237,5.975349,-5.105818,6.480161,-1.103268,1.888682,1.306859
34238,5.733182,-6.231389,6.765797,-1.341088,1.967570,1.297319
34239,5.674393,-7.086209,6.343627,-1.611152,2.019291,1.344214
34240,5.161657,-8.346699,4.887818,-1.740461,1.999982,1.455345
34241,4.177777,-9.388325,4.244758,-1.550146,1.776118,1.595733
34242,3.488808,-10.322892,4.255271,-1.153933,1.467633,1.729730
34243,3.287924,-11.229647,6.236617,-0.416250,1.073234,1.846084
34244,4.050566,-12.249334,7.392068,0.433419,0.738800,1.961651
34245,4.766487,-12.262398,7.577283,1.429751,0.491926,2.086554
34246,4.671118,-11.003708,7.591600,2.214642,0.351221,2.192230
34247,4.571481,-9.626369,8.279509,2.778919,0.298603,2.243485
34248,5.127208,-8.464428,9.609412,3.140688,0.390800,2.228878
34249,5.363036,-6.632843,10.976256,3.252188,0.662406,2.145657
34250,4.854556,-4.308759,10.366163,2.801039,1.025699,2.014824
34251,4.129677,-3.481786,8.771897,2.173881,1.403740,1.879705
34252,3.820078,-3.334877,7.373138,1.592662,1.670502,1.733462
34253,3.927948,-3.529623,6.738889,0.968989,1.908286,1.571063
34254,3.989043,-3.597587,7.074240,0.393786,2.123647,1.433679
34255,3.913301,-3.679167,7.743547,-0.212515,2.331479,1.331953
34256,3.507907,-3.928120,7.203222,-0.904362,2.468711,1.318177
34257,2.589883,-4.699496,5.660271,-1.611684,2.489290,1.382663
34258,1.136868,-6.121667,3.695461,-2.176276,2.380922,1.484668
34259,-0.608028,-8.008444,2.719618,-2.034914,2.059337,1.566271
34260,-1.473157,-9.592304,4.491605,-1.140920,1.473259,1.594542
34261,-0.424571,-10.966174,6.896783,0.027005,0.934220,1.595384
34262,1.385741,-11.531186,7.401911,1.203244,0.536701,1.637837
34263,2.385319,-9.989406,7.026399,2.197171,0.317740,1.718771
34264,1.954116,-7.414102,7.429593,2.770143,0.227996,1.771944
34265,1.550442,-5.527771,7.787524,2.756718,0.246419,1.774497
34266,1.315998,-4.274319,8.196058,2.648818,0.382785,1.675120
34267,0.842200,-2.969660,7.991192,2.439454,0.521964,1.534846
34268,0.654293,-2.553844,7.479990,2.034232,0.743174,1.421409
34269,0.831807,-2.802038,7.033373,1.649416,0.916259,1.343847
34270,1.516589,-3.134065,6.784722,1.136645,1.098729,1.236905
34271,1.957513,-3.316056,6.386321,0.586442,1.333649,1.133145
34272,1.204374,-3.159948,6.181886,0.032696,1.545460,1.062251
34273,-0.279336,-3.418620,4.800371,-0.688804,1.625531,1.056795
34274,-1.831688,-4.711961,3.617080,-1.182797,1.554044,1.115903
34275,-3.059329,-6.569379,3.825030,-1.148560,1.308957,1.170202
34276,-3.110086,-8.049303,4.786264,-0.575168,0.924036,1.180095
34277,-2.265608,-9.029988,6.058769,0.151427,0.572361,1.248204
34278,-1.619996,-9.044071,5.434059,0.855613,0.191507,1.394066
34279,-1.621853,-7.742940,5.398665,1.371529,-0.130842,1.594280
34280,-1.595235,-6.588989,5.433200,1.397191,-0.387447,1.752670
34281,-1.146502,-6.719503,5.428076,1.304817,-0.582100,1.892191
34282,-0.700677,-6.918380,5.447221,1.353520,-0.730579,2.020479
34283,-0.542511,-6.538998,5.779190,1.475918,-0.818356,2.129486
34284,-0.344208,-5.577333,6.759511,1.636194,-0.818611,2.211081
34285,0.058969,-4.471437,8.227936,1.682996,-0.662192,2.266421
34286,0.255012,-3.747569,8.975121,1.356269,-0.338064,2.293957
34287,0.101122,-3.686709,8.954994,0.923935,0.058862,2.271491
34288,0.066810,-3.337416,9.297907,0.739638,0.379263,2.193476
34289,0.421396,-2.538030,9.423388,0.415538,0.722474,2.110353
34290,-0.190242,-1.755286,8.135726,-0.286309,1.101748,2.085810
34291,-1.836819,-2.322984,7.294190,-0.987586,1.317976,2.116048
34292,-2.810592,-3.613593,6.180920,-1.696179,1.290607,2.186280
34293,-3.678001,-5.244131,4.926749,-2.165693,1.097433,2.311621
34294,-4.574053,-7.237334,4.268935,-2.187838,0.696962,2.448336
34295,-4.977539,-9.715517,4.251571,-1.802754,0.155089,2.616449
34296,-4.356530,-11.359505,3.660910,-0.968346,-0.586153,2.841024
34297,-3.250192,-11.201600,3.733268,0.036533,-1.286978,3.117970
34298,-2.526227,-9.910090,4.152362,0.655280,-1.849336,3.430123
34299,-2.173824,-8.437303,4.675905,1.024703,-2.390620,3.722849
34300,-1.351515,-8.151532,5.010211,1.025616,-2.775259,3.980087
34301,-0.522224,-7.897740,5.155218,1.215298,-3.098682,4.185987
34302,0.042142,-6.719737,7.005672,1.622125,-3.292342,4.354845
34303,0.353842,-4.607203,9.252734,2.086403,-3.333335,4.479929
34304,0.262365,-1.778981,11.193914,2.480113,-3.206321,4.553430
34305,0.355845,1.159380,13.600421,2.313165,-2.875370,4.554278
34306,0.348539,2.096145,12.814959,1.363930,-2.390860,4.515124
34307,0.608598,1.357154,9.615577,0.976409,-2.130766,4.440190
34308,1.538020,2.028150,8.794938,1.236402,-1.828114,4.197550
34309,2.149458,4.116507,10.470157,1.608547,-1.394359,3.842478
34310,2.519311,6.662400,13.268702,1.588604,-0.864896,3.525289
34311,2.463682,8.411940,14.907480,0.939382,-0.218003,3.186328
34312,2.031038,8.282373,15.093040,0.134214,0.416752,2.844863
34313,1.325757,5.454746,12.967011,-0.577644,0.957503,2.557402
34314,0.080790,2.089443,10.010711,-0.916306,1.320332,2.340760
34315,-0.991762,-0.768114,7.324722,-0.960996,1.410375,2.224742
34316,-1.612357,-2.858783,4.825489,-0.644030,1.235028,2.197983
34317,-2.295507,-3.029128,3.740302,0.040558,0.739078,2.263761
34318,-1.960269,-1.576342,5.213363,0.278785,0.226314,2.365925
34319,-1.088634,-0.435233,7.306011,0.119393,-0.047694,2.474585
34320,-0.805237,0.067432,9.866714,-0.205475,-0.256660,2.621354
34321,-0.680502,-0.775184,10.421497,-0.582014,-0.523213,2.850846
34322,-0.560656,-1.508925,10.976014,-0.317872,-0.768802,3.008957
34323,-0.262804,-1.028878,11.602535,0.094431,-0.906574,3.064954
34324,0.112696,0.859293,12.148799,0.551511,-0.996866,3.034831
34325,0.242719,3.421245,11.837527,0.412107,-0.952622,2.923070
34326,-0.448431,3.616263,9.645875,-0.189488,-0.822707,2.819895
34327,-0.295418,2.958483,8.314737,-0.130628,-0.801833,2.604650
34328,0.796988,2.871452,9.341186,0.317667,-0.614686,2.208734
34329,1.578661,3.647289,10.972145,1.047654,-0.372826,1.823191
34330,2.025021,5.326044,12.739192,1.536144,-0.042944,1.504016
34331,1.819608,6.697888,13.348777,1.306273,0.354001,1.257576
34332,0.850965,5.933085,12.295119,0.761848,0.739736,1.033526
34333,-0.506929,3.596244,10.861455,0.266569,0.955881,0.877426
34334,-1.503880,1.189732,9.553696,-0.028853,0.989824,0.823898
34335,-1.968482,-0.530290,8.264113,-0.178181,0.820368,0.865673
34336,-2.186878,-1.442017,7.390253,-0.120910,0.545757,0.946669
34337,-2.205537,-1.597785,6.882558,-0.059601,0.179621,1.086852
34338,-1.873193,-1.610083,6.973407,-0.024615,-0.198779,1.262797
34339,-1.402714,-1.488413,6.839390,-0.040663,-0.545876,1.449402
34340,-1.151966,-0.963342,6.981996,0.072913,-0.876731,1.614575
34341,-1.124733,-0.099225,7.432604,0.242566,-1.177617,1.739441
34342,-0.873541,1.460107,8.489598,0.630903,-1.479574,1.766028
34343,0.104508,3.589974,9.902672,0.767580,-1.657406,1.675753
34344,1.034998,4.220543,10.654125,0.486363,-1.615361,1.546599
34345,1.447957,3.684655,10.058123,0.456909,-1.580563,1.386009
34346,1.896819,4.419057,9.846903,0.681506,-1.537405,1.101960
34347,2.669373,6.224862,10.555631,1.081203,-1.354598,0.670522
34348,3.085155,8.657777,11.976345,1.222814,-1.055683,0.224549
34349,2.763120,10.922414,12.045338,0.927643,-0.764354,-0.159550
34350,1.823029,11.900314,12.420952,0.249703,-0.451689,-0.551648
34351,1.143019,9.846337,12.035014,-0.518548,-0.169109,-0.934718
34352,1.060192,6.370012,11.418349,-0.969811,0.037763,-1.294381
34353,1.406769,2.343117,10.428418,-1.052805,0.204567,-1.533273
34354,1.264059,-0.222432,9.333983,-0.665393,0.240139,-1.654977
34355,1.031943,-1.566434,8.690540,-0.243002,0.188637,-1.649957
34356,1.136620,-2.663256,8.315158,0.018010,0.116214,-1.544319
34357,1.334106,-3.074829,7.811441,0.232407,-0.012530,-1.383740
34358,1.628748,-2.594602,8.356053,0.391147,-0.164305,-1.168934
34359,1.795489,-1.458955,8.749362,0.369487,-0.271779,-1.011050
34360,2.000369,0.416058,8.776363,0.372655,-0.430524,-0.892792
34361,2.448593,2.775147,9.340306,0.264569,-0.556191,-0.885299
34362,3.055152,4.981076,9.395997,-0.007693,-0.594471,-1.006766
34363,3.468067,6.771768,9.353243,-0.282339,-0.577349,-1.242921
34364,3.681449,7.787996,8.877487,-0.587460,-0.548531,-1.531991
34365,3.890044,8.388793,9.130167,-0.682280,-0.470483,-1.917418
34366,4.322010,8.673523,10.064445,-0.757285,-0.286276,-2.397182
34367,4.566926,7.984577,10.856560,-0.737652,-0.036457,-2.884884
34368,4.329081,7.242755,10.998750,-0.549516,0.223589,-3.350606
34369,3.436787,5.808437,11.468333,-0.430478,0.494994,-3.754373
34370,3.164848,2.589336,11.616327,-0.388490,0.741720,-4.047752
34371,2.983479,-1.312617,11.011426,-0.372969,1.025328,-4.196736
34372,1.601993,-3.885555,9.567814,-0.070793,1.159817,-4.170047
34373,-0.107590,-5.256155,8.943045,0.345099,1.074984,-4.029082
34374,-1.342630,-5.478632,7.637124,0.564674,0.795112,-3.787542
34375,-2.020632,-4.433994,7.180301,0.711283,0.374017,-3.477456
34376,-1.917047,-2.720129,7.499838,0.470814,-0.001325,-3.142790
34377,-1.840939,-0.658106,7.914374,0.198518,-0.337047,-2.859695
34378,-1.523870,1.585898,9.301147,-0.158238,-0.648753,-2.635686
34379,-0.748913,2.541609,10.485265,-0.836679,-0.745697,-2.504176
34380,-0.270330,2.194089,10.749294,-1.108485,-0.784921,-2.498188
34381,0.126136,0.558204,11.325056,-1.137044,-0.707085,-2.555491
34382,-0.227463,-1.710301,9.897223,-0.910448,-0.512278,-2.683448
34383,-0.926800,-2.624578,8.319738,0.194378,-0.334332,-2.885540
34384,-1.491983,-0.741384,8.729402,1.902494,-0.265894,-3.235470
34385,-1.115549,2.934987,9.792554,3.058969,-0.169603,-3.598306
34386,-0.591012,6.482832,10.967738,3.095801,-0.037525,-3.851723
34387,0.224374,7.724295,11.266016,2.182765,0.167869,-3.980845
34388,0.298291,6.841540,11.026180,1.079358,0.310278,-4.035782
34389,0.362513,4.476866,10.393319,-0.157410,0.322742,-3.965442
34390,0.569509,1.594702,8.975328,-1.212920,0.263329,-3.830614
34391,-0.621132,-0.047713,5.692459,-2.238537,0.037936,-3.565884
34392,-2.351509,-1.720531,2.990268,-2.639902,-0.380402,-3.290859
34393,-3.205564,-2.957989,3.042371,-2.172126,-1.174062,-3.121093
34394,-1.816457,-2.850429,5.656011,-1.371561,-2.010892,-3.072859
34395,0.415129,-2.042250,8.761694,-0.570217,-2.548023,-3.055394
34396,2.679921,-1.408099,13.979891,0.403708,-2.782822,-3.017346
34397,3.862509,-1.304596,17.408090,0.784987,-2.674218,-3.002612
34398,3.109134,-1.722835,17.316875,1.391739,-2.369401,-3.062507
34399,1.064136,-1.533088,15.192969,1.653398,-2.119232,-3.099276
34400,-0.139267,-2.299589,10.186084,1.716371,-1.979532,-3.082177
34401,1.048060,-2.391092,8.068725,2.931853,-1.642678,-3.276652
34402,2.460664,1.974683,11.064390,4.312054,-1.352167,-3.531714
34403,4.334746,9.238251,16.727035,3.603944,-0.816792,-3.678707
34404,5.485957,12.725176,18.156362,1.102365,0.058703,-3.822333
34405,5.168342,10.488641,16.164409,-1.316486,0.875006,-3.860378
34406,3.783364,4.952454,12.780468,-3.237388,1.519045,-3.879044
34407,2.718076,-0.555652,8.976347,-4.258623,1.859799,-3.784750
34408,2.010951,-4.565262,6.027658,-4.394414,1.964740,-3.603376
34409,0.381108,-7.204466,3.366604,-3.543904,1.764385,-3.401091
34410,-1.687707,-7.333640,4.033109,-2.007969,1.048295,-3.126292
34411,-1.729167,-5.813580,6.621574,-1.098829,0.471789,-2.971228
34412,-1.329984,-3.969410,7.811893,-0.300535,0.030400,-2.850092
34413,-0.687414,-1.566258,9.770164,0.580871,-0.450588,-2.752791
34414,-0.675170,0.942970,11.628116,0.525522,-0.604937,-2.708634
34415,-0.469468,1.023779,12.043066,-0.117039,-0.557373,-2.750356
34416,-0.405324,-0.934236,10.779189,-0.213664,-0.445870,-2.856115
34417,-0.710042,-1.689756,8.685150,0.062413,-0.265867,-3.001845
34418,-0.022153,0.319401,9.038094,1.055702,-0.029230,-3.258489
34419,1.569728,5.205557,12.757992,1.209043,0.390072,-3.529601
34420,3.894347,8.118559,14.583721,-0.644345,1.161488,-3.615723
34421,5.392245,6.323193,13.457857,-2.482698,1.846486,-3.596770
34422,4.800315,4.023430,10.739600,-4.315467,2.485752,-3.528275
34423,1.897301,0.641042,7.430686,-5.630554,2.873587,-3.419605
34424,-0.501708,-3.063458,5.280968,-6.331521,2.911871,-3.274079
34425,-2.607479,-8.363595,2.610243,-5.691573,2.634266,-3.246933
34426,-3.466921,-12.551898,4.246972,-2.745844,1.561447,-3.215428
34427,-1.141945,-11.780097,7.245220,-0.366307,0.629494,-3.121194
34428,0.271600,-9.300348,8.281613,1.204695,0.196203,-3.062298
34429,0.084986,-6.955359,9.434498,2.355039,-0.200327,-2.965219
34430,0.239977,-4.852001,10.175170,2.963019,-0.398729,-2.911636
34431,0.480202,-2.473551,10.392264,3.007745,-0.416235,-2.852203
34432,1.334096,-0.916879,10.926961,2.284080,-0.088377,-2.875623
34433,2.198862,-0.362246,10.459936,1.462862,0.515723,-2.920393
34434,3.336555,0.825563,11.201797,1.008371,0.964666,-2.955152
34435,4.743152,3.362743,12.095275,-0.195958,1.494784,-2.947987
34436,5.204002,4.930933,11.540287,-2.217076,2.148649,-2.893074
34437,4.089650,3.955679,10.337883,-4.214601,2.635152,-2.758325
34438,2.343485,1.131760,7.183146,-6.158927,2.951655,-2.562875
34439,-0.558715,-3.309271,4.148495,-7.412160,3.239402,-2.343331
34440,-4.080256,-9.726426,1.697393,-6.793272,3.031254,-2.317094
34441,-5.619272,-15.814841,2.587286,-3.617736,2.002570,-2.323319
34442,-3.805738,-17.223071,5.621677,-0.399931,1.112803,-2.334060
34443,-1.442138,-14.279127,6.890569,2.450030,0.643988,-2.374170
34444,-1.276893,-9.449742,8.419952,4.345011,0.324118,-2.321578
34445,-1.474611,-5.581155,8.790141,4.868584,0.118691,-2.245064
34446,-1.143899,-3.554503,8.976710,4.525995,0.124606,-2.202245
34447,-0.382393,-2.273617,8.899341,3.845907,0.286483,-2.283736
34448,0.688435,-1.590330,8.111064,2.775892,0.707469,-2.466851
34449,1.262298,-0.518397,7.431598,2.057322,0.996968,-2.629573
34450,1.412563,1.969037,8.109997,1.140832,1.170563,-2.741033
34451,1.012874,4.825938,9.786253,-0.772795,1.349666,-2.740564
34452,0.570320,5.075425,9.555814,-3.574958,1.598365,-2.638124
34453,0.240452,2.551546,8.161204,-6.059026,1.733790,-2.427319
34454,0.062336,-1.071852,5.927929,-7.931231,1.830924,-2.190052
34455,1.335546,-5.652280,7.653520,-8.020256,2.026211,-2.056453
34456,4.507308,-7.323510,4.855483,-7.686791,1.833093,-2.255951
34457,2.566230,-10.901516,-1.162573,-7.242554,2.417179,-1.855935
34458,-3.661562,-12.810463,-0.963550,-5.588201,2.290181,-1.691366
34459,-7.383198,-15.627868,-0.032970,-4.000892,1.781885,-1.581767
34460,-5.823595,-16.771192,1.901730,-1.691420,0.905856,-1.528787
34461,-2.477395,-14.102852,4.525452,0.213735,0.383660,-1.445449
34462,-1.096810,-10.251154,6.242181,1.226546,0.251068,-1.345025
34463,-1.333812,-7.539015,6.632995,1.106619,0.263599,-1.194466
34464,-1.601888,-6.719795,5.502261,0.373325,0.293068,-1.093724
34465,-1.452144,-6.604743,4.394615,-0.423048,0.242076,-0.999339
34466,-0.709730,-6.299094,3.976222,-1.433828,0.201976,-0.883875
34467,0.326161,-6.719381,2.857162,-2.713484,0.339207,-0.739120
34468,-0.200941,-10.028833,1.174872,-3.751331,0.737096,-0.584410
34469,-2.508122,-15.962000,-1.188323,-3.622673,0.947842,-0.553388
34470,-4.573365,-20.466089,-0.578990,-1.662511,0.563094,-0.429033
34471,-4.065901,-21.196989,1.372439,0.530290,0.018966,-0.349063
34472,-1.767469,-18.184776,2.809680,2.369683,-0.372722,-0.241073
34473,-0.832119,-13.909443,3.839947,3.289975,-0.562666,-0.033283
34474,-1.091262,-11.708982,4.517810,3.337250,-0.570711,0.197141
34475,-1.339443,-11.708574,4.233369,3.183490,-0.625977,0.459559
34476,-1.424426,-11.156098,5.228779,3.231132,-0.743522,0.709549
34477,-1.387028,-9.417906,6.218071,3.075445,-0.787115,0.890199
34478,-1.617987,-7.252096,6.678392,2.546853,-0.689379,0.939815
34479,-2.013904,-6.575102,6.064358,1.486936,-0.453567,0.866203
34480,-2.016241,-7.602560,4.501741,0.668311,-0.345842,0.740198
34481,-1.737090,-8.317831,3.820509,0.282477,-0.335359,0.589307
34482,-1.893567,-8.838004,3.547538,0.022102,-0.296731,0.479822
34483,-2.230431,-9.810401,3.522846,-0.070582,-0.314676,0.505043
34484,-2.157351,-11.765106,3.486585,-0.003964,-0.400434,0.671064
34485,-1.001220,-13.379562,3.970817,0.598377,-0.639965,0.926409
34486,0.657601,-14.149519,4.724813,1.305263,-0.833400,1.250721
34487,1.157152,-14.001205,4.739180,2.091676,-0.975460,1.663613
34488,1.078387,-12.628848,5.023813,2.839117,-1.173044,2.101993
34489,1.090841,-10.380202,4.580575,3.327543,-1.394428,2.528742
34490,1.522032,-8.917241,4.480405,3.513917,-1.510844,2.955660
34491,1.864185,-8.137399,4.727781,3.447398,-1.570904,3.370103
34492,2.411689,-7.338512,5.465752,3.315100,-1.639056,3.717052
34493,2.530771,-5.890935,6.497296,3.069153,-1.628676,3.983718
34494,2.034137,-4.637797,7.573566,2.536481,-1.480274,4.145420
34495,1.198536,-4.015267,8.065705,1.729620,-1.316498,4.205000
34496,0.336769,-3.763022,7.642498,1.063056,-1.238383,4.178369
34497,-0.595101,-2.921265,7.211316,0.785631,-1.270237,4.081997
34498,-1.771323,-2.196822,7.741950,0.445484,-1.241193,3.871877
34499,-2.378185,-2.406770,7.680965,-0.088182,-1.210739,3.646647
34500,-2.065620,-3.496990,7.784189,-0.312616,-1.252152,3.451886
34501,-1.354512,-4.492718,8.024924,-0.288749,-1.238441,3.283457
34502,-1.068434,-4.928616,7.839063,-0.067347,-1.197016,3.173125
34503,-0.943805,-4.736922,7.512114,0.274617,-1.236378,3.118597
34504,-0.519060,-4.411283,7.798843,0.542051,-1.275710,3.127744
34505,0.190763,-4.134628,8.317265,0.679079,-1.312308,3.193088
34506,0.795754,-3.784417,9.012426,0.790377,-1.301892,3.262441
34507,1.204765,-3.635709,9.715856,0.809338,-1.225651,3.343978
34508,1.414170,-3.567622,10.200084,0.797192,-1.114320,3.442249
34509,1.306181,-3.096525,10.272990,0.910465,-0.986469,3.500647
34510,0.741830,-1.984990,10.300427,1.063150,-0.846948,3.507521
34511,-0.012258,-0.838369,10.535611,1.073232,-0.655058,3.470065
34512,-0.690529,-0.305238,10.669995,0.832323,-0.383470,3.370119
34513,-1.290254,-0.593951,9.851477,0.590400,-0.117999,3.240693
34514,-1.359389,-0.451810,9.373556,0.594599,0.065448,3.080792
34515,-1.112404,0.680922,9.131546,0.565131,0.263701,2.906321
34516,-1.445965,2.345978,8.964429,0.283490,0.454731,2.775476
34517,-2.339089,3.229395,8.867005,-0.710196,0.657461,2.706269
34518,-3.380670,1.811549,8.321543,-1.680184,0.658868,2.700233
34519,-3.537859,-0.703601,8.408033,-2.423918,0.453795,2.723578
34520,-3.182075,-3.510955,8.393038,-2.898459,0.193645,2.803944
34521,-2.796395,-6.022056,7.967849,-2.830273,-0.205938,2.903052
34522,-2.237223,-7.846679,7.885410,-2.132392,-0.682060,3.042838
34523,-1.517433,-7.907899,9.398197,-1.041473,-1.120203,3.153232
34524,-0.753225,-6.752201,10.586642,-0.159793,-1.322243,3.248063
34525,-0.616589,-5.028445,11.481665,0.822578,-1.380546,3.316483
34526,-0.805651,-2.788198,12.092934,1.496631,-1.327153,3.321571
34527,-0.975515,-1.262690,12.058700,1.411954,-1.027981,3.283789
34528,-1.221896,-2.169453,10.367080,1.108841,-0.544130,3.259035
34529,-1.615174,-1.913910,8.928649,1.622871,-0.300193,3.128106
34530,-0.921270,1.501240,9.651888,2.519676,-0.167754,2.872156
34531,-0.144635,7.691706,12.593384,2.299943,0.232772,2.593688
34532,-0.584957,10.205513,12.522382,0.126522,1.110523,2.342822
34533,-2.551253,6.838188,11.123126,-1.178514,1.477879,2.208219
34534,-3.066626,2.129464,10.016588,-2.226352,1.670377,2.079829
34535,-3.087667,-2.325030,8.377687,-2.626011,1.683656,2.035752
34536,-2.995235,-5.435288,6.812545,-2.203528,1.399909,2.054305
34537,-2.698098,-6.948173,5.702281,-1.214433,0.926370,2.227681
34538,-2.612720,-6.188130,6.131202,-0.518298,0.450560,2.433231
34539,-2.323040,-5.035054,6.383703,-0.330312,0.089278,2.654009
34540,-2.030450,-4.077367,6.769605,-0.257539,-0.254262,2.882835
34541,-1.778362,-3.589077,7.614580,-0.316286,-0.551311,3.102766
34542,-1.665394,-3.484653,8.297333,-0.380007,-0.761390,3.301865
34543,-1.770017,-2.908747,8.884317,-0.051867,-0.910583,3.436693
34544,-2.031193,-1.541387,10.286197,0.542097,-0.986369,3.479913
34545,-2.113244,0.196810,11.482929,0.650438,-0.898830,3.457449
34546,-2.256298,0.448587,10.446533,0.332506,-0.573456,3.373313
34547,-2.617880,0.301455,9.123898,0.649357,-0.376214,3.247143
34548,-2.261148,1.678853,9.191026,1.181105,-0.189347,2.999030
34549,-1.439903,4.069154,10.306505,1.552680,0.070635,2.700981
34550,-0.728424,6.440221,11.513048,0.991608,0.474782,2.466208
34551,-1.173382,6.693247,11.523271,0.063800,0.850157,2.332376
34552,-2.451434,4.923158,10.814857,-0.884915,1.015759,2.328374
34553,-3.351353,1.829872,9.808538,-1.684425,1.016305,2.396658
34554,-3.650003,-1.682839,8.461029,-2.279559,0.911936,2.539050
34555,-3.789181,-4.514870,6.829678,-2.306137,0.697201,2.679958
34556,-4.131211,-5.378379,6.125459,-1.491694,0.213104,2.869693
34557,-3.583531,-3.934511,7.979118,-0.669142,-0.239324,3.060052
34558,-2.684064,-2.094880,9.761029,-0.149462,-0.453396,3.191634
34559,-2.028915,-0.585136,10.951098,0.085850,-0.572617,3.307510
34560,-1.753263,0.784344,10.425156,0.009000,-0.591719,3.359564
34561,-1.932031,1.609416,9.245293,-0.016047,-0.576118,3.330754
34562,-1.976579,1.646500,7.557482,-0.032555,-0.554358,3.265002
34563,-1.783594,1.663161,7.289887,0.472944,-0.502566,3.061322
34564,-1.026350,2.581531,8.091671,1.263883,-0.490153,2.760844
34565,0.124511,5.023674,10.260427,2.184407,-0.446952,2.487769
34566,1.035179,7.424935,12.943719,1.927811,-0.066098,2.227608
34567,0.717466,7.409886,13.222606,1.085903,0.385871,2.061067
34568,0.134288,6.897568,13.748024,0.130513,0.648930,1.963425
34569,-0.124037,6.158539,13.673555,-1.123917,0.841014,1.955517
34570,-0.062314,5.164728,12.983949,-2.424354,0.993721,2.016871
34571,-0.280030,3.910835,11.663455,-3.642765,1.096895,2.114194
34572,-0.983096,2.405810,9.866618,-4.485743,1.078082,2.230367
34573,-1.806579,0.878641,8.574982,-4.877888,0.932863,2.389113
34574,-2.382420,-0.327042,7.589012,-4.735793,0.714889,2.499606
34575,-2.733255,-0.731667,7.776826,-4.013336,0.413345,2.533064
34576,-2.539747,-1.086296,7.737900,-3.217621,0.212035,2.451393
34577,-2.452074,-1.895955,7.359866,-2.355750,0.114452,2.315163
34578,-2.391806,-3.022593,6.805337,-1.303832,0.164897,2.085782
34579,-2.918164,-2.502838,6.681812,0.342157,0.017588,1.807058
34580,-2.446240,0.050728,7.919854,1.798187,-0.170632,1.495105
34581,-1.573523,2.973845,9.270561,2.251148,-0.188386,1.257343
34582,-1.278368,4.999604,10.131049,1.714573,-0.039374,1.101484
34583,-1.755435,4.946331,9.754076,0.932677,0.030043,0.996919
34584,-2.439931,3.833353,8.941884,0.205999,-0.001276,0.957698
34585,-2.970062,2.798490,8.448621,-0.391213,-0.117478,0.946682
34586,-2.668244,0.581684,8.023512,-1.016425,-0.208192,0.987817
34587,-2.427661,-1.522454,6.818610,-1.231514,-0.318466,1.034932
34588,-2.593613,-2.269377,6.303745,-0.790866,-0.564303,1.079684
34589,-2.476931,-2.072358,7.012949,-0.308789,-0.807182,1.127959
34590,-1.998732,-1.596818,7.512728,0.160375,-1.002242,1.177312
34591,-1.531108,-1.191782,8.248908,0.668130,-1.121156,1.198919
34592,-1.139026,-0.324349,8.735549,1.311853,-1.202501,1.188132
34593,-0.621469,2.339732,10.990190,2.186800,-1.299931,1.104847
34594,0.380851,5.220925,13.631744,2.178361,-1.097830,0.925531
34595,1.101028,6.544015,14.048286,1.941970,-0.743459,0.655844
34596,1.228544,8.488451,14.951664,1.903718,-0.393753,0.271649
34597,1.149898,10.899266,15.678305,1.521560,0.099730,-0.232921
34598,0.673889,12.760698,15.646269,0.825272,0.606192,-0.781591
34599,0.671811,11.983602,15.212047,-0.138769,1.123622,-1.275283
34600,0.624114,8.400292,13.248728,-0.982631,1.597782,-1.633688
34601,0.009900,4.502795,11.361485,-1.452166,1.927827,-1.838447
34602,-0.935016,0.917228,9.011596,-1.770498,2.062439,-1.822329
34603,-2.313914,-1.839910,6.426442,-1.929716,1.968279,-1.644301
34604,-3.925238,-4.315454,3.944857,-1.924868,1.691419,-1.348672
34605,-5.215607,-5.751883,3.216176,-1.446465,1.180012,-0.997048
34606,-5.994936,-5.477881,3.628193,-1.034314,0.539899,-0.631410
34607,-6.041212,-4.327981,4.188194,-0.731655,-0.104195,-0.334342
34608,-5.188423,-3.000991,4.957082,-0.526042,-0.704413,-0.051663
34609,-4.170158,-1.964607,5.927258,-0.462567,-1.099957,0.186791
34610,-3.608310,-1.066926,7.032860,-0.291739,-1.389230,0.346261
34611,-3.205499,-0.117667,8.315224,-0.019075,-1.590564,0.386946
34612,-2.500373,0.337835,9.823735,0.245435,-1.668944,0.334589
34613,-1.728683,0.380025,10.366771,0.530495,-1.612351,0.244318
34614,-0.946209,1.333261,10.420710,1.100355,-1.481261,0.014542
34615,-0.301161,5.206249,11.464925,1.895810,-1.299717,-0.370298
34616,0.529944,10.782049,13.622653,1.815547,-0.901042,-0.856062
34617,1.395016,13.440650,14.487167,0.781814,-0.266772,-1.367630
34618,1.882414,12.080762,14.493281,-0.265837,0.355486,-1.856769
34619,1.567151,8.752543,13.929856,-0.970514,0.921446,-2.335028
34620,0.503646,5.955876,12.257769,-1.270456,1.350295,-2.764788
34621,-0.617000,4.280885,10.518946,-1.327726,1.605902,-3.083292
34622,-1.357360,3.269849,8.503599,-1.464826,1.739811,-3.280824
34623,-2.025806,2.462450,6.752506,-1.661442,1.764809,-3.371952
34624,-2.642410,1.419337,5.415034,-2.024436,1.697867,-3.402167
34625,-3.148556,0.593765,3.597136,-2.429926,1.473620,-3.367775
34626,-3.671571,-0.090324,1.962797,-2.798424,1.124631,-3.298200
34627,-3.897998,-0.923113,1.227675,-3.006625,0.731581,-3.248309
34628,-3.673187,-1.730753,1.362938,-3.027205,0.317386,-3.213632
34629,-3.007790,-2.490217,2.167803,-2.870163,-0.082047,-3.194780
34630,-1.879747,-3.252337,3.770021,-2.531369,-0.405988,-3.184199
34631,-0.591037,-4.161078,5.683355,-2.046730,-0.628138,-3.164198
34632,0.067062,-4.431922,7.506162,-1.298362,-0.758477,-3.180080
34633,0.046062,-4.210179,8.783298,-0.577905,-0.766306,-3.244181
34634,-0.528579,-3.707270,8.851327,-0.062986,-0.691120,-3.344139
34635,-1.574594,-3.146468,7.963933,0.331278,-0.641797,-3.452760
34636,-2.196556,-2.511810,7.193826,0.663627,-0.641397,-3.558691
34637,-1.582099,-2.469187,6.625131,0.733941,-0.581054,-3.658441
34638,-0.435017,-1.751648,6.650195,0.870034,-0.470992,-3.756174
34639,0.342510,0.756082,8.284684,0.852077,-0.321670,-3.880578
34640,1.015218,3.618444,10.636950,-0.221107,0.031373,-4.008637
34641,1.651786,3.496315,11.291705,-1.972245,0.566876,-4.090786
34642,2.084705,1.281500,11.132781,-3.485230,1.060058,-4.145436
34643,2.022850,-1.130661,9.499737,-4.917885,1.532955,-4.188709
34644,1.589793,-3.717144,6.555299,-6.051318,1.924719,-4.170302
34645,1.211943,-6.625524,3.530411,-6.526887,2.180426,-4.106315
34646,0.421516,-9.941171,0.461950,-6.127593,2.114585,-3.971849
34647,-0.483965,-12.150108,-0.861073,-5.247533,1.697222,-3.714059
34648,-0.966714,-12.179631,0.433079,-4.290913,1.201771,-3.529804
34649,-0.754058,-11.381054,2.448729,-3.633704,0.849094,-3.431014
34650,0.091012,-10.867629,4.456188,-3.082627,0.483675,-3.327409
34651,1.305627,-9.914578,6.494624,-2.605332,0.190697,-3.221357
34652,2.182142,-8.820969,7.520425,-2.378758,0.070693,-3.144762
34653,2.266564,-7.892342,7.824115,-2.262078,-0.002644,-3.091681
34654,2.106776,-7.297325,7.225001,-2.230071,0.006204,-3.070830
34655,1.928292,-6.629917,6.402565,-2.155357,0.051006,-3.117454
34656,2.493454,-7.512708,4.892684,-2.224313,0.293996,-3.179001
34657,3.176536,-10.304819,3.486235,-2.170288,0.620174,-3.145066
34658,4.110953,-13.788920,2.699149,-1.686129,0.920837,-3.089186
34659,4.870406,-14.244247,3.594949,-0.756056,1.088093,-3.065870
34660,4.912336,-10.967443,5.304068,-0.326957,1.278984,-3.115460
34661,4.145093,-6.968676,5.563252,-0.744300,1.425805,-3.086070
34662,3.256292,-4.689241,4.824729,-2.249187,1.537488,-2.950891
34663,2.665509,-5.565973,2.976917,-4.204421,1.625497,-2.791457
34664,2.484716,-9.230779,1.111917,-5.418854,1.460745,-2.636595
34665,3.017178,-13.944379,0.259433,-5.205033,1.147699,-2.609976
34666,3.385225,-15.815722,1.899656,-3.782295,0.692326,-2.580754
34667,4.282187,-15.633649,2.846879,-2.405013,0.370343,-2.563270
34668,4.764737,-14.627175,2.994091,-1.026564,0.159959,-2.527196
34669,4.373573,-13.153091,2.993926,0.033620,-0.024442,-2.458999
34670,3.844946,-11.374935,2.768634,0.697490,-0.280297,-2.364789
34671,3.741777,-9.228181,2.958068,0.937555,-0.483936,-2.291737
34672,4.050210,-7.949058,3.356001,0.720224,-0.531508,-2.259678
34673,4.888319,-8.084469,3.236436,0.311878,-0.408641,-2.228694
34674,5.500964,-8.510465,3.335126,0.057524,-0.210582,-2.187792
34675,6.037447,-8.719418,3.324937,-0.224793,0.052392,-2.159662
34676,6.263581,-8.175874,3.085413,-0.602576,0.341498,-2.150236
34677,6.337452,-7.084793,3.199200,-1.113325,0.598259,-2.154640
34678,6.268338,-6.105783,2.718258,-1.866226,0.860935,-2.160407
34679,5.825481,-6.540011,1.690646,-2.745287,1.054758,-2.181912
34680,4.979528,-7.842014,-0.143085,-3.273278,1.037085,-2.172638
34681,4.227691,-9.830700,-1.432685,-3.136752,0.776872,-2.221248
34682,4.353890,-11.382728,-1.649845,-2.324948,0.322055,-2.328953
34683,4.636577,-11.705280,-0.217001,-1.040472,-0.133260,-2.485398
34684,5.766351,-10.712969,2.320585,0.387897,-0.654749,-2.598491
34685,7.150719,-9.788715,3.171978,1.512642,-0.867314,-2.725807
34686,6.917887,-9.189819,2.016218,2.494254,-1.017768,-2.779418
34687,6.425496,-8.472941,0.860129,3.382447,-1.322778,-2.770954
34688,6.748839,-7.675627,1.337876,3.905545,-1.573310,-2.706425
34689,8.016697,-6.903567,4.031992,4.134848,-1.743432,-2.605265
34690,9.593188,-5.548405,6.578915,3.798952,-1.659298,-2.478980
34691,9.545981,-2.953367,5.981358,2.695068,-1.331869,-2.470895
34692,8.209046,-0.913574,2.831281,1.291369,-0.940758,-2.511018
34693,7.559055,-0.739769,-0.663115,0.484723,-0.756004,-2.618048
34694,8.414630,-2.261476,-0.999348,0.129335,-0.570180,-2.660682
34695,9.862420,-4.241271,0.721500,-0.257249,-0.337820,-2.629138
34696,10.927432,-4.820268,2.611388,-0.655797,-0.134222,-2.588546
34697,10.712540,-4.385850,3.589367,-1.305490,0.085682,-2.527796
34698,9.981043,-4.471746,3.260395,-1.932122,0.192064,-2.450736
34699,9.475691,-5.699328,2.351529,-2.279170,0.214643,-2.361833
34700,9.415116,-7.619593,2.028560,-2.011133,0.127201,-2.273539
34701,9.936230,-9.065062,2.934254,-1.146534,-0.055007,-2.238060
34702,10.438150,-9.489468,4.052863,-0.124520,-0.157172,-2.205341
34703,10.435856,-9.422358,3.715383,0.906531,-0.231892,-2.120338
34704,10.041680,-8.678849,3.286855,1.962763,-0.335193,-1.966356
34705,9.516373,-7.122926,3.183995,2.756570,-0.476516,-1.772100
34706,9.426406,-5.606464,3.290945,3.182972,-0.599468,-1.572712
34707,9.762777,-4.511036,3.603079,3.234552,-0.626840,-1.387917
34708,9.701327,-3.339511,3.624059,3.057072,-0.603277,-1.254199
34709,9.297742,-1.616991,3.405887,2.698608,-0.607922,-1.202372
34710,8.881488,-0.034247,3.117710,2.077188,-0.602049,-1.233305
34711,8.818508,0.712318,2.851102,1.380853,-0.536689,-1.342663
34712,8.963052,0.666509,3.042900,0.698441,-0.463117,-1.497891
34713,9.421203,0.130213,3.032385,0.078517,-0.437101,-1.642315
34714,10.006941,-0.534238,2.319848,-0.508715,-0.374410,-1.743425
34715,10.114613,-1.256399,1.628024,-0.984748,-0.282844,-1.774923
34716,9.809934,-1.858279,1.378512,-1.236320,-0.235479,-1.765829
34717,9.764220,-2.365834,1.588241,-1.374187,-0.246739,-1.678792
34718,10.010901,-2.743312,1.827774,-1.381946,-0.281158,-1.511064
34719,10.264816,-2.852327,2.330903,-1.325845,-0.293825,-1.299289
34720,10.334363,-2.728557,2.555896,-1.251762,-0.303581,-1.072920
34721,10.256165,-2.491258,2.922031,-1.149067,-0.308166,-0.879626
34722,10.315301,-2.465543,3.057260,-1.075087,-0.313338,-0.704350
34723,10.370756,-2.599552,3.129466,-0.986705,-0.312750,-0.552587
34724,10.440063,-2.908112,3.046751,-0.914539,-0.308421,-0.400697
34725,10.384508,-3.119186,2.911447,-0.804513,-0.304389,-0.271256
34726,10.266302,-3.114724,2.772822,-0.688445,-0.291138,-0.178194
34727,10.187434,-3.129613,2.670029,-0.575757,-0.278980,-0.100550
34728,10.045340,-3.006283,2.511266,-0.451923,-0.259662,-0.039810
34729,9.854095,-2.845065,2.486632,-0.335797,-0.237998,0.000441
34730,9.755663,-2.696209,2.365914,-0.223904,-0.222768,0.023487
34731,9.636675,-2.572588,2.346176,-0.133658,-0.196142,0.026303
34732,9.604022,-2.654716,2.359576,-0.059298,-0.171722,0.036128
34733,9.669380,-2.705936,2.267071,0.008769,-0.155547,0.035785
34734,9.724928,-2.581930,2.281964,0.068540,-0.130318,0.038593
34735,9.798327,-2.503808,2.391319,0.115549,-0.102007,0.051852
34736,9.778971,-2.437478,2.451581,0.143529,-0.074430,0.076087
34737,9.768594,-2.290071,2.502293,0.162159,-0.051607,0.108132
34738,9.747339,-2.169481,2.577414,0.164201,-0.033758,0.141501
34739,9.695911,-2.206978,2.555615,0.157660,-0.014170,0.175262
34740,9.796440,-2.344835,2.501955,0.168810,-0.000765,0.225653
34741,9.814016,-2.356491,2.395070,0.207892,0.009607,0.276388
34742,9.832481,-2.387422,2.380494,0.245393,0.025191,0.324812
34743,9.807620,-2.384651,2.388920,0.295265,0.039861,0.375471
34744,9.849978,-2.371701,2.367165,0.339653,0.051961,0.426743
34745,9.841736,-2.352246,2.284327,0.378954,0.065959,0.473060
34746,9.836178,-2.328369,2.343451,0.409473,0.082844,0.526298
34747,9.883604,-2.365554,2.296201,0.426070,0.100745,0.582632
34748,9.868886,-2.356634,2.325669,0.438791,0.117410,0.637016
34749,9.872315,-2.366620,2.301893,0.436996,0.137084,0.699004
34750,9.914412,-2.423472,2.260582,0.425969,0.152558,0.765172
34751,9.947618,-2.416383,2.210757,0.418831,0.170464,0.836408
34752,9.979315,-2.495592,2.139197,0.402717,0.184529,0.907824
34753,9.997393,-2.528016,2.115386,0.393818,0.197013,0.980397
34754,10.006664,-2.520403,2.032403,0.385975,0.205529,1.044526
34755,9.948657,-2.502623,2.030062,0.377736,0.206780,1.102403
34756,9.951319,-2.523482,2.003817,0.366986,0.208215,1.141579
34757,9.929503,-2.484607,1.970732,0.351144,0.210363,1.173327
34758,9.893165,-2.450805,1.975027,0.316767,0.202003,1.191600
34759,9.895491,-2.462297,1.960496,0.287729,0.200539,1.191922
34760,9.851283,-2.469585,1.970697,0.256084,0.198662,1.182813
34761,9.746400,-2.489971,2.029516,0.224431,0.201070,1.161547
34762,9.593137,-2.453158,2.051570,0.198858,0.202225,1.132772
34763,9.433238,-2.488646,2.051827,0.174349,0.201350,1.100633
34764,9.328634,-2.519865,2.058670,0.149902,0.197130,1.065316
34765,9.243890,-2.565796,2.010562,0.136486,0.188263,1.030169
34766,9.115590,-2.637124,1.957251,0.142624,0.182676,0.979964
34767,9.060948,-2.621757,1.964815,0.158597,0.169944,0.936454
34768,9.017008,-2.634551,1.975668,0.175361,0.159279,0.890333
34769,8.976396,-2.576694,1.938315,0.193023,0.143243,0.846723
34770,8.860638,-2.599337,1.929124,0.211587,0.132356,0.794550
34771,8.864009,-2.593118,1.893233,0.233220,0.114328,0.743625
34772,8.882297,-2.570057,1.923086,0.257860,0.095982,0.680028
34773,8.849777,-2.556083,1.928589,0.274092,0.082535,0.631448
34774,8.818938,-2.497579,1.961398,0.285651,0.063154,0.579125
34775,8.804039,-2.540159,1.973595,0.298263,0.046705,0.517772
34776,8.831539,-2.516548,1.983777,0.307424,0.029870,0.464077
34777,8.790277,-2.499071,2.007803,0.317959,0.013720,0.411837
34778,8.815392,-2.511807,1.953340,0.325343,-0.006765,0.351140
34779,8.914655,-2.507736,2.006557,0.335921,-0.022890,0.298456
34780,8.925802,-2.528152,1.973741,0.343845,-0.042471,0.241743
34781,8.940177,-2.540687,2.064296,0.357351,-0.054308,0.186139
34782,8.984353,-2.561266,2.043745,0.367914,-0.070576,0.133165
34783,8.941929,-2.582984,2.076365,0.381123,-0.083503,0.084079
34784,8.912554,-2.570166,2.063804,0.394884,-0.102067,0.038253
34785,8.955966,-2.620033,2.104325,0.417480,-0.117901,-0.008500
34786,8.977337,-2.668233,2.149635,0.443279,-0.135972,-0.047952
34787,8.977844,-2.653898,2.240432,0.463276,-0.142532,-0.085039
34788,8.995934,-2.680122,2.265938,0.490782,-0.153564,-0.125776
34789,9.009830,-2.648596,2.298337,0.512016,-0.156895,-0.151390
34790,9.043182,-2.672237,2.377225,0.538824,-0.162053,-0.185974
34791,9.052300,-2.641182,2.377233,0.562055,-0.161058,-0.211274
34792,9.022006,-2.584652,2.434617,0.568271,-0.157540,-0.235630
34793,9.103046,-2.518455,2.430752,0.563438,-0.152904,-0.257438
34794,9.119908,-2.492923,2.451038,0.541926,-0.146214,-0.276603
34795,9.208299,-2.393632,2.491443,0.505572,-0.134408,-0.295800
34796,9.202224,-2.348044,2.528879,0.450136,-0.133975,-0.309065
34797,9.242976,-2.317028,2.541299,0.386451,-0.119332,-0.321867
34798,9.227097,-2.298560,2.623590,0.317277,-0.112522,-0.335932
34799,9.157644,-2.318050,2.672240,0.243650,-0.104773,-0.341819
34800,9.182291,-2.367510,2.671772,0.176553,-0.102719,-0.351146
34801,9.200561,-2.427302,2.638156,0.119491,-0.092790,-0.359265
