// Start Time: Unknown
// Update Rate: 100.0Hz
// Filter Profile: human (46.1)
// Firmware Version: 4.3.5
PacketCounter,Acc_X,Acc_Y,Acc_Z,Gyr_X,Gyr_Y,Gyr_Z
35049,9.979862,-0.536680,0.836034,0.001658,0.034595,0.009985
35050,9.991084,-0.578975,0.873634,0.012385,0.052335,0.002524
35051,9.998132,-0.549144,0.895898,0.035358,0.062548,-0.006157
35052,9.917241,-0.574734,0.878939,0.058397,0.068152,-0.013078
35053,9.921653,-0.584781,0.833921,0.077100,0.083953,-0.020796
35054,9.824557,-0.567288,0.751382,0.103932,0.083987,-0.023450
35055,9.834799,-0.517668,0.671590,0.116275,0.084806,-0.026101
35056,9.777513,-0.478047,0.530872,0.112899,0.076998,-0.028800
35057,9.679799,-0.444020,0.307095,0.108467,0.058902,-0.029406
35058,9.603649,-0.464633,0.095875,0.092803,0.032729,-0.024471
35059,9.494223,-0.378164,-0.080239,0.057080,-0.009439,-0.015366
35060,9.512477,-0.301811,-0.155972,-0.006944,-0.056885,-0.001751
35061,9.683787,-0.276632,0.005638,-0.075860,-0.082485,0.018875
35062,9.694906,-0.138590,0.326375,-0.138258,-0.074931,0.007845
35063,9.705535,-0.142753,0.613178,-0.165780,-0.085487,-0.006877
35064,9.927274,-0.171034,0.993555,-0.170186,-0.066065,-0.011309
35065,10.226881,-0.118632,1.523095,-0.175018,-0.015700,-0.022291
35066,10.694134,-0.058285,2.333495,-0.156385,0.082418,-0.050850
35067,11.297647,-0.063579,3.435996,-0.103865,0.246548,-0.102850
35068,11.260046,-0.159323,3.757853,-0.026390,0.465279,-0.212173
35069,10.495230,-0.388927,3.530208,0.236258,0.623841,-0.343100
35070,10.458768,-0.628228,3.047879,0.606581,0.705075,-0.406371
35071,10.667351,-1.373013,2.507933,1.039136,0.798720,-0.418522
35072,10.606675,-1.922473,2.166948,1.479571,0.894049,-0.443099
35073,10.410434,-1.981698,1.919766,1.888908,0.932188,-0.463656
35074,10.304980,-1.453534,1.393500,2.170601,0.923714,-0.479242
35075,9.891386,-0.829848,0.547195,2.304024,0.903118,-0.494907
35076,8.939480,0.299665,-0.380679,2.316238,0.770855,-0.533575
35077,8.561795,1.807516,-1.094699,2.054506,0.533616,-0.544416
35078,8.767251,2.310713,-1.436394,1.522800,0.322551,-0.518645
35079,8.869945,2.322454,-1.498540,0.882472,0.174008,-0.450658
35080,8.852513,2.056340,-1.502771,0.203192,0.064909,-0.380958
35081,8.881727,1.636951,-1.250202,-0.327420,-0.026038,-0.284296
35082,9.178200,0.648275,-0.779263,-0.791959,-0.080254,-0.150565
35083,9.154407,-0.349693,-0.274558,-1.060100,-0.099760,-0.035604
35084,8.932369,-1.068250,-0.053567,-1.142795,-0.147171,0.068827
35085,8.977823,-1.555064,0.467425,-1.079381,-0.199038,0.165926
35086,9.629674,-1.965441,1.664687,-0.948405,-0.180665,0.262529
35087,10.476436,-2.372458,3.368962,-0.792911,-0.054802,0.353068
35088,10.914821,-2.407011,4.476901,-0.588332,0.152831,0.402122
35089,10.730797,-2.156420,4.695783,-0.300137,0.336422,0.428616
35090,10.518333,-2.032084,4.065617,0.050620,0.422799,0.446501
35091,10.511247,-1.739794,3.247261,0.375362,0.432751,0.430139
35092,10.735518,-1.242569,2.680606,0.612457,0.445766,0.378104
35093,11.003318,-0.576275,2.547804,0.726405,0.498081,0.323339
35094,10.976643,-0.103965,2.589435,0.760178,0.595222,0.281621
35095,10.421945,0.472070,2.373797,0.709465,0.670569,0.247230
35096,9.364231,0.992158,1.432858,0.589774,0.650381,0.208883
35097,8.117856,1.352986,-0.503212,0.437552,0.489472,0.161806
35098,6.954559,1.492686,-2.528170,0.292648,0.190500,0.098443
35099,6.925605,1.308319,-3.620946,0.078183,-0.166774,0.051518
35100,7.793429,1.018518,-3.227926,-0.262820,-0.410717,0.059879
35101,8.814245,0.913140,-2.060575,-0.613528,-0.493850,0.095574
35102,9.043689,0.958315,-0.977608,-0.904173,-0.522923,0.148974
35103,9.281571,0.712712,-0.075449,-1.171631,-0.601938,0.252175
35104,9.880337,-0.006836,1.405235,-1.430949,-0.621427,0.391843
35105,11.189249,-0.966784,4.464799,-1.631419,-0.467523,0.524327
35106,12.246473,-1.413352,7.525306,-1.802197,-0.109332,0.589706
35107,12.457673,-1.163911,8.703137,-1.714988,0.290786,0.549081
35108,12.014037,-1.008325,8.137447,-1.443452,0.633872,0.546650
35109,11.273157,-2.125179,6.649814,-1.086101,0.777769,0.579312
35110,11.508536,-3.189999,5.625209,-0.659558,0.843002,0.589106
35111,12.103273,-3.441079,5.168532,-0.300547,0.965091,0.567761
35112,11.687125,-2.942220,4.421498,0.038859,1.104825,0.526832
35113,10.762863,-2.282920,3.044353,0.319394,1.170688,0.487114
35114,9.480989,-2.010009,1.184526,0.536758,1.130733,0.459655
35115,8.124302,-1.859026,-0.919791,0.698667,0.953249,0.408644
35116,7.418030,-1.716835,-2.373625,0.773507,0.657060,0.364680
35117,7.812988,-1.573761,-2.556199,0.720152,0.384839,0.361982
35118,8.751757,-1.135426,-1.569605,0.531586,0.261433,0.407189
35119,9.214689,-0.561718,-0.392782,0.256711,0.266756,0.471686
35120,9.033033,-0.064588,0.288429,-0.022116,0.266114,0.540203
35121,8.867258,0.181008,1.378097,-0.307139,0.231667,0.615660
35122,9.690340,-0.034271,3.889258,-0.643093,0.254878,0.694785
35123,10.968120,-0.172338,6.643436,-1.053154,0.487972,0.761180
35124,11.467924,-0.116055,8.212507,-1.356519,0.859598,0.778421
35125,11.321383,-0.627654,8.136824,-1.479203,1.213341,0.823004
35126,10.753299,-2.093452,6.899277,-1.341680,1.398412,0.903252
35127,10.972469,-3.719432,5.878804,-1.040567,1.455739,0.951561
35128,11.293172,-4.908954,5.254753,-0.721229,1.508351,0.978580
35129,10.799238,-5.494480,4.315844,-0.287264,1.549848,0.978529
35130,9.811679,-5.305771,2.876765,0.250343,1.514909,0.965741
35131,8.521870,-5.134846,0.688295,0.753288,1.373131,0.949177
35132,7.149145,-4.772441,-1.290895,1.222686,1.107279,0.919305
35133,6.731634,-4.221040,-2.325244,1.484779,0.719988,0.915305
35134,7.021679,-3.416743,-2.609811,1.543304,0.379130,0.908856
35135,7.825602,-2.438081,-1.883084,1.418829,0.149021,0.923560
35136,8.725001,-1.622542,-0.240052,1.117718,0.075112,0.961479
35137,9.034144,-0.588330,1.388750,0.691267,0.095808,1.002081
35138,8.829068,0.590286,2.643607,0.139093,0.126577,1.039883
35139,8.745789,1.210231,4.349108,-0.487010,0.146785,1.074030
35140,9.704672,1.144551,7.273049,-1.175771,0.279253,1.132053
35141,10.999871,0.940336,9.656306,-1.954172,0.646661,1.207421
35142,10.619268,0.163289,9.491852,-2.562602,1.097022,1.247423
35143,9.152457,-2.029023,7.840922,-2.703164,1.290739,1.279937
35144,8.876130,-4.631374,6.456599,-2.464986,1.221133,1.298661
35145,9.639494,-6.431795,5.648252,-2.104995,1.159587,1.300282
35146,9.719984,-7.595667,4.940902,-1.589617,1.165202,1.275591
35147,9.253452,-8.244733,4.023725,-0.866857,1.155298,1.226978
35148,8.377811,-8.461495,2.979904,-0.022800,1.113381,1.174473
35149,7.450978,-8.371745,1.862848,0.768595,0.995645,1.144376
35150,6.604457,-7.649449,0.740436,1.420101,0.798157,1.133914
35151,6.209659,-6.502108,0.074617,1.860258,0.557365,1.120828
35152,6.393817,-5.340363,0.049398,2.058588,0.332941,1.120304
35153,6.970690,-3.981995,0.824395,1.978297,0.186966,1.123574
35154,7.674007,-2.788716,2.265354,1.677203,0.145057,1.128766
35155,8.504826,-1.805076,4.438399,1.220362,0.237077,1.155016
35156,9.274493,-0.917675,7.041041,0.631763,0.499508,1.182985
35157,9.794828,-0.645833,9.499778,-0.069240,0.905565,1.189689
35158,9.716547,-1.018248,11.126265,-0.686789,1.354626,1.157160
35159,9.105113,-2.370403,11.376320,-1.113211,1.729954,1.153421
35160,8.254598,-4.218607,10.462545,-1.217829,1.914506,1.203556
35161,8.226285,-5.825812,9.254386,-1.109608,1.958161,1.292315
35162,8.596108,-7.460067,7.977775,-0.872473,1.986646,1.370416
35163,8.589509,-8.976263,6.661042,-0.390036,1.985722,1.405614
35164,8.148659,-9.922529,5.217637,0.386162,1.912691,1.387674
35165,7.111499,-9.740188,3.293040,1.282205,1.783763,1.311303
35166,5.595289,-8.715092,1.499894,2.121329,1.579329,1.199209
35167,4.547172,-7.283178,0.393399,2.780207,1.290618,1.080854
35168,4.235792,-5.662789,0.006390,3.126928,1.012395,0.974005
35169,4.044466,-3.606919,0.357610,3.132813,0.772854,0.884536
35170,4.133809,-1.717853,0.915199,2.832951,0.540260,0.826560
35171,4.527468,-0.369423,1.348587,2.235495,0.356415,0.813908
35172,4.568483,0.319716,1.833777,1.438617,0.190310,0.823464
35173,4.659782,0.381629,2.923924,0.654723,0.057962,0.851897
35174,5.436173,0.451425,5.239847,-0.097312,0.089756,0.901714
35175,6.298835,-0.005860,7.787906,-0.857573,0.340919,0.997307
35176,6.438192,-0.950483,9.585616,-1.543274,0.668318,1.104548
35177,5.806537,-2.685860,9.975868,-2.013545,0.880677,1.167791
35178,5.213254,-5.199365,9.340304,-2.049061,0.889325,1.160625
35179,5.374858,-7.501438,8.492270,-1.671439,0.763654,1.138471
35180,6.024585,-8.959119,7.869835,-1.110126,0.696735,1.116897
35181,6.226874,-9.696356,7.362606,-0.482930,0.726422,1.090137
35182,5.658340,-9.608039,6.930715,0.239619,0.748581,1.068916
35183,4.769628,-9.229665,6.198249,0.968225,0.708229,1.041335
35184,3.886889,-8.506674,5.181255,1.602968,0.612459,1.009030
35185,3.180482,-7.446996,4.249301,2.014743,0.486462,0.979256
35186,2.755905,-6.114362,3.634203,2.214060,0.346102,0.941723
35187,2.521436,-4.753972,3.368796,2.191741,0.202494,0.918168
35188,2.528583,-3.689400,3.037037,1.972217,0.043534,0.903384
35189,2.443044,-2.908400,2.766931,1.578846,-0.125085,0.907226
35190,2.478539,-2.501800,2.411154,1.076264,-0.379457,0.952234
35191,2.435633,-2.222473,2.406532,0.517710,-0.628042,0.969889
35192,2.246281,-2.014600,2.627602,0.010695,-0.857277,0.933717
35193,2.391902,-1.892722,3.137711,-0.450242,-1.105179,0.880605
35194,3.213788,-2.359351,4.179296,-0.886309,-1.286083,0.863138
35195,4.241392,-3.444364,5.721360,-1.312005,-1.343709,0.920116
35196,5.149172,-4.605797,7.800923,-1.670082,-1.271842,1.043172
35197,5.782064,-5.996658,9.804671,-1.922286,-1.091748,1.154823
35198,5.710081,-7.501166,11.107746,-1.904231,-0.864564,1.173934
35199,5.522553,-9.099960,11.293637,-1.529584,-0.666567,1.121438
35200,5.326964,-10.347170,10.773091,-0.907763,-0.534955,1.083136
35201,5.295888,-10.456477,10.087919,-0.250721,-0.450313,1.065046
35202,5.519676,-10.382274,9.417938,0.351577,-0.349915,1.054855
35203,5.457117,-10.200238,8.890710,0.889788,-0.198167,1.062365
35204,4.986829,-9.756126,8.250433,1.346971,-0.063571,1.076224
35205,4.387905,-9.184393,7.399697,1.730043,0.000987,1.098953
35206,3.851239,-8.479840,6.211221,2.021418,0.012902,1.126604
35207,3.273539,-7.511262,5.295296,2.189775,-0.032758,1.158115
35208,2.705739,-6.213286,4.599432,2.185315,-0.103578,1.160060
35209,2.322433,-4.871579,3.990230,1.980372,-0.215160,1.136985
35210,2.392787,-3.666952,3.617270,1.607612,-0.351001,1.117038
35211,2.463128,-2.925334,3.612468,1.103641,-0.499873,1.100159
35212,2.553934,-2.805089,3.779273,0.586608,-0.683405,1.069376
35213,2.822959,-3.085288,3.960876,0.101900,-0.906969,1.026281
35214,3.432514,-3.758783,4.314171,-0.300724,-1.067314,1.042943
35215,4.110423,-4.795897,5.292666,-0.569222,-1.140577,1.117317
35216,5.037301,-6.127258,7.548450,-0.731003,-1.156835,1.242691
35217,5.716005,-6.883335,10.613486,-0.918325,-1.055928,1.351548
35218,5.515528,-6.681887,12.816341,-1.122665,-0.781728,1.317092
35219,4.300580,-7.306493,12.294316,-0.848093,-0.429171,1.140038
35220,3.463439,-7.966827,10.712920,-0.234633,-0.233079,0.987429
35221,3.734300,-8.134288,9.540546,0.303983,-0.164835,0.969324
35222,4.201252,-8.209974,9.044681,0.732121,-0.070902,1.020946
35223,4.445928,-7.863628,8.890402,1.174735,0.062621,1.048018
35224,4.671104,-7.421570,8.696431,1.554900,0.219749,1.052256
35225,4.196041,-7.078504,8.327385,1.808795,0.375453,1.032052
35226,3.229417,-6.783432,7.753692,1.987236,0.450074,0.978488
35227,2.844058,-6.237394,7.016341,2.106113,0.440666,0.942986
35228,2.670432,-5.362969,6.379410,2.146005,0.455728,0.926827
35229,2.297965,-4.345966,5.813943,2.085569,0.495032,0.904571
35230,1.863296,-3.210056,5.359059,1.943071,0.484298,0.842362
35231,1.633284,-2.334448,5.134438,1.753672,0.397084,0.763177
35232,1.442612,-1.887873,5.487298,1.520466,0.260218,0.672980
35233,1.418062,-1.929310,6.207568,1.239966,0.055994,0.627794
35234,1.602520,-2.393755,6.375039,0.970838,-0.123655,0.592834
35235,2.138384,-2.737943,6.080463,0.800234,-0.199710,0.537534
35236,2.854275,-2.904698,6.525345,0.737531,-0.177028,0.488368
35237,3.247281,-3.866492,7.266270,0.758935,-0.162890,0.444573
35238,3.511907,-4.181892,8.463089,0.786973,-0.249527,0.424376
35239,3.328803,-3.448889,9.529103,0.668621,-0.294288,0.354773
35240,2.807181,-2.444122,10.282473,0.547603,-0.184875,0.172454
35241,2.725865,-2.568091,10.270656,0.571513,0.037362,-0.052456
35242,2.993653,-3.315729,10.212298,0.664783,0.278854,-0.201652
35243,2.866539,-3.891387,10.610970,0.784138,0.462152,-0.279289
35244,2.257390,-3.911723,10.527023,0.973487,0.497191,-0.355634
35245,1.981332,-3.351667,9.187280,1.108740,0.436386,-0.483951
35246,2.097105,-2.257392,8.211997,1.239714,0.372892,-0.652308
35247,2.223481,-1.104563,7.965300,1.260627,0.350865,-0.813549
35248,1.776502,0.112187,7.287163,1.162655,0.333785,-0.982613
35249,1.500846,1.284601,6.532363,0.967699,0.250854,-1.146502
35250,1.467577,2.177886,6.160452,0.647055,0.154909,-1.268722
35251,1.828651,2.484349,6.195799,0.198864,0.046219,-1.340022
35252,2.506022,1.701057,6.454744,-0.306178,-0.039272,-1.363776
35253,3.012947,0.245455,6.809591,-0.761606,-0.099710,-1.367508
35254,3.628190,-1.477651,7.742378,-1.125861,-0.139348,-1.367813
35255,4.309985,-2.916917,9.155185,-1.409828,-0.100314,-1.378950
35256,4.294129,-4.230892,10.545152,-1.543861,0.052122,-1.383703
35257,3.907328,-5.662169,11.122678,-1.437070,0.208850,-1.379886
35258,3.646373,-6.710250,11.231668,-1.115070,0.326063,-1.352910
35259,3.597692,-7.248669,11.440310,-0.663472,0.411371,-1.334822
35260,3.413356,-7.019654,11.420239,-0.174736,0.455868,-1.353665
35261,3.511219,-6.443013,10.816474,0.265889,0.482490,-1.407214
35262,3.729957,-5.503724,10.255952,0.660751,0.574492,-1.477927
35263,3.616464,-4.435473,9.824755,0.915081,0.651971,-1.565026
35264,3.563402,-3.210255,9.102326,1.028488,0.716912,-1.656166
35265,3.269170,-1.710095,8.416985,1.009656,0.796571,-1.706782
35266,2.807707,-0.511423,8.017881,0.800102,0.840922,-1.742447
35267,2.484891,0.263557,7.599425,0.422137,0.819962,-1.754098
35268,2.481700,0.431662,7.038637,-0.023508,0.749561,-1.755785
35269,2.693193,0.003976,6.493239,-0.446427,0.684205,-1.754578
35270,2.912718,-0.927142,6.050810,-0.774818,0.600332,-1.751279
35271,3.052894,-1.597722,6.161329,-1.047536,0.498126,-1.752732
35272,3.370292,-2.402903,6.754676,-1.305477,0.367260,-1.737803
35273,3.879432,-2.614533,8.289268,-1.590760,0.332883,-1.680776
35274,4.464365,-3.464168,9.897563,-1.815734,0.438748,-1.622483
35275,5.482792,-4.814683,11.153763,-1.924428,0.637941,-1.504108
35276,5.878994,-5.939117,12.027784,-1.930560,0.899847,-1.407229
35277,5.787782,-7.045624,12.601344,-1.721075,1.116299,-1.356866
35278,5.910867,-7.965402,13.007401,-1.360497,1.317964,-1.301595
35279,5.521067,-7.836012,12.851936,-1.032900,1.569114,-1.278597
35280,4.584742,-7.959366,11.856163,-0.615413,1.733841,-1.285880
35281,4.012575,-7.704818,10.663157,-0.073276,1.789032,-1.288834
35282,3.445529,-6.921508,9.414222,0.343849,1.825237,-1.288760
35283,2.727432,-6.032168,8.192518,0.665597,1.813785,-1.281772
35284,1.903710,-4.984064,6.777739,0.829564,1.736969,-1.266413
35285,1.268495,-3.858565,5.261259,0.887444,1.584359,-1.254556
35286,0.906930,-2.597830,4.227520,0.832327,1.378236,-1.254496
35287,0.763503,-1.580032,3.388438,0.627258,1.112502,-1.279331
35288,0.814567,-0.902185,2.571175,0.342059,0.824283,-1.309753
35289,0.758602,-0.555307,2.095941,0.020080,0.538016,-1.331207
35290,0.720479,-0.857110,1.944194,-0.325770,0.245934,-1.354171
35291,0.969929,-1.323830,2.621924,-0.639346,-0.006539,-1.371947
35292,1.675969,-1.789315,4.637019,-0.932040,-0.166902,-1.374319
35293,2.939289,-2.290676,7.892923,-1.297197,-0.152154,-1.356195
35294,4.294849,-3.018663,11.499476,-1.699106,0.056860,-1.294999
35295,4.791976,-4.130871,13.871980,-2.100167,0.381735,-1.166726
35296,4.290216,-5.528705,14.284867,-2.299365,0.622526,-1.040458
35297,3.994839,-7.397374,13.605396,-2.108015,0.754008,-1.003550
35298,4.154492,-9.096001,13.185487,-1.506390,0.864251,-1.000473
35299,4.074677,-9.577418,13.296129,-0.821631,0.961811,-1.059203
35300,3.572465,-9.353921,12.275698,-0.226198,1.017399,-1.126543
35301,2.828787,-8.824574,9.576283,0.426169,0.994179,-1.165152
35302,2.217470,-7.304019,6.863348,1.084390,1.000210,-1.160116
35303,1.391450,-5.508928,5.133186,1.515539,1.035120,-1.116528
35304,0.550963,-3.560379,4.395403,1.654283,0.942312,-1.083439
35305,0.156930,-1.912260,3.838313,1.450113,0.724219,-1.077350
35306,0.190614,-0.878867,3.048173,0.963885,0.463331,-1.066355
35307,0.327832,-0.527378,2.440929,0.338707,0.212211,-1.023191
35308,0.312413,-0.645670,1.999992,-0.223992,-0.051983,-0.995021
35309,0.499080,-0.896789,2.316624,-0.676841,-0.350760,-1.017160
35310,1.482658,-1.374426,4.370119,-1.005441,-0.589840,-1.054004
35311,3.370601,-2.359450,8.463884,-1.288375,-0.597980,-1.052669
35312,5.305790,-3.051480,13.923209,-1.624653,-0.239985,-0.968873
35313,5.288016,-3.975193,17.360634,-2.153806,0.270738,-0.787468
35314,3.165836,-6.126290,16.019547,-2.537199,0.531686,-0.586996
35315,2.350690,-8.659984,12.353946,-2.114287,0.517791,-0.533578
35316,3.160447,-9.837200,10.261878,-1.044755,0.533345,-0.574796
35317,3.081440,-9.277224,9.702289,-0.115724,0.620387,-0.621202
35318,2.050259,-7.830041,8.903436,0.451285,0.604548,-0.656331
35319,1.315932,-6.589513,7.420282,0.782677,0.514921,-0.655588
35320,0.877325,-5.587488,5.604668,0.958796,0.408658,-0.592967
35321,0.414880,-4.552103,3.519319,1.001916,0.237462,-0.520225
35322,-0.198240,-3.226483,1.594564,0.855733,-0.055047,-0.513050
35323,-0.464845,-2.031101,0.173142,0.525956,-0.413433,-0.577465
35324,0.060728,-1.390397,-0.029359,0.154356,-0.768237,-0.635248
35325,1.055382,-1.247110,1.057458,-0.284475,-1.105634,-0.626677
35326,2.442972,-1.130000,3.447191,-0.988759,-1.315122,-0.570183
35327,3.904194,-0.651925,6.426145,-1.985645,-1.281473,-0.525224
35328,5.546768,0.100582,11.127968,-2.906770,-0.975581,-0.570690
35329,7.823813,0.950607,17.596645,-3.752112,-0.359512,-0.694066
35330,7.180836,-0.957670,21.475185,-4.873939,0.419231,-0.589011
35331,3.312936,-6.367668,19.237495,-5.354562,0.789865,-0.448124
35332,2.460734,-11.174235,14.353177,-4.755946,0.804716,-0.363817
35333,4.305741,-14.851804,10.011453,-3.356999,0.874634,-0.240512
35334,5.079381,-16.644787,7.780489,-1.612207,1.001094,-0.147784
35335,3.335120,-15.408321,5.992214,-0.034397,0.954906,-0.178690
35336,1.476938,-12.510749,3.319407,1.317125,0.759885,-0.235323
35337,0.622068,-10.122180,1.292585,2.336125,0.549744,-0.194953
35338,0.528874,-8.123459,0.314186,2.871195,0.283623,-0.091574
35339,0.866374,-5.513514,0.651572,2.794816,-0.025099,0.006752
35340,1.846178,-2.755150,2.243057,2.215961,-0.312622,0.049019
35341,3.678412,-0.712619,5.136991,1.271850,-0.426923,0.078581
35342,4.900591,-0.239359,7.331911,-0.033350,-0.272873,0.110201
35343,4.420746,-0.286020,8.221324,-1.209767,0.016970,0.056761
35344,3.108316,-0.625348,8.235717,-2.174982,0.181497,-0.023796
35345,2.010354,-1.679940,8.396818,-2.953499,0.124636,-0.107604
35346,2.451170,-3.178863,9.371846,-3.527614,0.005937,-0.196731
35347,4.274614,-5.195438,11.444147,-3.754091,0.105141,-0.257312
35348,4.634487,-8.107458,12.433795,-3.832684,0.519232,-0.177248
35349,2.318858,-11.413928,10.160685,-3.424297,0.754920,0.005134
35350,1.487776,-13.414565,7.165908,-2.373719,0.680350,0.104171
35351,2.384226,-13.383007,6.050705,-1.214978,0.614547,0.135969
35352,3.118110,-13.095434,5.513286,-0.292059,0.597765,0.157233
35353,2.823084,-11.837172,5.338136,0.438977,0.561230,0.145280
35354,2.449300,-9.985515,5.277542,0.892298,0.464530,0.150275
35355,2.504581,-8.751471,5.386268,1.004147,0.354609,0.201483
35356,2.607564,-8.126615,5.148984,0.854862,0.281769,0.253254
35357,2.793785,-6.859706,4.897582,0.548190,0.289373,0.250740
35358,2.782813,-4.572458,5.038769,0.113478,0.316492,0.205416
35359,2.408921,-2.155185,6.352203,-0.526229,0.333803,0.068824
35360,2.943779,-1.421099,8.976837,-1.259334,0.376642,-0.052251
35361,2.896157,-2.728910,9.918641,-2.071728,0.648460,-0.099223
35362,0.720798,-4.599859,7.919127,-2.268770,0.777533,-0.083108
35363,0.204301,-6.608037,5.388297,-1.772153,0.517053,-0.104930
35364,2.896631,-7.834269,4.581243,-1.047810,0.301263,-0.174095
35365,4.643776,-7.838159,5.061890,-0.403485,0.452662,-0.321026
35366,2.918005,-6.933945,5.248266,0.164525,0.654916,-0.552786
35367,0.912509,-5.854115,5.162739,0.572406,0.582913,-0.698677
35368,0.372837,-4.649954,5.165482,0.647745,0.390744,-0.700076
35369,0.654304,-3.735606,5.041589,0.392744,0.223871,-0.638546
35370,1.425360,-3.836250,4.603509,-0.098677,0.103531,-0.519691
35371,2.259870,-4.394548,4.054850,-0.644771,0.073925,-0.413593
35372,3.008040,-4.544367,4.129947,-1.185586,0.046058,-0.348787
35373,3.492166,-4.606805,4.590343,-1.755875,0.015022,-0.358281
35374,3.504321,-4.538594,5.181134,-2.285227,0.034195,-0.465375
35375,3.311118,-6.176587,5.248785,-2.708723,0.131101,-0.553927
35376,1.942192,-9.876541,5.225008,-2.861873,0.282712,-0.592675
35377,0.831144,-12.696875,5.480001,-2.391998,0.356610,-0.534064
35378,0.570024,-14.160385,5.905483,-1.569249,0.296998,-0.369341
35379,1.811446,-14.357493,5.391938,-0.582094,0.162003,-0.218193
35380,3.084178,-13.448971,5.097872,0.336856,0.160615,-0.182779
35381,3.428313,-12.059433,5.118070,1.053423,0.207518,-0.212949
35382,2.931024,-10.443817,4.785828,1.653464,0.173603,-0.296216
35383,2.242443,-9.117140,4.110850,2.079221,0.070777,-0.367187
35384,1.503663,-7.597330,3.567861,2.257789,-0.021813,-0.357147
35385,1.312078,-5.778889,3.907553,2.002100,-0.053143,-0.232594
35386,1.421636,-5.319801,4.283360,1.374925,-0.126808,-0.011949
35387,1.970407,-5.944962,4.397895,0.770507,-0.231702,0.119851
35388,3.060079,-6.413925,5.013679,0.269708,-0.248584,0.133165
35389,3.742001,-6.885767,6.010993,-0.158895,-0.108991,0.116718
35390,3.336373,-7.363833,6.711591,-0.441637,0.045409,0.088559
35391,2.653356,-8.059150,6.925076,-0.518380,0.115699,0.093713
35392,2.562590,-9.133261,7.429997,-0.385371,0.160392,0.136151
35393,3.038123,-10.369885,7.942964,-0.058438,0.254075,0.200642
35394,3.216211,-11.105051,8.117173,0.467030,0.381501,0.252692
35395,3.104747,-11.353705,7.954046,1.205497,0.456500,0.278466
35396,3.006739,-11.368401,7.546868,2.123559,0.489409,0.281901
35397,2.837096,-10.525040,7.090154,3.079300,0.507783,0.237787
35398,2.395063,-9.012348,6.416684,3.788631,0.506935,0.170508
35399,1.294810,-6.808870,5.396216,4.182325,0.418798,0.077429
35400,0.696267,-4.584369,4.397982,4.183227,0.259321,0.065654
35401,0.766828,-2.990027,4.483060,3.648021,0.064531,0.153656
35402,1.692966,-3.014743,4.875439,2.692073,-0.092367,0.271673
35403,2.316907,-3.259977,5.099572,1.688308,-0.154807,0.351360
35404,2.378263,-3.501879,4.792540,0.845698,-0.192124,0.338137
35405,2.359822,-4.069800,4.673914,0.244950,-0.260288,0.343315
35406,2.282746,-4.633844,5.349895,-0.197575,-0.311404,0.351723
35407,2.196349,-4.767847,6.662971,-0.656000,-0.329068,0.363310
35408,2.409762,-5.005024,8.289498,-1.031055,-0.310797,0.402154
35409,2.741766,-5.799918,9.864114,-1.247596,-0.209666,0.444054
35410,2.684937,-7.334637,10.139162,-1.218431,-0.059467,0.487271
35411,2.081084,-9.009275,9.088269,-0.787964,-0.023055,0.496129
35412,1.891455,-9.751316,8.180992,-0.127415,-0.105920,0.468127
35413,2.344130,-9.277106,8.077767,0.472868,-0.153750,0.456432
35414,2.434540,-8.531187,7.786399,0.876966,-0.135607,0.454877
35415,1.802339,-7.435001,7.028367,1.241866,-0.104125,0.440765
35416,1.062004,-6.957652,6.137643,1.543474,-0.113980,0.488536
35417,-0.171188,-6.991747,3.918912,1.451461,-0.410612,0.597558
35418,-0.284167,-7.449465,1.370153,1.205432,-0.847867,0.695581
35419,0.742067,-7.564369,0.072185,1.097058,-1.094137,0.804336
35420,1.474014,-7.088350,0.134261,1.036499,-1.219318,0.975490
35421,1.992564,-6.484309,1.234197,0.827121,-1.350589,1.139008
35422,2.211868,-5.917820,2.426521,0.423143,-1.494799,1.270285
35423,1.919650,-4.662005,4.188043,-0.124364,-1.650112,1.356093
35424,2.060495,-3.118118,7.142002,-0.773852,-1.771795,1.402940
35425,3.904576,-2.555961,11.063492,-1.563779,-1.701291,1.399991
35426,5.832915,-2.939175,14.135965,-2.347923,-1.280634,1.289038
35427,5.169827,-4.383844,15.785599,-2.753981,-0.825176,1.110237
35428,3.608880,-6.200314,15.368915,-2.589972,-0.538103,0.924008
35429,3.456795,-7.856724,13.618918,-2.008710,-0.298523,0.795343
35430,3.389426,-9.449444,12.082552,-1.303993,-0.001396,0.731572
35431,2.868396,-10.332664,10.488846,-0.469776,0.133106,0.698377
35432,2.576477,-10.528297,8.582478,0.470049,0.118903,0.689286
35433,2.007221,-10.234744,6.153569,1.325903,0.043224,0.703926
35434,0.982315,-9.601238,3.431241,1.989349,-0.139807,0.705007
35435,0.618393,-8.382788,2.067947,2.484553,-0.396881,0.709943
35436,1.015055,-6.703901,1.638524,2.668123,-0.647260,0.737835
35437,1.370567,-4.500321,1.636908,2.507106,-0.840691,0.776789
35438,1.466772,-2.805415,1.614756,2.024669,-1.051091,0.805563
35439,1.482526,-2.013441,1.645587,1.345710,-1.287561,0.827840
35440,1.690944,-2.426622,2.079167,0.666703,-1.512323,0.846166
35441,2.818487,-2.753137,4.776580,0.003835,-1.606589,0.852660
35442,4.273284,-3.423620,7.635649,-0.680754,-1.471146,0.887901
35443,4.430446,-3.435335,10.282005,-1.256003,-1.218536,0.869495
35444,3.550998,-3.311565,11.932663,-1.728882,-1.023747,0.805015
35445,2.985558,-4.657087,11.765323,-1.969409,-0.876686,0.765851
35446,3.083739,-6.862758,10.796028,-1.943690,-0.747994,0.750713
35447,3.087351,-9.223392,9.755258,-1.600271,-0.680868,0.743215
35448,3.227456,-10.865866,8.581748,-0.931722,-0.703843,0.736546
35449,3.337098,-11.196083,7.422551,-0.149456,-0.708434,0.740471
35450,2.754279,-10.572898,6.364582,0.474767,-0.637004,0.744094
35451,1.893533,-10.173252,5.108461,1.061243,-0.693145,0.780671
35452,2.092792,-9.438581,4.277202,1.546810,-0.821968,0.849778
35453,2.068488,-7.846417,4.064126,1.762538,-0.912759,0.887965
35454,1.889171,-5.973680,3.937501,1.675879,-1.095204,0.884864
35455,2.109353,-4.491398,3.340843,1.475159,-1.300663,0.863509
35456,2.525138,-3.791638,3.069729,1.147965,-1.398483,0.824065
35457,2.422917,-3.723381,3.903793,0.751814,-1.434777,0.793741
35458,2.387990,-4.068298,5.188553,0.392028,-1.490032,0.795592
35459,2.487614,-3.925958,6.336033,0.084629,-1.497598,0.812474
35460,2.552909,-3.813223,7.254427,-0.314222,-1.507165,0.858261
35461,2.781866,-4.261064,7.209581,-0.587104,-1.573342,0.920822
35462,3.348013,-5.061630,6.992253,-0.755828,-1.614888,0.979102
35463,3.984493,-6.128023,6.952250,-0.771006,-1.633996,0.992275
35464,4.496814,-7.493484,6.945208,-0.621814,-1.565839,0.949138
35465,4.317372,-8.585937,7.180793,-0.305566,-1.444267,0.898386
35466,3.696162,-9.028757,7.361227,0.078558,-1.396067,0.878128
35467,3.445132,-8.899550,7.128798,0.475620,-1.389335,0.893759
35468,3.318923,-8.529468,6.793312,0.759783,-1.415952,0.931934
35469,3.315675,-7.829686,6.465480,0.918167,-1.449411,0.969859
35470,3.299236,-7.373618,5.672744,1.005650,-1.480734,0.997011
35471,3.162613,-6.514772,5.182405,1.042720,-1.532136,0.978189
35472,3.166971,-5.632768,4.874762,0.937312,-1.621761,0.936557
35473,3.300541,-4.598717,4.731428,0.735297,-1.734132,0.861473
35474,3.569893,-3.743576,4.690328,0.416299,-1.835795,0.771540
35475,3.781803,-3.453677,4.876456,0.037760,-1.890844,0.687246
35476,4.034308,-3.403145,5.398047,-0.319242,-1.935785,0.606377
35477,4.628534,-4.115738,5.751502,-0.628295,-1.926620,0.540067
35478,5.005324,-5.244809,6.714343,-0.853633,-1.849674,0.478739
35479,5.068896,-6.340285,8.498417,-0.900679,-1.715577,0.422614
35480,5.292862,-7.115764,10.539548,-0.872116,-1.525698,0.438969
35481,5.598557,-7.928244,11.201665,-0.789395,-1.266991,0.517479
35482,5.336270,-8.782683,10.355030,-0.520920,-1.012331,0.564157
35483,5.072886,-10.013387,9.203357,-0.015897,-0.837421,0.569541
35484,4.977850,-10.845673,8.128010,0.624841,-0.696561,0.556108
35485,4.784169,-10.588288,7.372671,1.282721,-0.586278,0.526533
35486,4.466569,-9.033573,7.296176,1.771872,-0.488213,0.487351
35487,4.511236,-7.395248,7.121395,1.967154,-0.434523,0.463559
35488,4.722825,-5.987672,6.694317,1.913390,-0.314351,0.461177
35489,4.607391,-5.123489,6.548100,1.650084,-0.174263,0.475600
35490,4.566263,-5.023629,6.617833,1.306157,-0.053380,0.496921
35491,4.340236,-5.237179,6.521332,0.976959,0.005025,0.534593
35492,3.670912,-5.022131,5.812746,0.757057,-0.053440,0.526608
35493,2.991857,-4.233822,4.868134,0.577266,-0.248688,0.435626
35494,2.741301,-3.622451,3.737352,0.384334,-0.494048,0.325927
35495,2.701662,-3.347538,3.444014,0.183864,-0.712496,0.244685
35496,3.192760,-3.441513,4.125621,-0.018738,-0.887654,0.180995
35497,4.249100,-4.416977,5.279979,-0.216574,-0.943856,0.153662
35498,4.992240,-5.314920,7.185428,-0.462081,-0.856030,0.198669
35499,4.936292,-6.101538,8.381292,-0.653681,-0.783163,0.241555
35500,4.874665,-7.007811,8.277270,-0.612307,-0.707827,0.219958
35501,4.971939,-7.981649,8.181598,-0.410114,-0.597475,0.191414
35502,4.814576,-8.907798,7.979852,-0.003047,-0.444355,0.189943
35503,4.280966,-9.047245,7.693037,0.506924,-0.308208,0.206315
35504,3.965875,-8.052432,7.551344,0.930199,-0.260497,0.211247
35505,4.089979,-7.211373,7.081543,1.193795,-0.206354,0.183289
35506,4.268670,-6.365223,6.763997,1.344554,-0.105297,0.162662
35507,4.368830,-5.451509,6.885139,1.377234,0.009548,0.149702
35508,4.418274,-4.646429,7.100115,1.254269,0.130463,0.136195
35509,4.284990,-4.093017,7.278291,1.044927,0.286622,0.131978
35510,3.970811,-4.150568,7.045739,0.808581,0.387181,0.109614
35511,3.584784,-4.268990,6.691523,0.647042,0.380108,0.062516
35512,3.297546,-4.156006,6.366641,0.600188,0.306582,-0.032031
35513,2.918585,-3.528088,5.881863,0.600310,0.159908,-0.183762
35514,3.102983,-2.498358,5.638292,0.554362,-0.023156,-0.345629
35515,3.262078,-1.566792,5.687525,0.410996,-0.139071,-0.517228
35516,3.356645,-0.972342,5.757632,0.148978,-0.244409,-0.684266
35517,3.644440,-1.020706,5.950717,-0.206659,-0.319492,-0.825980
35518,3.951716,-1.463181,6.261149,-0.596420,-0.360592,-0.930037
35519,4.142800,-2.069717,6.533542,-0.944238,-0.346441,-1.019251
35520,4.368494,-2.865529,6.776626,-1.171729,-0.304778,-1.112324
35521,4.517722,-3.735137,7.135381,-1.281355,-0.249521,-1.203993
35522,4.951838,-4.639079,7.439292,-1.249347,-0.189946,-1.268160
35523,5.612996,-5.319671,7.481469,-1.089119,-0.160786,-1.303443
35524,6.044636,-5.757639,7.592600,-0.954412,-0.151306,-1.349974
35525,6.375776,-6.105334,8.012071,-0.887114,-0.150662,-1.404489
35526,6.521679,-6.158269,7.964384,-0.850406,-0.096191,-1.497897
35527,6.154316,-5.848172,7.479077,-0.787064,0.054740,-1.642117
35528,5.687169,-6.233479,6.614225,-0.578470,0.203771,-1.772771
35529,5.734319,-6.483388,6.381876,-0.321728,0.323353,-1.797685
35530,5.609222,-6.246665,6.308441,-0.117066,0.410839,-1.757821
35531,5.338962,-5.909751,5.899057,0.029039,0.428378,-1.728677
35532,5.233367,-5.686286,5.304674,0.111423,0.398157,-1.718295
35533,5.154464,-5.405385,4.932344,0.137684,0.370916,-1.727581
35534,4.825742,-5.372673,4.473130,0.177142,0.285988,-1.765829
35535,4.589361,-5.094031,3.945963,0.207834,0.128083,-1.785624
35536,4.474145,-4.660075,3.265248,0.218288,-0.053005,-1.793824
35537,4.366130,-4.205730,2.427027,0.216796,-0.288367,-1.793890
35538,4.629054,-3.861355,1.835212,0.152522,-0.567774,-1.787452
35539,5.209219,-3.486932,2.085056,-0.088628,-0.827970,-1.772751
35540,5.928558,-3.198635,3.396151,-0.489186,-1.022089,-1.744885
35541,7.214586,-3.388676,4.858023,-0.947623,-1.091192,-1.679457
35542,8.645471,-4.030903,6.501718,-1.429954,-0.922464,-1.573808
35543,9.267590,-4.824512,8.016207,-1.805877,-0.587906,-1.440809
35544,9.043177,-5.656597,8.863648,-2.016125,-0.286104,-1.321317
35545,8.343354,-6.122777,9.139950,-2.082069,-0.087054,-1.262382
35546,7.867060,-6.205700,8.916051,-1.975017,0.037828,-1.244165
35547,7.765452,-6.704398,7.822764,-1.657567,0.093912,-1.207981
35548,7.670637,-7.407830,6.501026,-1.233431,0.186706,-1.154583
35549,7.146260,-7.733474,5.471566,-0.770291,0.249332,-1.111159
35550,6.536227,-7.742586,4.530161,-0.240462,0.188875,-1.079563
35551,6.305791,-7.169930,3.754637,0.279516,0.054301,-1.073087
35552,6.173707,-6.271288,3.149419,0.662883,-0.106644,-1.106615
35553,6.067530,-5.346548,2.647459,0.892219,-0.288151,-1.158354
35554,6.081948,-4.263245,2.093883,1.001645,-0.483591,-1.209429
35555,6.055145,-3.147395,1.419493,0.996375,-0.701985,-1.257093
35556,5.868824,-2.207758,0.920941,0.829051,-0.910813,-1.325188
35557,5.737390,-1.391037,1.259565,0.565166,-1.148349,-1.410716
35558,6.535649,-0.957207,2.285559,0.191698,-1.349205,-1.420093
35559,8.219652,-0.922199,4.177700,-0.290500,-1.336420,-1.333253
35560,9.852431,-1.113178,6.415890,-0.867523,-1.063313,-1.159030
35561,10.832051,-1.398862,8.178246,-1.479546,-0.663017,-0.978683
35562,10.659873,-1.782836,8.797665,-2.009218,-0.271654,-0.850609
35563,9.542852,-2.640212,8.256615,-2.325852,-0.019420,-0.807960
35564,8.921455,-4.162699,6.971568,-2.245244,-0.009489,-0.810442
35565,9.352993,-5.596211,5.681781,-1.848812,-0.022042,-0.798720
35566,9.533046,-6.565496,4.950650,-1.313714,0.061495,-0.762550
35567,8.803778,-6.538469,4.577296,-0.793473,0.130406,-0.733622
35568,7.884669,-6.256100,3.854789,-0.297944,0.086096,-0.717091
35569,7.052053,-5.647271,2.863720,0.171450,-0.046575,-0.721728
35570,6.611573,-5.029659,1.906580,0.539298,-0.251516,-0.759036
35571,6.418795,-4.317166,1.354462,0.765793,-0.472191,-0.841382
35572,6.409354,-3.396346,1.093377,0.835690,-0.715611,-0.959033
35573,6.612045,-2.476192,0.947051,0.742765,-0.957755,-1.062849
35574,6.982604,-1.777897,0.725635,0.558526,-1.190264,-1.122827
35575,7.420658,-1.413728,0.188495,0.312115,-1.402127,-1.130778
35576,8.117099,-1.231242,0.333480,0.021442,-1.595935,-1.083901
35577,9.569407,-1.205405,2.234711,-0.336284,-1.657523,-0.982855
35578,11.378340,-1.003931,5.754215,-0.896441,-1.478405,-0.861982
35579,12.993001,-0.590185,9.272066,-1.700338,-1.037280,-0.732089
35580,13.559401,-0.899097,10.867870,-2.395910,-0.399541,-0.633923
35581,12.057877,-2.666370,10.224787,-2.714424,0.207264,-0.581887
35582,9.666022,-5.510322,7.714620,-2.437310,0.436424,-0.532743
35583,8.429617,-7.834710,5.170898,-1.561728,0.317199,-0.495556
35584,8.352477,-8.813856,3.494950,-0.434509,0.133663,-0.477432
35585,8.511771,-8.404957,2.516767,0.605222,-0.018271,-0.484296
35586,8.319072,-7.289639,1.709064,1.307733,-0.168081,-0.468131
35587,7.856844,-6.394303,0.687208,1.745917,-0.433692,-0.421525
35588,8.213493,-5.351398,-0.043967,1.971713,-0.713701,-0.376782
35589,8.413423,-4.095389,-0.500515,1.966222,-0.879080,-0.337416
35590,8.424783,-3.159759,-0.740112,1.803662,-0.941285,-0.331282
35591,8.303217,-2.053942,-0.256986,1.569015,-0.971654,-0.343833
35592,8.298248,-0.644349,0.777819,1.160405,-1.032692,-0.321168
35593,8.686655,0.450669,1.586204,0.596451,-1.069006,-0.264389
35594,9.154399,1.349729,2.778467,-0.013649,-1.030783,-0.193028
35595,10.008649,2.103227,4.807459,-0.668882,-0.852085,-0.143730
35596,10.699437,2.171544,6.541033,-1.378286,-0.576310,-0.132874
35597,10.531079,1.622872,6.697092,-1.885083,-0.262938,-0.182303
35598,9.473448,0.235611,5.529270,-1.943246,-0.118802,-0.251442
35599,9.112123,-1.656307,3.922261,-1.496272,-0.222427,-0.339108
35600,9.701731,-3.018617,3.119945,-0.882012,-0.374755,-0.434347
35601,10.212638,-2.864540,3.165479,-0.361988,-0.420809,-0.592735
35602,10.202770,-1.925987,3.109597,-0.037000,-0.405662,-0.783358
35603,9.878552,-1.117726,2.581061,0.224873,-0.414661,-0.918895
35604,9.667923,-0.424557,1.886507,0.396825,-0.450224,-0.999074
35605,9.566673,0.069107,1.468035,0.391929,-0.485360,-1.046251
35606,9.579930,0.475548,1.348632,0.242854,-0.515203,-1.052875
35607,9.657534,1.136472,1.419856,0.001271,-0.526888,-1.061969
35608,9.743062,1.415707,1.457227,-0.331653,-0.540881,-1.070380
35609,9.802600,1.251879,1.714432,-0.664107,-0.547852,-1.075020
35610,9.793356,0.860654,1.359931,-0.974574,-0.569085,-1.079227
35611,9.683840,0.344888,1.171043,-1.168384,-0.581147,-1.102130
35612,9.492015,-0.263292,1.058154,-1.254771,-0.619649,-1.129821
35613,9.507592,-0.781633,1.121361,-1.218318,-0.671955,-1.175761
35614,9.600514,-1.259845,1.192828,-1.120299,-0.690599,-1.192559
35615,9.653254,-1.734636,1.145226,-0.957854,-0.699416,-1.185918
35616,9.870956,-2.003947,1.226837,-0.782638,-0.703832,-1.152651
35617,9.937672,-2.297324,1.331146,-0.594706,-0.709456,-1.113747
35618,9.945127,-2.177637,1.285074,-0.457510,-0.725200,-1.075216
35619,9.934508,-2.069403,1.170036,-0.359650,-0.732788,-1.010794
35620,9.975691,-1.990245,1.105140,-0.309869,-0.742516,-0.933023
35621,9.999010,-1.794957,1.165385,-0.280886,-0.740197,-0.849268
35622,10.027289,-1.669887,1.165040,-0.282457,-0.719872,-0.759830
35623,10.017963,-1.509895,1.280539,-0.297628,-0.695257,-0.658266
35624,9.985549,-1.465330,1.364817,-0.299899,-0.673952,-0.561290
35625,10.076778,-1.465272,1.423063,-0.283688,-0.655686,-0.453763
35626,10.234988,-1.492079,1.441260,-0.249037,-0.627067,-0.355816
35627,10.333365,-1.433552,1.357865,-0.185154,-0.598214,-0.288774
35628,10.256848,-1.285720,1.375868,-0.107312,-0.565984,-0.237425
35629,10.202394,-1.076183,1.479283,-0.021331,-0.546061,-0.198426
35630,10.202670,-0.813718,1.540216,0.054025,-0.510283,-0.160991
35631,10.193326,-0.633344,1.539357,0.109433,-0.467083,-0.120885
35632,10.189128,-0.338217,1.562906,0.132330,-0.429640,-0.090771
35633,10.213796,-0.185832,1.510246,0.141978,-0.381102,-0.055803
35634,10.180084,0.010879,1.440385,0.139916,-0.331813,-0.035588
35635,10.214292,0.183253,1.364162,0.122611,-0.294136,-0.018313
35636,10.214152,0.289303,1.266435,0.097080,-0.244919,-0.014687
35637,10.246724,0.394248,1.222735,0.058898,-0.201576,-0.004517
35638,10.252600,0.356897,1.249959,0.016110,-0.160747,-0.001435
35639,10.266389,0.284934,1.239853,-0.026087,-0.115700,-0.002925
35640,10.242542,0.153491,1.175244,-0.047747,-0.074205,-0.001320
35641,10.241484,0.006862,1.074239,-0.050740,-0.039274,0.002110
35642,10.239292,-0.043117,0.940925,-0.038316,0.002446,0.009945
35643,10.163175,-0.043395,0.898283,-0.027998,0.034048,0.016805
35644,10.128975,-0.078507,0.866241,-0.016927,0.068375,0.031844
35645,10.116697,-0.107382,0.906925,-0.011266,0.100763,0.042907
35646,10.112170,-0.139115,0.897197,-0.014321,0.138969,0.057719
35647,10.058588,-0.223763,0.851775,-0.004532,0.168941,0.071955
35648,10.035049,-0.303917,0.824616,0.008358,0.195528,0.087719
35649,9.984347,-0.397158,0.818184,0.029609,0.219167,0.104097
35650,9.984027,-0.430458,0.731860,0.058707,0.243812,0.123381
35651,9.960153,-0.450195,0.687646,0.084883,0.259306,0.134162
35652,9.963229,-0.492253,0.638979,0.113002,0.273723,0.156195
35653,9.966673,-0.503642,0.579714,0.137464,0.285133,0.167787
35654,9.973623,-0.490041,0.543191,0.165318,0.289873,0.187276
35655,9.951816,-0.419194,0.466485,0.180502,0.290350,0.200293
35656,9.878659,-0.377916,0.458845,0.192009,0.286328,0.215714
35657,9.880379,-0.340074,0.496639,0.196378,0.275197,0.230146
35658,9.822338,-0.314312,0.500732,0.203860,0.267329,0.238905
35659,9.763621,-0.321408,0.515890,0.202239,0.255656,0.248849
35660,9.717173,-0.337119,0.509917,0.207369,0.241358,0.257404
35661,9.670868,-0.353031,0.502122,0.221982,0.221592,0.257163
35662,9.695393,-0.398268,0.518537,0.238529,0.201115,0.257567
35663,9.693330,-0.422049,0.537935,0.262905,0.177859,0.260407
35664,9.803781,-0.478576,0.579355,0.286167,0.158387,0.260099
35665,9.850229,-0.414600,0.588181,0.309471,0.141544,0.262516
35666,9.844620,-0.380452,0.698376,0.324810,0.125868,0.257721
35667,9.872618,-0.361734,0.680723,0.336906,0.110739,0.259210
35668,9.846348,-0.367616,0.730499,0.355331,0.093208,0.260942
35669,9.852593,-0.263677,0.686637,0.366023,0.072637,0.263955
35670,9.890967,-0.159509,0.691328,0.363988,0.061650,0.264948
35671,9.993832,-0.145206,0.715315,0.346355,0.057879,0.265926
35672,10.104600,-0.204082,0.747292,0.339049,0.056711,0.271574
35673,10.248046,-0.191731,0.734458,0.331736,0.055560,0.277230
35674,10.206935,-0.256877,0.860329,0.328774,0.065923,0.279832
35675,10.118444,-0.173357,0.883180,0.320933,0.057068,0.268587
35676,9.960010,-0.053944,0.841202,0.310759,0.042447,0.264231
35677,9.779477,-0.010312,0.788715,0.289740,0.009642,0.246498
35678,9.664413,0.014361,0.658301,0.254244,-0.027375,0.240056
35679,9.676697,-0.054612,0.718783,0.218183,-0.048807,0.228252
35680,9.709987,-0.211324,0.838322,0.186732,-0.048616,0.216956
35681,9.686766,-0.289911,1.072735,0.163846,-0.037691,0.210605
35682,9.663710,-0.426604,1.181459,0.154353,-0.022895,0.208878
35683,9.623859,-0.446240,1.251477,0.157167,-0.008979,0.209662
35684,9.573411,-0.517673,1.248684,0.167321,-0.003110,0.198669
35685,9.550251,-0.479981,1.238177,0.189055,0.005301,0.195885
35686,9.595712,-0.473201,1.257652,0.209182,0.016033,0.186663
35687,9.649118,-0.406138,1.283357,0.216092,0.035098,0.172129
35688,9.706388,-0.406938,1.287339,0.207243,0.055126,0.154465
35689,9.739607,-0.385805,1.330675,0.198542,0.077881,0.139376
35690,9.760528,-0.413858,1.268273,0.192581,0.095425,0.121316
35691,9.761065,-0.388795,1.229656,0.188017,0.109858,0.102835
35692,9.770014,-0.403560,1.188779,0.178562,0.122722,0.085817
35693,9.769550,-0.373273,1.117626,0.176374,0.124638,0.074022
35694,9.763117,-0.405978,1.111225,0.167083,0.124901,0.056283
35695,9.755911,-0.334288,1.077458,0.155751,0.121147,0.039657
35696,9.735704,-0.348651,1.019864,0.141899,0.114733,0.023572
35697,9.692682,-0.342914,1.032629,0.127490,0.104947,0.008640
35698,9.649791,-0.335810,1.044386,0.110635,0.097213,-0.007466
35699,9.660966,-0.344012,1.035101,0.090704,0.083468,-0.021888
35700,9.668510,-0.381523,1.040469,0.078403,0.082342,-0.039619
35701,9.626014,-0.370281,1.049819,0.064530,0.075853,-0.055649
35702,9.645960,-0.415893,1.035795,0.053743,0.067740,-0.065215
35703,9.658566,-0.421393,1.058277,0.047301,0.058777,-0.077241
35704,9.708574,-0.460549,1.059736,0.037303,0.053882,-0.079001
35705,9.703108,-0.478452,1.011328,0.027580,0.046782,-0.086989
35706,9.740485,-0.504041,0.995159,0.021435,0.035752,-0.085779
35707,9.736880,-0.525974,1.014110,0.019352,0.033689,-0.088953
35708,9.673370,-0.555583,0.963620,0.022776,0.013566,-0.089733
35709,9.686053,-0.557162,0.946184,0.023846,0.000212,-0.093459
35710,9.685877,-0.546063,0.910957,0.016648,-0.018509,-0.087792
35711,9.674313,-0.526778,0.926959,0.015919,-0.029346,-0.087453
